counterbalancing_condition,consent_prescreening.block_1/declare_consent,consent_prescreening.block_1/age_years,consent_prescreening.block_1/gender,consent_prescreening.block_1/language_disorder,consent_prescreening.block_1/first_language,PROLIFIC_PID,STUDY_ID,SESSION_ID,date,expName,psychopyVersion,OS,frameRate,check_prescreening_answers.started,check_prescreening_answers.stopped,Instructions.started,Instructions.stopped,instr_done_keyboard.keys,instr_done_keyboard.rt,instr_done_keyboard.duration,instr_done_touch.x,instr_done_touch.y,instr_done_touch.leftButton,instr_done_touch.midButton,instr_done_touch.rightButton,instruction_pages.thisRepN,instruction_pages.thisTrialN,instruction_pages.thisN,instruction_pages.thisIndex,instruction_pages.ran,pageN,phase,instruct_text,has_image,instruct_image,presentTrial.started,presentTrial.stopped,response.keys,response.corr,response.rt,response.duration,rt,corr,feedback.started,feedback.stopped,practice_trials.thisRepN,practice_trials.thisTrialN,practice_trials.thisN,practice_trials.thisIndex,practice_trials.ran,TrialID,Gender,StimulusType,Condition,PrimeDuration,Prime,len,Flanker,corrAns,Break.started,Break.stopped,break_done_touch.x,break_done_touch.y,break_done_touch.leftButton,break_done_touch.midButton,break_done_touch.rightButton,break_done_keyboard.keys,experiment_trials.thisRepN,experiment_trials.thisTrialN,experiment_trials.thisN,experiment_trials.thisIndex,experiment_trials.ran,PairedWith,break_done_keyboard.rt,break_done_keyboard.duration,End.started,End.stopped
3,"[""over_18"",""comfortable"",""read_info"",""consent_given""]",40,M,"[""none""]","[""spanish""]",56cfd0ddd691bb000697baef,676192165fb32c2e1fb7aee6,67d16a5bc77b1f8efc6df27a,2025-03-12_05h05.25.225,Tarea de decisión léxica,2024.2.5,Linux x86_64,59.88023952,,,,,,,,,,,,,,,,,,,,,,,,,,,,,,,,,,,,,,,,,,,,,,,,,,,,,,,,,,,,,,,,
,,,,,,56cfd0ddd691bb000697baef,676192165fb32c2e1fb7aee6,67d16a5bc77b1f8efc6df27a,2025-03-12_05h05.25.225,Tarea de decisión léxica,2024.2.5,Linux x86_64,59.88023952,59.8424,59.8428,,,,,,,,,,,,,,,,,,,,,,,,,,,,,,,,,,,,,,,,,,,,,,,,,,,,,,,,,,,,,,
,,,,,,56cfd0ddd691bb000697baef,676192165fb32c2e1fb7aee6,67d16a5bc77b1f8efc6df27a,2025-03-12_05h05.25.225,Tarea de decisión léxica,2024.2.5,Linux x86_64,59.88023952,,,59.9188,74.1781,space,14.1833,,-0.162760417,-0.16015625,0,0,0,0,0,0,0,1,1,instructions,"INSTRUCCIONES
Va a realizar una prueba de decisión léxica. Desde el comienzo de la prueba mire siempre al centro de la pantalla. Se presentará una serie de cadenas de letras, una a la vez, en la pantalla. Su tarea consiste en determinar si cada cadena de letras constituye una palabra real en español o una no-palabra (una secuencia de letras que no constituye una palabra real). 

Pulse la tecla ESPACIO para continuar.",0,keyboardresponseWN.png,,,,,,,,,,,,,,,,,,,,,,,,,,,,,,,,,,,,,,,,,,
,,,,,,56cfd0ddd691bb000697baef,676192165fb32c2e1fb7aee6,67d16a5bc77b1f8efc6df27a,2025-03-12_05h05.25.225,Tarea de decisión léxica,2024.2.5,Linux x86_64,59.88023952,,,74.1853,108.0902,space,33.8642,,0.01171875,-0.399739583,0,0,0,0,1,1,1,1,2,instructions,"El procedimiento es el siguiente: Aparecerán dos barras verticales posicionadas en el centro de la pantalla, separadas por un pequeño espacio.Por favor, enfoque su atención en el espacio entre las barras. Esto preparará sus ojos para la siguiente cadena de letras, que aparecerá entre las dos barras durante un instante.

Pulse la tecla ESPACIO para continuar.",0,keyboardresponseWN.png,,,,,,,,,,,,,,,,,,,,,,,,,,,,,,,,,,,,,,,,,,
,,,,,,56cfd0ddd691bb000697baef,676192165fb32c2e1fb7aee6,67d16a5bc77b1f8efc6df27a,2025-03-12_05h05.25.225,Tarea de decisión léxica,2024.2.5,Linux x86_64,59.88023952,,,108.0952,124.8311,space,16.5691,,0.01171875,-0.399739583,0,0,0,0,2,2,2,1,3,instructions,"En el teclado de su dispositivo, pulse la tecla ""A"" si la cadena de letras es una palabra real en español (por ejemplo: ""mano"") y la tecla ""L"" si la cadena de letras es una no-palabra (por ejemplo: ""minu"").
Pulse la tecla ESPACIO para continuar.",1,keyboardresponseWN.png,,,,,,,,,,,,,,,,,,,,,,,,,,,,,,,,,,,,,,,,,,
,,,,,,56cfd0ddd691bb000697baef,676192165fb32c2e1fb7aee6,67d16a5bc77b1f8efc6df27a,2025-03-12_05h05.25.225,Tarea de decisión léxica,2024.2.5,Linux x86_64,59.88023952,,,124.8403,151.4126,space,26.5402,,0.01171875,-0.399739583,0,0,0,0,3,3,3,1,4,instructions,"Es muy importante que responda con la mayor rapidez y precisión posibles. Si no responde dentro de 2 segundos, aparecerá el mensaje ""Muy lento"" y el experimento pasará a la siguiente palabra. Inmediatamente después de su respuesta se indicará si fue correcta o no. Los primeros 15 intentos serán de práctica y habrá dos descansos durante la prueba.

Pulse la tecla ESPACIO  para iniciar la parte de práctica.",0,keyboardresponseWN.png,,,,,,,,,,,,,,,,,,,,,,,,,,,,,,,,,,,,,,,,,,
,,,,,,56cfd0ddd691bb000697baef,676192165fb32c2e1fb7aee6,67d16a5bc77b1f8efc6df27a,2025-03-12_05h05.25.225,Tarea de decisión léxica,2024.2.5,Linux x86_64,59.88023952,,,,,,,,,,,,,,,,,,,,,,,151.4694,153.8683,a,0,1.7237,,1.7237,0,153.8691,154.3716,0,0,0,2,1,1003,FEM,NOWORD,DIS,150,muvor,5,el,a,,,,,,,,,,,,,,,,,,
,,,,,,56cfd0ddd691bb000697baef,676192165fb32c2e1fb7aee6,67d16a5bc77b1f8efc6df27a,2025-03-12_05h05.25.225,Tarea de decisión léxica,2024.2.5,Linux x86_64,59.88023952,,,,,,,,,,,,,,,,,,,,,,,154.3747,156.7082,l,1,1.6618,,1.6618,1,156.7122,157.2093,0,1,1,4,1,1005,MAS,NOWORD,DIS,150,nobad,5,la,a,,,,,,,,,,,,,,,,,,
,,,,,,56cfd0ddd691bb000697baef,676192165fb32c2e1fb7aee6,67d16a5bc77b1f8efc6df27a,2025-03-12_05h05.25.225,Tarea de decisión léxica,2024.2.5,Linux x86_64,59.88023952,,,,,,,,,,,,,,,,,,,,,,,157.2123,159.4327,a,1,1.565,,1.565,1,159.4341,159.9329,0,2,2,6,1,1007,MAS,WORD,DIS,150,masa,4,la,l,,,,,,,,,,,,,,,,,,
,,,,,,56cfd0ddd691bb000697baef,676192165fb32c2e1fb7aee6,67d16a5bc77b1f8efc6df27a,2025-03-12_05h05.25.225,Tarea de decisión léxica,2024.2.5,Linux x86_64,59.88023952,,,,,,,,,,,,,,,,,,,,,,,159.9357,161.7893,l,0,1.1968,,1.1968,0,161.7922,162.2896,0,3,3,8,1,1009,FEM,WORD,AGR,150,viejo,5,la,l,,,,,,,,,,,,,,,,,,
,,,,,,56cfd0ddd691bb000697baef,676192165fb32c2e1fb7aee6,67d16a5bc77b1f8efc6df27a,2025-03-12_05h05.25.225,Tarea de decisión léxica,2024.2.5,Linux x86_64,59.88023952,,,,,,,,,,,,,,,,,,,,,,,162.2925,163.8925,a,1,0.9229,,0.9229,1,163.8955,164.3944,0,4,4,7,1,1008,MAS,WORD,DIS,150,frío,4,la,l,,,,,,,,,,,,,,,,,,
,,,,,,56cfd0ddd691bb000697baef,676192165fb32c2e1fb7aee6,67d16a5bc77b1f8efc6df27a,2025-03-12_05h05.25.225,Tarea de decisión léxica,2024.2.5,Linux x86_64,59.88023952,,,,,,,,,,,,,,,,,,,,,,,164.3974,165.9307,l,1,0.8679,,0.8679,1,165.931,166.4317,0,5,5,0,1,1001,FEM,NOWORD,AGR,150,croz,4,la,a,,,,,,,,,,,,,,,,,,
,,,,,,56cfd0ddd691bb000697baef,676192165fb32c2e1fb7aee6,67d16a5bc77b1f8efc6df27a,2025-03-12_05h05.25.225,Tarea de decisión léxica,2024.2.5,Linux x86_64,59.88023952,,,,,,,,,,,,,,,,,,,,,,,166.4347,167.9688,a,1,0.8709,,0.8709,1,167.969,168.4702,0,6,6,9,1,1010,MAS,WORD,DIS,150,video,5,la,l,,,,,,,,,,,,,,,,,,
,,,,,,56cfd0ddd691bb000697baef,676192165fb32c2e1fb7aee6,67d16a5bc77b1f8efc6df27a,2025-03-12_05h05.25.225,Tarea de decisión léxica,2024.2.5,Linux x86_64,59.88023952,,,,,,,,,,,,,,,,,,,,,,,168.4727,169.8563,l,1,0.7182,,0.7182,1,169.8566,170.359,0,7,7,1,1,1002,FEM,NOWORD,DIS,150,mabo,4,el,a,,,,,,,,,,,,,,,,,,
,,,,,,56cfd0ddd691bb000697baef,676192165fb32c2e1fb7aee6,67d16a5bc77b1f8efc6df27a,2025-03-12_05h05.25.225,Tarea de decisión léxica,2024.2.5,Linux x86_64,59.88023952,,,,,,,,,,,,,,,,,,,,,,,170.3621,171.7954,l,1,0.7697,,0.7697,1,171.7956,172.2964,0,8,8,3,1,1004,FEM,NOWORD,AGR,150,bireo,5,la,a,,,,,,,,,,,,,,,,,,
,,,,,,56cfd0ddd691bb000697baef,676192165fb32c2e1fb7aee6,67d16a5bc77b1f8efc6df27a,2025-03-12_05h05.25.225,Tarea de decisión léxica,2024.2.5,Linux x86_64,59.88023952,,,,,,,,,,,,,,,,,,,,,,,172.3005,173.5205,a,1,0.5661,,0.5661,1,173.5207,174.0176,0,9,9,5,1,1006,FEM,WORD,AGR,150,cara,4,la,l,,,,,,,,,,,,,,,,,,
,,,,,,56cfd0ddd691bb000697baef,676192165fb32c2e1fb7aee6,67d16a5bc77b1f8efc6df27a,2025-03-12_05h05.25.225,Tarea de decisión léxica,2024.2.5,Linux x86_64,59.88023952,,,182.5614,186.3647,space,3.7765,,0.01171875,-0.399739583,0,0,0,,,,,,,,,,,186.5101,187.9191,l,1,0.7485,,0.7485,1,187.92,188.4186,,,,,,422,MAS,NOWORD,AGR,150,griso,,el,,188.4195,188.4247,0.01171875,-0.399739583,0,0,0,,0,0,0,421,1,primo,,,,
,,,,,,56cfd0ddd691bb000697baef,676192165fb32c2e1fb7aee6,67d16a5bc77b1f8efc6df27a,2025-03-12_05h05.25.225,Tarea de decisión léxica,2024.2.5,Linux x86_64,59.88023952,,,,,,,,,,,,,,,,,,,,,,,188.4267,189.7053,l,1,0.6084,,0.6084,1,189.7055,190.206,,,,,,222,FEM,NOWORD,AGR,150,puca,,la,,190.2061,190.2064,0.01171875,-0.399739583,0,0,0,,0,1,1,221,1,mula,,,,
,,,,,,56cfd0ddd691bb000697baef,676192165fb32c2e1fb7aee6,67d16a5bc77b1f8efc6df27a,2025-03-12_05h05.25.225,Tarea de decisión léxica,2024.2.5,Linux x86_64,59.88023952,,,,,,,,,,,,,,,,,,,,,,,190.2088,191.2256,a,1,0.3437,,0.3437,1,191.2257,191.727,,,,,,125,MAS,WORD,AGR,150,lujo,,el,,191.7311,191.7325,0.01171875,-0.399739583,0,0,0,,0,2,2,124,1,vudo,,,,
,,,,,,56cfd0ddd691bb000697baef,676192165fb32c2e1fb7aee6,67d16a5bc77b1f8efc6df27a,2025-03-12_05h05.25.225,Tarea de decisión léxica,2024.2.5,Linux x86_64,59.88023952,,,,,,,,,,,,,,,,,,,,,,,191.7348,192.8295,l,0,0.4248,,0.4248,0,192.8332,193.3307,,,,,,467,MAS,WORD,DIS,150,piano,,la,,193.3308,193.3313,0.01171875,-0.399739583,0,0,0,,0,3,3,466,1,peiso,,,,
,,,,,,56cfd0ddd691bb000697baef,676192165fb32c2e1fb7aee6,67d16a5bc77b1f8efc6df27a,2025-03-12_05h05.25.225,Tarea de decisión léxica,2024.2.5,Linux x86_64,59.88023952,,,,,,,,,,,,,,,,,,,,,,,193.3347,194.5003,a,1,0.4844,,0.4844,1,194.5027,195.0011,,,,,,221,FEM,WORD,AGR,150,mula,,la,,195.0013,195.0016,0.01171875,-0.399739583,0,0,0,,0,4,4,220,1,puca,,,,
,,,,,,56cfd0ddd691bb000697baef,676192165fb32c2e1fb7aee6,67d16a5bc77b1f8efc6df27a,2025-03-12_05h05.25.225,Tarea de decisión léxica,2024.2.5,Linux x86_64,59.88023952,,,,,,,,,,,,,,,,,,,,,,,195.0041,196.0361,a,1,0.3561,,0.3561,1,196.0363,196.5376,,,,,,65,MAS,WORD,AGR,150,dios,,el,,196.5377,196.5386,0.01171875,-0.399739583,0,0,0,,0,5,5,64,1,nios,,,,
,,,,,,56cfd0ddd691bb000697baef,676192165fb32c2e1fb7aee6,67d16a5bc77b1f8efc6df27a,2025-03-12_05h05.25.225,Tarea de decisión léxica,2024.2.5,Linux x86_64,59.88023952,,,,,,,,,,,,,,,,,,,,,,,196.5415,197.49,a,1,0.2856,,0.2856,1,197.4902,197.9922,,,,,,307,MAS,WORD,DIS,150,hotel,,la,,197.9924,197.9927,0.01171875,-0.399739583,0,0,0,,0,6,6,306,1,holol,,,,
,,,,,,56cfd0ddd691bb000697baef,676192165fb32c2e1fb7aee6,67d16a5bc77b1f8efc6df27a,2025-03-12_05h05.25.225,Tarea de decisión léxica,2024.2.5,Linux x86_64,59.88023952,,,,,,,,,,,,,,,,,,,,,,,197.9968,198.8771,a,0,0.2021,,0.2021,0,198.8789,199.3782,,,,,,8,MAS,NOWORD,DIS,150,nivo,,la,,199.3815,199.3833,0.01171875,-0.399739583,0,0,0,,0,7,7,7,1,hijo,,,,
,,,,,,56cfd0ddd691bb000697baef,676192165fb32c2e1fb7aee6,67d16a5bc77b1f8efc6df27a,2025-03-12_05h05.25.225,Tarea de decisión léxica,2024.2.5,Linux x86_64,59.88023952,,,,,,,,,,,,,,,,,,,,,,,199.385,200.2712,a,1,0.2073,,0.2073,1,200.2909,200.7647,,,,,,277,MAS,WORD,AGR,150,fuego,,el,,200.7648,200.765,0.01171875,-0.399739583,0,0,0,,0,8,8,276,1,vuemo,,,,
,,,,,,56cfd0ddd691bb000697baef,676192165fb32c2e1fb7aee6,67d16a5bc77b1f8efc6df27a,2025-03-12_05h05.25.225,Tarea de decisión léxica,2024.2.5,Linux x86_64,59.88023952,,,,,,,,,,,,,,,,,,,,,,,200.7684,201.8671,a,1,0.4369,,0.4369,1,201.8673,202.3682,,,,,,323,FEM,WORD,DIS,150,cinta,,el,,202.3683,202.3687,0.01171875,-0.399739583,0,0,0,,0,9,9,322,1,certa,,,,
,,,,,,56cfd0ddd691bb000697baef,676192165fb32c2e1fb7aee6,67d16a5bc77b1f8efc6df27a,2025-03-12_05h05.25.225,Tarea de decisión léxica,2024.2.5,Linux x86_64,59.88023952,,,,,,,,,,,,,,,,,,,,,,,202.3717,203.3879,a,1,0.3531,,0.3531,1,203.388,203.8892,,,,,,117,MAS,WORD,AGR,150,palo,,el,,203.8893,203.8897,0.01171875,-0.399739583,0,0,0,,0,10,10,116,1,movo,,,,
,,,,,,56cfd0ddd691bb000697baef,676192165fb32c2e1fb7aee6,67d16a5bc77b1f8efc6df27a,2025-03-12_05h05.25.225,Tarea de decisión léxica,2024.2.5,Linux x86_64,59.88023952,,,,,,,,,,,,,,,,,,,,,,,203.8919,204.9078,a,1,0.3534,,0.3534,1,204.9079,205.4097,,,,,,293,MAS,WORD,AGR,150,campo,,el,,205.4127,205.4149,0.01171875,-0.399739583,0,0,0,,0,11,11,292,1,cacso,,,,
,,,,,,56cfd0ddd691bb000697baef,676192165fb32c2e1fb7aee6,67d16a5bc77b1f8efc6df27a,2025-03-12_05h05.25.225,Tarea de decisión léxica,2024.2.5,Linux x86_64,59.88023952,,,,,,,,,,,,,,,,,,,,,,,205.4164,206.4615,a,1,0.3752,,0.3752,1,206.4616,206.9634,,,,,,123,FEM,WORD,DIS,150,flor,,el,,206.9635,206.9637,0.01171875,-0.399739583,0,0,0,,0,12,12,122,1,maba,,,,
,,,,,,56cfd0ddd691bb000697baef,676192165fb32c2e1fb7aee6,67d16a5bc77b1f8efc6df27a,2025-03-12_05h05.25.225,Tarea de decisión léxica,2024.2.5,Linux x86_64,59.88023952,,,,,,,,,,,,,,,,,,,,,,,206.9671,207.9316,a,1,0.3003,,0.3003,1,207.9317,208.4328,,,,,,35,MAS,WORD,DIS,150,pelo,,la,,208.4329,208.4331,0.01171875,-0.399739583,0,0,0,,0,13,13,34,1,meno,,,,
,,,,,,56cfd0ddd691bb000697baef,676192165fb32c2e1fb7aee6,67d16a5bc77b1f8efc6df27a,2025-03-12_05h05.25.225,Tarea de decisión léxica,2024.2.5,Linux x86_64,59.88023952,,,,,,,,,,,,,,,,,,,,,,,208.4365,209.3516,a,1,0.252,,0.252,1,209.3518,209.8538,,,,,,373,FEM,WORD,AGR,150,pizza,,la,,209.8539,209.8541,0.01171875,-0.399739583,0,0,0,,0,14,14,372,1,pogza,,,,
,,,,,,56cfd0ddd691bb000697baef,676192165fb32c2e1fb7aee6,67d16a5bc77b1f8efc6df27a,2025-03-12_05h05.25.225,Tarea de decisión léxica,2024.2.5,Linux x86_64,59.88023952,,,,,,,,,,,,,,,,,,,,,,,209.8567,210.9412,l,1,0.4297,,0.4297,1,210.9413,211.4401,,,,,,24,FEM,NOWORD,DIS,150,giva,,el,,211.4403,211.4404,0.01171875,-0.399739583,0,0,0,,0,15,15,23,1,hija,,,,
,,,,,,56cfd0ddd691bb000697baef,676192165fb32c2e1fb7aee6,67d16a5bc77b1f8efc6df27a,2025-03-12_05h05.25.225,Tarea de decisión léxica,2024.2.5,Linux x86_64,59.88023952,,,,,,,,,,,,,,,,,,,,,,,211.4433,212.4259,a,1,0.3192,,0.3192,1,212.4261,212.9278,,,,,,233,FEM,WORD,AGR,150,lana,,la,,212.9313,212.9329,0.01171875,-0.399739583,0,0,0,,0,16,16,232,1,fasa,,,,
,,,,,,56cfd0ddd691bb000697baef,676192165fb32c2e1fb7aee6,67d16a5bc77b1f8efc6df27a,2025-03-12_05h05.25.225,Tarea de decisión léxica,2024.2.5,Linux x86_64,59.88023952,,,,,,,,,,,,,,,,,,,,,,,212.9343,214.2315,a,1,0.6263,,0.6263,1,214.2316,214.7316,,,,,,455,MAS,WORD,DIS,150,reino,,la,,214.7316,214.7318,0.01171875,-0.399739583,0,0,0,,0,17,17,454,1,riaso,,,,
,,,,,,56cfd0ddd691bb000697baef,676192165fb32c2e1fb7aee6,67d16a5bc77b1f8efc6df27a,2025-03-12_05h05.25.225,Tarea de decisión léxica,2024.2.5,Linux x86_64,59.88023952,,,,,,,,,,,,,,,,,,,,,,,214.7338,215.9515,l,1,0.5573,,0.5573,1,215.9516,216.4531,,,,,,74,MAS,NOWORD,AGR,150,omio,,el,,216.4532,216.4534,0.01171875,-0.399739583,0,0,0,,0,18,18,73,1,odio,,,,
,,,,,,56cfd0ddd691bb000697baef,676192165fb32c2e1fb7aee6,67d16a5bc77b1f8efc6df27a,2025-03-12_05h05.25.225,Tarea de decisión léxica,2024.2.5,Linux x86_64,59.88023952,,,,,,,,,,,,,,,,,,,,,,,216.456,217.4214,a,1,0.2857,,0.2857,1,217.4217,217.9226,,,,,,169,MAS,WORD,AGR,150,cubo,,el,,217.9228,217.9231,0.01171875,-0.399739583,0,0,0,,0,19,19,168,1,mibo,,,,
,,,,,,56cfd0ddd691bb000697baef,676192165fb32c2e1fb7aee6,67d16a5bc77b1f8efc6df27a,2025-03-12_05h05.25.225,Tarea de decisión léxica,2024.2.5,Linux x86_64,59.88023952,,,,,,,,,,,,,,,,,,,,,,,217.9257,219.0943,l,1,0.5141,,0.5141,1,219.0944,219.5942,,,,,,56,MAS,NOWORD,DIS,150,jado,,la,,219.5943,219.5945,0.01171875,-0.399739583,0,0,0,,0,20,20,55,1,gato,,,,
,,,,,,56cfd0ddd691bb000697baef,676192165fb32c2e1fb7aee6,67d16a5bc77b1f8efc6df27a,2025-03-12_05h05.25.225,Tarea de decisión léxica,2024.2.5,Linux x86_64,59.88023952,,,,,,,,,,,,,,,,,,,,,,,219.5992,220.5462,a,1,0.292,,0.292,1,220.5464,221.0471,,,,,,273,FEM,WORD,AGR,150,broma,,la,,221.0504,221.0518,0.01171875,-0.399739583,0,0,0,,0,21,21,272,1,frosa,,,,
,,,,,,56cfd0ddd691bb000697baef,676192165fb32c2e1fb7aee6,67d16a5bc77b1f8efc6df27a,2025-03-12_05h05.25.225,Tarea de decisión léxica,2024.2.5,Linux x86_64,59.88023952,,,,,,,,,,,,,,,,,,,,,,,221.0532,222.1002,a,1,0.3763,,0.3763,1,222.1002,222.6015,,,,,,77,MAS,WORD,AGR,150,loco,,el,,222.6017,222.6019,0.01171875,-0.399739583,0,0,0,,0,22,22,76,1,fodo,,,,
,,,,,,56cfd0ddd691bb000697baef,676192165fb32c2e1fb7aee6,67d16a5bc77b1f8efc6df27a,2025-03-12_05h05.25.225,Tarea de decisión léxica,2024.2.5,Linux x86_64,59.88023952,,,,,,,,,,,,,,,,,,,,,,,222.6044,223.9202,a,1,0.6417,,0.6417,1,223.9203,224.4224,,,,,,443,MAS,WORD,DIS,150,salón,,la,,224.4225,224.4227,0.01171875,-0.399739583,0,0,0,,0,23,23,442,1,taron,,,,
,,,,,,56cfd0ddd691bb000697baef,676192165fb32c2e1fb7aee6,67d16a5bc77b1f8efc6df27a,2025-03-12_05h05.25.225,Tarea de decisión léxica,2024.2.5,Linux x86_64,59.88023952,,,,,,,,,,,,,,,,,,,,,,,224.4253,225.3755,a,1,0.2791,,0.2791,1,225.3758,225.8761,,,,,,287,FEM,WORD,DIS,150,lista,,el,,225.8762,225.8763,0.01171875,-0.399739583,0,0,0,,0,24,24,286,1,fosta,,,,
,,,,,,56cfd0ddd691bb000697baef,676192165fb32c2e1fb7aee6,67d16a5bc77b1f8efc6df27a,2025-03-12_05h05.25.225,Tarea de decisión léxica,2024.2.5,Linux x86_64,59.88023952,,,,,,,,,,,,,,,,,,,,,,,225.8787,226.8782,a,0,0.319,,0.319,0,226.8804,227.3788,,,,,,160,MAS,NOWORD,DIS,150,bilo,,la,,227.3789,227.3791,0.01171875,-0.399739583,0,0,0,,0,25,25,159,1,giro,,,,
,,,,,,56cfd0ddd691bb000697baef,676192165fb32c2e1fb7aee6,67d16a5bc77b1f8efc6df27a,2025-03-12_05h05.25.225,Tarea de decisión léxica,2024.2.5,Linux x86_64,59.88023952,,,,,,,,,,,,,,,,,,,,,,,227.3827,228.7157,l,1,0.6672,,0.6672,1,228.7173,229.2171,,,,,,358,FEM,NOWORD,AGR,150,gruba,,la,,229.2205,229.2221,0.01171875,-0.399739583,0,0,0,,0,26,26,357,1,bruja,,,,
,,,,,,56cfd0ddd691bb000697baef,676192165fb32c2e1fb7aee6,67d16a5bc77b1f8efc6df27a,2025-03-12_05h05.25.225,Tarea de decisión léxica,2024.2.5,Linux x86_64,59.88023952,,,,,,,,,,,,,,,,,,,,,,,229.2238,230.2859,a,1,0.3874,,0.3874,1,230.286,230.7885,,,,,,155,FEM,WORD,DIS,150,fuga,,el,,230.7887,230.789,0.01171875,-0.399739583,0,0,0,,0,27,27,154,1,luma,,,,
,,,,,,56cfd0ddd691bb000697baef,676192165fb32c2e1fb7aee6,67d16a5bc77b1f8efc6df27a,2025-03-12_05h05.25.225,Tarea de decisión léxica,2024.2.5,Linux x86_64,59.88023952,,,,,,,,,,,,,,,,,,,,,,,230.7926,231.991,l,1,0.5221,,0.5221,1,231.9911,232.4917,,,,,,230,MAS,NOWORD,AGR,150,ador,,el,,232.4918,232.4921,0.01171875,-0.399739583,0,0,0,,0,28,28,229,1,amor,,,,
,,,,,,56cfd0ddd691bb000697baef,676192165fb32c2e1fb7aee6,67d16a5bc77b1f8efc6df27a,2025-03-12_05h05.25.225,Tarea de decisión léxica,2024.2.5,Linux x86_64,59.88023952,,,,,,,,,,,,,,,,,,,,,,,232.4944,233.8119,l,1,0.6559,,0.6559,1,233.8121,234.3133,,,,,,306,MAS,NOWORD,AGR,150,adiol,,el,,234.3134,234.3136,0.01171875,-0.399739583,0,0,0,,0,29,29,305,1,avión,,,,
,,,,,,56cfd0ddd691bb000697baef,676192165fb32c2e1fb7aee6,67d16a5bc77b1f8efc6df27a,2025-03-12_05h05.25.225,Tarea de decisión léxica,2024.2.5,Linux x86_64,59.88023952,,,,,,,,,,,,,,,,,,,,,,,234.3164,235.499,a,1,0.5031,,0.5031,1,235.4991,236.0001,,,,,,297,MAS,WORD,AGR,150,grupo,,el,,236.0002,236.0004,0.01171875,-0.399739583,0,0,0,,0,30,30,296,1,brubo,,,,
,,,,,,56cfd0ddd691bb000697baef,676192165fb32c2e1fb7aee6,67d16a5bc77b1f8efc6df27a,2025-03-12_05h05.25.225,Tarea de decisión léxica,2024.2.5,Linux x86_64,59.88023952,,,,,,,,,,,,,,,,,,,,,,,236.0026,237.2198,a,1,0.5373,,0.5373,1,237.2199,237.7208,,,,,,13,FEM,WORD,AGR,150,hora,,la,,237.7245,237.7264,0.01171875,-0.399739583,0,0,0,,0,31,31,12,1,nola,,,,
,,,,,,56cfd0ddd691bb000697baef,676192165fb32c2e1fb7aee6,67d16a5bc77b1f8efc6df27a,2025-03-12_05h05.25.225,Tarea de decisión léxica,2024.2.5,Linux x86_64,59.88023952,,,,,,,,,,,,,,,,,,,,,,,237.7281,238.79,a,1,0.3848,,0.3848,1,238.7901,239.2916,,,,,,103,FEM,WORD,DIS,150,ruta,,el,,239.2917,239.2919,0.01171875,-0.399739583,0,0,0,,0,32,32,102,1,rova,,,,
,,,,,,56cfd0ddd691bb000697baef,676192165fb32c2e1fb7aee6,67d16a5bc77b1f8efc6df27a,2025-03-12_05h05.25.225,Tarea de decisión léxica,2024.2.5,Linux x86_64,59.88023952,,,,,,,,,,,,,,,,,,,,,,,239.2966,240.3124,a,1,0.3629,,0.3629,1,240.3125,240.8124,,,,,,401,MAS,WORD,AGR,150,polvo,,el,,240.8125,240.8128,0.01171875,-0.399739583,0,0,0,,0,33,33,400,1,pirvo,,,,
,,,,,,56cfd0ddd691bb000697baef,676192165fb32c2e1fb7aee6,67d16a5bc77b1f8efc6df27a,2025-03-12_05h05.25.225,Tarea de decisión léxica,2024.2.5,Linux x86_64,59.88023952,,,,,,,,,,,,,,,,,,,,,,,240.8155,241.7642,a,1,0.2716,,0.2716,1,241.7643,242.2655,,,,,,167,FEM,WORD,DIS,150,jefa,,el,,242.2657,242.2659,0.01171875,-0.399739583,0,0,0,,0,34,34,166,1,zifa,,,,
,,,,,,56cfd0ddd691bb000697baef,676192165fb32c2e1fb7aee6,67d16a5bc77b1f8efc6df27a,2025-03-12_05h05.25.225,Tarea de decisión léxica,2024.2.5,Linux x86_64,59.88023952,,,,,,,,,,,,,,,,,,,,,,,242.2689,243.6188,l,1,0.6944,,0.6944,1,243.6189,244.1205,,,,,,346,FEM,NOWORD,AGR,150,anera,,la,,244.1237,244.1248,0.01171875,-0.399739583,0,0,0,,0,35,35,345,1,arena,,,,
,,,,,,56cfd0ddd691bb000697baef,676192165fb32c2e1fb7aee6,67d16a5bc77b1f8efc6df27a,2025-03-12_05h05.25.225,Tarea de decisión léxica,2024.2.5,Linux x86_64,59.88023952,,,,,,,,,,,,,,,,,,,,,,,244.1277,245.3891,l,1,0.5899,,0.5899,1,245.3892,245.8913,,,,,,414,FEM,NOWORD,AGR,150,bieda,,la,,245.8915,245.8917,0.01171875,-0.399739583,0,0,0,,0,36,36,413,1,rueda,,,,
,,,,,,56cfd0ddd691bb000697baef,676192165fb32c2e1fb7aee6,67d16a5bc77b1f8efc6df27a,2025-03-12_05h05.25.225,Tarea de decisión léxica,2024.2.5,Linux x86_64,59.88023952,,,,,,,,,,,,,,,,,,,,,,,245.8951,247.1099,l,1,0.5345,,0.5345,1,247.1102,247.6111,,,,,,228,MAS,NOWORD,DIS,150,laro,,la,,247.6112,247.6114,0.01171875,-0.399739583,0,0,0,,0,37,37,227,1,faro,,,,
,,,,,,56cfd0ddd691bb000697baef,676192165fb32c2e1fb7aee6,67d16a5bc77b1f8efc6df27a,2025-03-12_05h05.25.225,Tarea de decisión léxica,2024.2.5,Linux x86_64,59.88023952,,,,,,,,,,,,,,,,,,,,,,,247.614,248.9645,l,1,0.6935,,0.6935,1,248.9645,249.4656,,,,,,398,FEM,NOWORD,AGR,150,trigi,,la,,249.4657,249.4659,0.01171875,-0.399739583,0,0,0,,0,38,38,397,1,tribu,,,,
,,,,,,56cfd0ddd691bb000697baef,676192165fb32c2e1fb7aee6,67d16a5bc77b1f8efc6df27a,2025-03-12_05h05.25.225,Tarea de decisión léxica,2024.2.5,Linux x86_64,59.88023952,,,,,,,,,,,,,,,,,,,,,,,249.4681,250.6852,a,1,0.5612,,0.5612,1,250.6854,251.187,,,,,,207,MAS,WORD,DIS,150,kilo,,la,,251.1872,251.1873,0.01171875,-0.399739583,0,0,0,,0,39,39,206,1,kedo,,,,
,,,,,,56cfd0ddd691bb000697baef,676192165fb32c2e1fb7aee6,67d16a5bc77b1f8efc6df27a,2025-03-12_05h05.25.225,Tarea de decisión léxica,2024.2.5,Linux x86_64,59.88023952,,,,,,,,,,,,,,,,,,,,,,,251.1908,252.3725,a,1,0.5192,,0.5192,1,252.3726,252.8781,,,,,,149,MAS,WORD,AGR,150,cabo,,el,,252.8811,252.8831,0.01171875,-0.399739583,0,0,0,,0,40,40,148,1,pafo,,,,
,,,,,,56cfd0ddd691bb000697baef,676192165fb32c2e1fb7aee6,67d16a5bc77b1f8efc6df27a,2025-03-12_05h05.25.225,Tarea de decisión léxica,2024.2.5,Linux x86_64,59.88023952,,,,,,,,,,,,,,,,,,,,,,,252.8868,254.1444,l,1,0.5925,,0.5925,1,254.1446,254.6452,,,,,,20,MAS,NOWORD,DIS,150,himo,,la,,254.6453,254.6455,0.01171875,-0.399739583,0,0,0,,0,41,41,19,1,niño,,,,
,,,,,,56cfd0ddd691bb000697baef,676192165fb32c2e1fb7aee6,67d16a5bc77b1f8efc6df27a,2025-03-12_05h05.25.225,Tarea de decisión léxica,2024.2.5,Linux x86_64,59.88023952,,,,,,,,,,,,,,,,,,,,,,,254.6476,255.9315,l,1,0.6234,,0.6234,1,255.9319,256.4328,,,,,,18,FEM,NOWORD,AGR,150,paba,,la,,256.4329,256.4332,0.01171875,-0.399739583,0,0,0,,0,42,42,17,1,mamá,,,,
,,,,,,56cfd0ddd691bb000697baef,676192165fb32c2e1fb7aee6,67d16a5bc77b1f8efc6df27a,2025-03-12_05h05.25.225,Tarea de decisión léxica,2024.2.5,Linux x86_64,59.88023952,,,,,,,,,,,,,,,,,,,,,,,256.4366,257.6021,l,1,0.5033,,0.5033,1,257.6022,258.1038,,,,,,300,FEM,NOWORD,DIS,150,bosga,,el,,258.1039,258.1041,0.01171875,-0.399739583,0,0,0,,0,43,43,299,1,bolsa,,,,
,,,,,,56cfd0ddd691bb000697baef,676192165fb32c2e1fb7aee6,67d16a5bc77b1f8efc6df27a,2025-03-12_05h05.25.225,Tarea de decisión léxica,2024.2.5,Linux x86_64,59.88023952,,,,,,,,,,,,,,,,,,,,,,,258.107,259.2894,a,1,0.527,,0.527,1,259.2896,259.7915,,,,,,15,FEM,WORD,DIS,150,idea,,el,,259.7918,259.7921,0.01171875,-0.399739583,0,0,0,,0,44,44,14,1,odea,,,,
,,,,,,56cfd0ddd691bb000697baef,676192165fb32c2e1fb7aee6,67d16a5bc77b1f8efc6df27a,2025-03-12_05h05.25.225,Tarea de decisión léxica,2024.2.5,Linux x86_64,59.88023952,,,,,,,,,,,,,,,,,,,,,,,259.796,260.8962,l,1,0.4313,,0.4313,1,260.8965,261.3958,,,,,,212,FEM,NOWORD,DIS,150,joad,,el,,261.399,261.4004,0.01171875,-0.399739583,0,0,0,,0,45,45,211,1,joya,,,,
,,,,,,56cfd0ddd691bb000697baef,676192165fb32c2e1fb7aee6,67d16a5bc77b1f8efc6df27a,2025-03-12_05h05.25.225,Tarea de decisión léxica,2024.2.5,Linux x86_64,59.88023952,,,,,,,,,,,,,,,,,,,,,,,261.4019,262.5139,l,1,0.4457,,0.4457,1,262.514,263.0153,,,,,,352,MAS,NOWORD,DIS,150,duepo,,la,,263.0154,263.0155,0.01171875,-0.399739583,0,0,0,,0,46,46,351,1,vuelo,,,,
,,,,,,56cfd0ddd691bb000697baef,676192165fb32c2e1fb7aee6,67d16a5bc77b1f8efc6df27a,2025-03-12_05h05.25.225,Tarea de decisión léxica,2024.2.5,Linux x86_64,59.88023952,,,,,,,,,,,,,,,,,,,,,,,263.0183,264.3514,a,1,0.6688,,0.6688,1,264.3516,264.8526,,,,,,281,MAS,WORD,AGR,150,cielo,,el,,264.8527,264.853,0.01171875,-0.399739583,0,0,0,,0,47,47,280,1,cauro,,,,
,,,,,,56cfd0ddd691bb000697baef,676192165fb32c2e1fb7aee6,67d16a5bc77b1f8efc6df27a,2025-03-12_05h05.25.225,Tarea de decisión léxica,2024.2.5,Linux x86_64,59.88023952,,,,,,,,,,,,,,,,,,,,,,,264.8559,265.9719,l,1,0.4536,,0.4536,1,265.9721,266.4739,,,,,,120,MAS,NOWORD,DIS,150,hooy,,la,,266.474,266.4742,0.01171875,-0.399739583,0,0,0,,0,48,48,119,1,pozo,,,,
,,,,,,56cfd0ddd691bb000697baef,676192165fb32c2e1fb7aee6,67d16a5bc77b1f8efc6df27a,2025-03-12_05h05.25.225,Tarea de decisión léxica,2024.2.5,Linux x86_64,59.88023952,,,,,,,,,,,,,,,,,,,,,,,266.4765,267.5426,a,1,0.3871,,0.3871,1,267.5427,268.0444,,,,,,311,MAS,WORD,DIS,150,honor,,la,,268.0445,268.0446,0.01171875,-0.399739583,0,0,0,,0,49,49,310,1,nosor,,,,
,,,,,,56cfd0ddd691bb000697baef,676192165fb32c2e1fb7aee6,67d16a5bc77b1f8efc6df27a,2025-03-12_05h05.25.225,Tarea de decisión léxica,2024.2.5,Linux x86_64,59.88023952,,,,,,,,,,,,,,,,,,,,,,,268.0492,269.0467,l,0,0.3369,,0.3369,0,269.051,269.5476,,,,,,365,FEM,WORD,AGR,150,ducha,,la,,269.5504,269.5524,0.01171875,-0.399739583,0,0,0,,0,50,50,364,1,gulla,,,,
,,,,,,56cfd0ddd691bb000697baef,676192165fb32c2e1fb7aee6,67d16a5bc77b1f8efc6df27a,2025-03-12_05h05.25.225,Tarea de decisión léxica,2024.2.5,Linux x86_64,59.88023952,,,,,,,,,,,,,,,,,,,,,,,269.554,270.8174,l,1,0.5935,,0.5935,1,270.8193,271.3189,,,,,,252,MAS,NOWORD,DIS,150,refor,,la,,271.319,271.3192,0.01171875,-0.399739583,0,0,0,,0,51,51,251,1,señor,,,,
,,,,,,56cfd0ddd691bb000697baef,676192165fb32c2e1fb7aee6,67d16a5bc77b1f8efc6df27a,2025-03-12_05h05.25.225,Tarea de decisión léxica,2024.2.5,Linux x86_64,59.88023952,,,,,,,,,,,,,,,,,,,,,,,271.323,272.5722,l,1,0.5732,,0.5732,1,272.5724,273.0728,,,,,,278,MAS,NOWORD,AGR,150,vuemo,,el,,273.0729,273.0731,0.01171875,-0.399739583,0,0,0,,0,52,52,277,1,fuego,,,,
,,,,,,56cfd0ddd691bb000697baef,676192165fb32c2e1fb7aee6,67d16a5bc77b1f8efc6df27a,2025-03-12_05h05.25.225,Tarea de decisión léxica,2024.2.5,Linux x86_64,59.88023952,,,,,,,,,,,,,,,,,,,,,,,273.0764,274.3433,a,1,0.6018,,0.6018,1,274.3434,274.8445,,,,,,427,FEM,WORD,DIS,150,oreja,,el,,274.8446,274.8448,0.01171875,-0.399739583,0,0,0,,0,53,53,426,1,oseva,,,,
,,,,,,56cfd0ddd691bb000697baef,676192165fb32c2e1fb7aee6,67d16a5bc77b1f8efc6df27a,2025-03-12_05h05.25.225,Tarea de decisión léxica,2024.2.5,Linux x86_64,59.88023952,,,,,,,,,,,,,,,,,,,,,,,274.8487,276.0802,l,1,0.5681,,0.5681,1,276.0803,276.5819,,,,,,210,MAS,NOWORD,AGR,150,dero,,el,,276.582,276.5822,0.01171875,-0.399739583,0,0,0,,0,54,54,209,1,velo,,,,
,,,,,,56cfd0ddd691bb000697baef,676192165fb32c2e1fb7aee6,67d16a5bc77b1f8efc6df27a,2025-03-12_05h05.25.225,Tarea de decisión léxica,2024.2.5,Linux x86_64,59.88023952,,,,,,,,,,,,,,,,,,,,,,,276.5855,277.7841,a,1,0.5194,,0.5194,1,277.7842,278.2859,,,,,,415,FEM,WORD,DIS,150,jaula,,el,,278.2903,278.293,0.01171875,-0.399739583,0,0,0,,0,55,55,414,1,juira,,,,
,,,,,,56cfd0ddd691bb000697baef,676192165fb32c2e1fb7aee6,67d16a5bc77b1f8efc6df27a,2025-03-12_05h05.25.225,Tarea de decisión léxica,2024.2.5,Linux x86_64,59.88023952,,,,,,,,,,,,,,,,,,,,,,,278.295,279.539,a,1,0.5667,,0.5667,1,279.5392,280.0393,,,,,,457,MAS,WORD,AGR,150,plato,,el,,280.0395,280.0397,0.01171875,-0.399739583,0,0,0,,0,56,56,456,1,glaco,,,,
,,,,,,56cfd0ddd691bb000697baef,676192165fb32c2e1fb7aee6,67d16a5bc77b1f8efc6df27a,2025-03-12_05h05.25.225,Tarea de decisión léxica,2024.2.5,Linux x86_64,59.88023952,,,,,,,,,,,,,,,,,,,,,,,280.0436,281.1599,l,1,0.4442,,0.4442,1,281.16,281.66,,,,,,236,FEM,NOWORD,DIS,150,tria,,el,,281.6601,281.6603,0.01171875,-0.399739583,0,0,0,,0,57,57,235,1,grúa,,,,
,,,,,,56cfd0ddd691bb000697baef,676192165fb32c2e1fb7aee6,67d16a5bc77b1f8efc6df27a,2025-03-12_05h05.25.225,Tarea de decisión léxica,2024.2.5,Linux x86_64,59.88023952,,,,,,,,,,,,,,,,,,,,,,,281.6634,282.8972,l,1,0.574,,0.574,1,282.8973,283.3979,,,,,,416,FEM,NOWORD,DIS,150,juira,,el,,283.398,283.3982,0.01171875,-0.399739583,0,0,0,,0,58,58,415,1,jaula,,,,
,,,,,,56cfd0ddd691bb000697baef,676192165fb32c2e1fb7aee6,67d16a5bc77b1f8efc6df27a,2025-03-12_05h05.25.225,Tarea de decisión léxica,2024.2.5,Linux x86_64,59.88023952,,,,,,,,,,,,,,,,,,,,,,,283.4006,284.619,l,1,0.5635,,0.5635,1,284.6191,285.1189,,,,,,324,FEM,NOWORD,DIS,150,certa,,el,,285.1217,285.1238,0.01171875,-0.399739583,0,0,0,,0,59,59,323,1,cinta,,,,
,,,,,,56cfd0ddd691bb000697baef,676192165fb32c2e1fb7aee6,67d16a5bc77b1f8efc6df27a,2025-03-12_05h05.25.225,Tarea de decisión léxica,2024.2.5,Linux x86_64,59.88023952,,,,,,,,,,,,,,,,,,,,,,,285.1255,286.3546,l,1,0.5529,,0.5529,1,286.3549,286.8569,,,,,,50,FEM,NOWORD,AGR,150,ecat,,la,,286.857,286.8571,0.01171875,-0.399739583,0,0,0,,0,60,60,49,1,edad,,,,
,,,,,,56cfd0ddd691bb000697baef,676192165fb32c2e1fb7aee6,67d16a5bc77b1f8efc6df27a,2025-03-12_05h05.25.225,Tarea de decisión léxica,2024.2.5,Linux x86_64,59.88023952,,,,,,,,,,,,,,,,,,,,,,,286.86,287.9938,a,1,0.4633,,0.4633,1,287.9939,288.4939,,,,,,21,MAS,WORD,AGR,150,plan,,el,,288.494,288.4942,0.01171875,-0.399739583,0,0,0,,0,61,61,20,1,blan,,,,
,,,,,,56cfd0ddd691bb000697baef,676192165fb32c2e1fb7aee6,67d16a5bc77b1f8efc6df27a,2025-03-12_05h05.25.225,Tarea de decisión léxica,2024.2.5,Linux x86_64,59.88023952,,,,,,,,,,,,,,,,,,,,,,,288.4979,289.5798,l,1,0.4204,,0.4204,1,289.5799,290.0809,,,,,,42,FEM,NOWORD,AGR,150,haje,,la,,290.0812,290.0814,0.01171875,-0.399739583,0,0,0,,0,62,62,41,1,nave,,,,
,,,,,,56cfd0ddd691bb000697baef,676192165fb32c2e1fb7aee6,67d16a5bc77b1f8efc6df27a,2025-03-12_05h05.25.225,Tarea de decisión léxica,2024.2.5,Linux x86_64,59.88023952,,,,,,,,,,,,,,,,,,,,,,,290.085,291.3843,l,1,0.6199,,0.6199,1,291.3844,291.8849,,,,,,34,FEM,NOWORD,AGR,150,loda,,la,,291.8851,291.8853,0.01171875,-0.399739583,0,0,0,,0,63,63,33,1,boca,,,,
,,,,,,56cfd0ddd691bb000697baef,676192165fb32c2e1fb7aee6,67d16a5bc77b1f8efc6df27a,2025-03-12_05h05.25.225,Tarea de decisión léxica,2024.2.5,Linux x86_64,59.88023952,,,,,,,,,,,,,,,,,,,,,,,291.888,293.1392,l,1,0.5874,,0.5874,1,293.1393,293.6393,,,,,,462,FEM,NOWORD,AGR,150,pagra,,la,,293.6422,293.6439,0.01171875,-0.399739583,0,0,0,,0,64,64,461,1,tabla,,,,
,,,,,,56cfd0ddd691bb000697baef,676192165fb32c2e1fb7aee6,67d16a5bc77b1f8efc6df27a,2025-03-12_05h05.25.225,Tarea de decisión léxica,2024.2.5,Linux x86_64,59.88023952,,,,,,,,,,,,,,,,,,,,,,,293.6455,294.7429,l,1,0.4292,,0.4292,1,294.7431,295.2425,,,,,,356,FEM,NOWORD,DIS,150,bepla,,el,,295.2427,295.2428,0.01171875,-0.399739583,0,0,0,,0,65,65,355,1,regla,,,,
,,,,,,56cfd0ddd691bb000697baef,676192165fb32c2e1fb7aee6,67d16a5bc77b1f8efc6df27a,2025-03-12_05h05.25.225,Tarea de decisión léxica,2024.2.5,Linux x86_64,59.88023952,,,,,,,,,,,,,,,,,,,,,,,295.2444,296.4135,a,1,0.5086,,0.5086,1,296.4136,296.9135,,,,,,465,FEM,WORD,AGR,150,aguja,,la,,296.9137,296.9143,0.01171875,-0.399739583,0,0,0,,0,66,66,464,1,asuba,,,,
,,,,,,56cfd0ddd691bb000697baef,676192165fb32c2e1fb7aee6,67d16a5bc77b1f8efc6df27a,2025-03-12_05h05.25.225,Tarea de decisión léxica,2024.2.5,Linux x86_64,59.88023952,,,,,,,,,,,,,,,,,,,,,,,296.9171,297.9672,a,1,0.3717,,0.3717,1,297.9673,298.4679,,,,,,433,MAS,WORD,AGR,150,disco,,el,,298.468,298.4682,0.01171875,-0.399739583,0,0,0,,0,67,67,432,1,durco,,,,
,,,,,,56cfd0ddd691bb000697baef,676192165fb32c2e1fb7aee6,67d16a5bc77b1f8efc6df27a,2025-03-12_05h05.25.225,Tarea de decisión léxica,2024.2.5,Linux x86_64,59.88023952,,,,,,,,,,,,,,,,,,,,,,,298.4709,299.5534,l,1,0.4203,,0.4203,1,299.5536,300.0551,,,,,,276,MAS,NOWORD,DIS,150,musto,,la,,300.0551,300.0553,0.01171875,-0.399739583,0,0,0,,0,68,68,275,1,punto,,,,
,,,,,,56cfd0ddd691bb000697baef,676192165fb32c2e1fb7aee6,67d16a5bc77b1f8efc6df27a,2025-03-12_05h05.25.225,Tarea de decisión léxica,2024.2.5,Linux x86_64,59.88023952,,,,,,,,,,,,,,,,,,,,,,,300.0592,301.2407,a,1,0.5184,,0.5184,1,301.2408,301.7429,,,,,,179,MAS,WORD,DIS,150,toro,,la,,301.7467,301.7485,0.01171875,-0.399739583,0,0,0,,0,69,69,178,1,sono,,,,
,,,,,,56cfd0ddd691bb000697baef,676192165fb32c2e1fb7aee6,67d16a5bc77b1f8efc6df27a,2025-03-12_05h05.25.225,Tarea de decisión léxica,2024.2.5,Linux x86_64,59.88023952,,,,,,,,,,,,,,,,,,,,,,,301.75,302.8289,a,1,0.4028,,0.4028,1,302.829,303.3302,,,,,,63,FEM,WORD,DIS,150,luna,,el,,303.3302,303.3305,0.01171875,-0.399739583,0,0,0,,0,70,70,62,1,funa,,,,
,,,,,,56cfd0ddd691bb000697baef,676192165fb32c2e1fb7aee6,67d16a5bc77b1f8efc6df27a,2025-03-12_05h05.25.225,Tarea de decisión léxica,2024.2.5,Linux x86_64,59.88023952,,,,,,,,,,,,,,,,,,,,,,,303.3339,304.4997,l,1,0.4862,,0.4862,1,304.4999,304.9999,,,,,,376,FEM,NOWORD,DIS,150,sasna,,el,,305.0001,305.0002,0.01171875,-0.399739583,0,0,0,,0,71,71,375,1,salsa,,,,
,,,,,,56cfd0ddd691bb000697baef,676192165fb32c2e1fb7aee6,67d16a5bc77b1f8efc6df27a,2025-03-12_05h05.25.225,Tarea de decisión léxica,2024.2.5,Linux x86_64,59.88023952,,,,,,,,,,,,,,,,,,,,,,,305.0038,306.0023,a,1,0.3419,,0.3419,1,306.0025,306.5038,,,,,,73,MAS,WORD,AGR,150,odio,,el,,306.5039,306.5041,0.01171875,-0.399739583,0,0,0,,0,72,72,72,1,omio,,,,
,,,,,,56cfd0ddd691bb000697baef,676192165fb32c2e1fb7aee6,67d16a5bc77b1f8efc6df27a,2025-03-12_05h05.25.225,Tarea de decisión léxica,2024.2.5,Linux x86_64,59.88023952,,,,,,,,,,,,,,,,,,,,,,,306.5075,307.7069,l,1,0.5358,,0.5358,1,307.7071,308.2081,,,,,,200,MAS,NOWORD,DIS,150,fano,,la,,308.2081,308.2083,0.01171875,-0.399739583,0,0,0,,0,73,73,199,1,lazo,,,,
,,,,,,56cfd0ddd691bb000697baef,676192165fb32c2e1fb7aee6,67d16a5bc77b1f8efc6df27a,2025-03-12_05h05.25.225,Tarea de decisión léxica,2024.2.5,Linux x86_64,59.88023952,,,,,,,,,,,,,,,,,,,,,,,308.2112,309.2605,a,1,0.3874,,0.3874,1,309.2607,309.7621,,,,,,289,FEM,WORD,AGR,150,bomba,,la,,309.7655,309.767,0.01171875,-0.399739583,0,0,0,,0,74,74,288,1,bumpa,,,,
,,,,,,56cfd0ddd691bb000697baef,676192165fb32c2e1fb7aee6,67d16a5bc77b1f8efc6df27a,2025-03-12_05h05.25.225,Tarea de decisión léxica,2024.2.5,Linux x86_64,59.88023952,,,,,,,,,,,,,,,,,,,,,,,309.7685,310.9815,a,1,0.541,,0.541,1,310.9817,311.4835,,,,,,57,MAS,WORD,AGR,150,dedo,,el,,311.4836,311.4838,0.01171875,-0.399739583,0,0,0,,0,75,75,56,1,heco,,,,
,,,,,,56cfd0ddd691bb000697baef,676192165fb32c2e1fb7aee6,67d16a5bc77b1f8efc6df27a,2025-03-12_05h05.25.225,Tarea de decisión léxica,2024.2.5,Linux x86_64,59.88023952,,,,,,,,,,,,,,,,,,,,,,,311.4868,312.7853,a,1,0.6255,,0.6255,1,312.7858,313.2868,,,,,,197,MAS,WORD,AGR,150,bate,,el,,313.287,313.2874,0.01171875,-0.399739583,0,0,0,,0,76,76,196,1,dade,,,,
,,,,,,56cfd0ddd691bb000697baef,676192165fb32c2e1fb7aee6,67d16a5bc77b1f8efc6df27a,2025-03-12_05h05.25.225,Tarea de decisión léxica,2024.2.5,Linux x86_64,59.88023952,,,,,,,,,,,,,,,,,,,,,,,313.2902,314.3566,a,1,0.4043,,0.4043,1,314.3568,314.8574,,,,,,285,MAS,WORD,AGR,150,error,,el,,314.8576,314.859,0.01171875,-0.399739583,0,0,0,,0,77,77,284,1,echor,,,,
,,,,,,56cfd0ddd691bb000697baef,676192165fb32c2e1fb7aee6,67d16a5bc77b1f8efc6df27a,2025-03-12_05h05.25.225,Tarea de decisión léxica,2024.2.5,Linux x86_64,59.88023952,,,,,,,,,,,,,,,,,,,,,,,314.8628,315.9098,a,1,0.3761,,0.3761,1,315.9099,316.4107,,,,,,343,FEM,WORD,DIS,150,plata,,el,,316.4108,316.411,0.01171875,-0.399739583,0,0,0,,0,78,78,342,1,trada,,,,
,,,,,,56cfd0ddd691bb000697baef,676192165fb32c2e1fb7aee6,67d16a5bc77b1f8efc6df27a,2025-03-12_05h05.25.225,Tarea de decisión léxica,2024.2.5,Linux x86_64,59.88023952,,,,,,,,,,,,,,,,,,,,,,,316.4132,317.5807,l,1,0.5034,,0.5034,1,317.5809,318.0822,,,,,,146,MAS,NOWORD,AGR,150,nobo,,el,,318.0851,318.0867,0.01171875,-0.399739583,0,0,0,,0,79,79,145,1,león,,,,
,,,,,,56cfd0ddd691bb000697baef,676192165fb32c2e1fb7aee6,67d16a5bc77b1f8efc6df27a,2025-03-12_05h05.25.225,Tarea de decisión léxica,2024.2.5,Linux x86_64,59.88023952,,,,,,,,,,,,,,,,,,,,,,,318.0883,319.1852,a,1,0.424,,0.424,1,319.1854,319.6861,,,,,,235,FEM,WORD,DIS,150,grúa,,el,,319.6862,319.6865,0.01171875,-0.399739583,0,0,0,,0,80,80,234,1,tria,,,,
,,,,,,56cfd0ddd691bb000697baef,676192165fb32c2e1fb7aee6,67d16a5bc77b1f8efc6df27a,2025-03-12_05h05.25.225,Tarea de decisión léxica,2024.2.5,Linux x86_64,59.88023952,,,,,,,,,,,,,,,,,,,,,,,319.6892,320.7387,a,1,0.3697,,0.3697,1,320.7389,321.2396,,,,,,357,FEM,WORD,AGR,150,bruja,,la,,321.2397,321.2397,0.01171875,-0.399739583,0,0,0,,0,81,81,356,1,gruba,,,,
,,,,,,56cfd0ddd691bb000697baef,676192165fb32c2e1fb7aee6,67d16a5bc77b1f8efc6df27a,2025-03-12_05h05.25.225,Tarea de decisión léxica,2024.2.5,Linux x86_64,59.88023952,,,,,,,,,,,,,,,,,,,,,,,321.2412,322.3927,l,1,0.4912,,0.4912,1,322.3929,322.8943,,,,,,344,FEM,NOWORD,DIS,150,trada,,el,,322.8944,322.8946,0.01171875,-0.399739583,0,0,0,,0,82,82,343,1,plata,,,,
,,,,,,56cfd0ddd691bb000697baef,676192165fb32c2e1fb7aee6,67d16a5bc77b1f8efc6df27a,2025-03-12_05h05.25.225,Tarea de decisión léxica,2024.2.5,Linux x86_64,59.88023952,,,,,,,,,,,,,,,,,,,,,,,322.8967,324.2803,l,1,0.7096,,0.7096,1,324.2805,324.7819,,,,,,438,FEM,NOWORD,AGR,150,glava,,la,,324.7854,324.787,0.01171875,-0.399739583,0,0,0,,0,83,83,437,1,plaza,,,,
,,,,,,56cfd0ddd691bb000697baef,676192165fb32c2e1fb7aee6,67d16a5bc77b1f8efc6df27a,2025-03-12_05h05.25.225,Tarea de decisión léxica,2024.2.5,Linux x86_64,59.88023952,,,,,,,,,,,,,,,,,,,,,,,324.7884,326.2856,a,0,0.8258,,0.8258,0,326.2875,326.7863,,,,,,206,FEM,NOWORD,AGR,150,bara,,la,,326.7864,326.7866,0.01171875,-0.399739583,0,0,0,,0,84,84,205,1,rana,,,,
,,,,,,56cfd0ddd691bb000697baef,676192165fb32c2e1fb7aee6,67d16a5bc77b1f8efc6df27a,2025-03-12_05h05.25.225,Tarea de decisión léxica,2024.2.5,Linux x86_64,59.88023952,,,,,,,,,,,,,,,,,,,,,,,326.7894,328.1231,l,1,0.6705,,0.6705,1,328.1252,328.6241,,,,,,14,FEM,NOWORD,AGR,150,nola,,la,,328.6242,328.6243,0.01171875,-0.399739583,0,0,0,,0,85,85,13,1,hora,,,,
,,,,,,56cfd0ddd691bb000697baef,676192165fb32c2e1fb7aee6,67d16a5bc77b1f8efc6df27a,2025-03-12_05h05.25.225,Tarea de decisión léxica,2024.2.5,Linux x86_64,59.88023952,,,,,,,,,,,,,,,,,,,,,,,328.6267,329.7432,a,1,0.4537,,0.4537,1,329.7433,330.2441,,,,,,251,MAS,WORD,DIS,150,señor,,la,,330.2443,330.2445,0.01171875,-0.399739583,0,0,0,,0,86,86,250,1,refor,,,,
,,,,,,56cfd0ddd691bb000697baef,676192165fb32c2e1fb7aee6,67d16a5bc77b1f8efc6df27a,2025-03-12_05h05.25.225,Tarea de decisión léxica,2024.2.5,Linux x86_64,59.88023952,,,,,,,,,,,,,,,,,,,,,,,330.2467,331.4813,a,1,0.5786,,0.5786,1,331.4817,331.9818,,,,,,435,MAS,WORD,DIS,150,ritmo,,la,,331.9818,331.982,0.01171875,-0.399739583,0,0,0,,0,87,87,434,1,ricno,,,,
,,,,,,56cfd0ddd691bb000697baef,676192165fb32c2e1fb7aee6,67d16a5bc77b1f8efc6df27a,2025-03-12_05h05.25.225,Tarea de decisión léxica,2024.2.5,Linux x86_64,59.88023952,,,,,,,,,,,,,,,,,,,,,,,331.9838,333.1184,l,1,0.4563,,0.4563,1,333.1186,333.6189,,,,,,96,FEM,NOWORD,DIS,151,neda,,el,,333.6227,333.6242,0.01171875,-0.399739583,0,0,0,,0,88,88,95,1,moda,,,,
,,,,,,56cfd0ddd691bb000697baef,676192165fb32c2e1fb7aee6,67d16a5bc77b1f8efc6df27a,2025-03-12_05h05.25.225,Tarea de decisión léxica,2024.2.5,Linux x86_64,59.88023952,,,,,,,,,,,,,,,,,,,,,,,333.6256,334.7557,a,1,0.4515,,0.4515,1,334.7559,335.2568,,,,,,95,FEM,WORD,DIS,151,moda,,el,,335.2569,335.2572,0.01171875,-0.399739583,0,0,0,,0,89,89,94,1,neda,,,,
,,,,,,56cfd0ddd691bb000697baef,676192165fb32c2e1fb7aee6,67d16a5bc77b1f8efc6df27a,2025-03-12_05h05.25.225,Tarea de decisión léxica,2024.2.5,Linux x86_64,59.88023952,,,,,,,,,,,,,,,,,,,,,,,335.2598,336.498,l,1,0.5765,,0.5765,1,336.4985,336.9948,,,,,,86,MAS,NOWORD,AGR,150,babo,,el,,336.9948,336.9951,0.01171875,-0.399739583,0,0,0,,0,90,90,85,1,lago,,,,
,,,,,,56cfd0ddd691bb000697baef,676192165fb32c2e1fb7aee6,67d16a5bc77b1f8efc6df27a,2025-03-12_05h05.25.225,Tarea de decisión léxica,2024.2.5,Linux x86_64,59.88023952,,,,,,,,,,,,,,,,,,,,,,,336.9985,338.065,a,1,0.3973,,0.3973,1,338.0652,338.5652,,,,,,223,FEM,WORD,DIS,150,cera,,el,,338.5653,338.5655,0.01171875,-0.399739583,0,0,0,,0,91,91,222,1,cira,,,,
,,,,,,56cfd0ddd691bb000697baef,676192165fb32c2e1fb7aee6,67d16a5bc77b1f8efc6df27a,2025-03-12_05h05.25.225,Tarea de decisión léxica,2024.2.5,Linux x86_64,59.88023952,,,,,,,,,,,,,,,,,,,,,,,338.5689,339.8017,a,1,0.5597,,0.5597,1,339.8018,340.3029,,,,,,447,MAS,WORD,DIS,150,bolso,,la,,340.303,340.3032,0.01171875,-0.399739583,0,0,0,,0,92,92,446,1,buaso,,,,
,,,,,,56cfd0ddd691bb000697baef,676192165fb32c2e1fb7aee6,67d16a5bc77b1f8efc6df27a,2025-03-12_05h05.25.225,Tarea de decisión léxica,2024.2.5,Linux x86_64,59.88023952,,,,,,,,,,,,,,,,,,,,,,,340.306,341.5388,a,1,0.5527,,0.5527,1,341.539,342.04,,,,,,131,FEM,WORD,DIS,150,mina,,el,,342.0434,342.045,0.01171875,-0.399739583,0,0,0,,0,93,93,130,1,fada,,,,
,,,,,,56cfd0ddd691bb000697baef,676192165fb32c2e1fb7aee6,67d16a5bc77b1f8efc6df27a,2025-03-12_05h05.25.225,Tarea de decisión léxica,2024.2.5,Linux x86_64,59.88023952,,,,,,,,,,,,,,,,,,,,,,,342.0467,343.4111,a,1,0.6775,,0.6775,1,343.4112,343.9116,,,,,,17,FEM,WORD,AGR,150,mamá,,la,,343.9117,343.9119,0.01171875,-0.399739583,0,0,0,,0,94,94,16,1,paba,,,,
,,,,,,56cfd0ddd691bb000697baef,676192165fb32c2e1fb7aee6,67d16a5bc77b1f8efc6df27a,2025-03-12_05h05.25.225,Tarea de decisión léxica,2024.2.5,Linux x86_64,59.88023952,,,,,,,,,,,,,,,,,,,,,,,343.9145,345.2998,l,1,0.7304,,0.7304,1,345.2999,345.7989,,,,,,238,MAS,NOWORD,AGR,150,huco,,el,,345.799,345.7991,0.01171875,-0.399739583,0,0,0,,0,95,95,237,1,nudo,,,,
,,,,,,56cfd0ddd691bb000697baef,676192165fb32c2e1fb7aee6,67d16a5bc77b1f8efc6df27a,2025-03-12_05h05.25.225,Tarea de decisión léxica,2024.2.5,Linux x86_64,59.88023952,,,,,,,,,,,,,,,,,,,,,,,345.8028,347.169,l,1,0.6865,,0.6865,1,347.169,347.6696,,,,,,180,MAS,NOWORD,DIS,150,sono,,la,,347.6697,347.6699,0.01171875,-0.399739583,0,0,0,,0,96,96,179,1,toro,,,,
,,,,,,56cfd0ddd691bb000697baef,676192165fb32c2e1fb7aee6,67d16a5bc77b1f8efc6df27a,2025-03-12_05h05.25.225,Tarea de decisión léxica,2024.2.5,Linux x86_64,59.88023952,,,,,,,,,,,,,,,,,,,,,,,347.6724,348.9239,a,1,0.5922,,0.5922,1,348.9241,349.4251,,,,,,67,FEM,WORD,DIS,150,nena,,el,,349.4251,349.4265,0.01171875,-0.399739583,0,0,0,,0,97,97,66,1,gesa,,,,
,,,,,,56cfd0ddd691bb000697baef,676192165fb32c2e1fb7aee6,67d16a5bc77b1f8efc6df27a,2025-03-12_05h05.25.225,Tarea de decisión léxica,2024.2.5,Linux x86_64,59.88023952,,,,,,,,,,,,,,,,,,,,,,,349.4284,350.761,a,1,0.653,,0.653,1,350.7611,351.2623,,,,,,405,FEM,WORD,AGR,150,barra,,la,,351.266,351.2682,0.01171875,-0.399739583,0,0,0,,0,98,98,404,1,rarra,,,,
,,,,,,56cfd0ddd691bb000697baef,676192165fb32c2e1fb7aee6,67d16a5bc77b1f8efc6df27a,2025-03-12_05h05.25.225,Tarea de decisión léxica,2024.2.5,Linux x86_64,59.88023952,,,,,,,,,,,,,,,,,,,,,,,351.2699,352.849,a,1,0.9075,,0.9075,1,352.8497,353.3502,,,,,,463,FEM,WORD,DIS,150,cabra,,el,,353.3503,353.3507,0.01171875,-0.399739583,0,0,0,,0,99,99,462,1,matla,,,,
,,,,,,56cfd0ddd691bb000697baef,676192165fb32c2e1fb7aee6,67d16a5bc77b1f8efc6df27a,2025-03-12_05h05.25.225,Tarea de decisión léxica,2024.2.5,Linux x86_64,59.88023952,,,,,,,,,,,,,,,,,,,,,,,353.3534,354.6873,l,1,0.6709,,0.6709,1,354.6874,355.1891,,,,,,286,MAS,NOWORD,AGR,150,echor,,el,,355.1892,355.1894,0.01171875,-0.399739583,0,0,0,,0,100,100,285,1,error,,,,
,,,,,,56cfd0ddd691bb000697baef,676192165fb32c2e1fb7aee6,67d16a5bc77b1f8efc6df27a,2025-03-12_05h05.25.225,Tarea de decisión léxica,2024.2.5,Linux x86_64,59.88023952,,,,,,,,,,,,,,,,,,,,,,,355.1921,356.2909,a,1,0.4188,,0.4188,1,356.291,356.7922,,,,,,213,FEM,WORD,AGR,150,rama,,la,,356.7922,356.7924,0.01171875,-0.399739583,0,0,0,,0,101,101,212,1,bana,,,,
,,,,,,56cfd0ddd691bb000697baef,676192165fb32c2e1fb7aee6,67d16a5bc77b1f8efc6df27a,2025-03-12_05h05.25.225,Tarea de decisión léxica,2024.2.5,Linux x86_64,59.88023952,,,,,,,,,,,,,,,,,,,,,,,356.7954,358.1292,l,1,0.6789,,0.6789,1,358.1294,358.6301,,,,,,64,FEM,NOWORD,DIS,150,funa,,el,,358.6302,358.6304,0.01171875,-0.399739583,0,0,0,,0,102,102,63,1,luna,,,,
,,,,,,56cfd0ddd691bb000697baef,676192165fb32c2e1fb7aee6,67d16a5bc77b1f8efc6df27a,2025-03-12_05h05.25.225,Tarea de decisión léxica,2024.2.5,Linux x86_64,59.88023952,,,,,,,,,,,,,,,,,,,,,,,358.6339,359.732,a,1,0.4447,,0.4447,1,359.7321,360.2336,,,,,,187,MAS,WORD,DIS,150,mito,,la,,360.2359,360.2372,0.01171875,-0.399739583,0,0,0,,0,103,103,186,1,suto,,,,
,,,,,,56cfd0ddd691bb000697baef,676192165fb32c2e1fb7aee6,67d16a5bc77b1f8efc6df27a,2025-03-12_05h05.25.225,Tarea de decisión léxica,2024.2.5,Linux x86_64,59.88023952,,,,,,,,,,,,,,,,,,,,,,,360.24,361.504,l,1,0.5863,,0.5863,1,361.5042,362.0053,,,,,,260,MAS,NOWORD,DIS,150,jaumo,,la,,362.0054,362.0055,0.01171875,-0.399739583,0,0,0,,0,104,104,259,1,juego,,,,
,,,,,,56cfd0ddd691bb000697baef,676192165fb32c2e1fb7aee6,67d16a5bc77b1f8efc6df27a,2025-03-12_05h05.25.225,Tarea de decisión léxica,2024.2.5,Linux x86_64,59.88023952,,,,,,,,,,,,,,,,,,,,,,,362.0083,363.2413,l,1,0.5594,,0.5594,1,363.2414,363.7429,,,,,,182,FEM,NOWORD,AGR,150,teda,,la,,363.7429,363.7432,0.01171875,-0.399739583,0,0,0,,0,105,105,181,1,seda,,,,
,,,,,,56cfd0ddd691bb000697baef,676192165fb32c2e1fb7aee6,67d16a5bc77b1f8efc6df27a,2025-03-12_05h05.25.225,Tarea de decisión léxica,2024.2.5,Linux x86_64,59.88023952,,,,,,,,,,,,,,,,,,,,,,,363.7459,364.9121,l,1,0.5036,,0.5036,1,364.9123,365.4131,,,,,,22,MAS,NOWORD,AGR,150,blan,,el,,365.4131,365.4133,0.01171875,-0.399739583,0,0,0,,0,106,106,21,1,plan,,,,
,,,,,,56cfd0ddd691bb000697baef,676192165fb32c2e1fb7aee6,67d16a5bc77b1f8efc6df27a,2025-03-12_05h05.25.225,Tarea de decisión léxica,2024.2.5,Linux x86_64,59.88023952,,,,,,,,,,,,,,,,,,,,,,,365.416,366.6495,a,1,0.5753,,0.5753,1,366.6496,367.1504,,,,,,231,FEM,WORD,DIS,150,bota,,el,,367.1531,367.1549,0.01171875,-0.399739583,0,0,0,,0,107,107,230,1,heta,,,,
,,,,,,56cfd0ddd691bb000697baef,676192165fb32c2e1fb7aee6,67d16a5bc77b1f8efc6df27a,2025-03-12_05h05.25.225,Tarea de decisión léxica,2024.2.5,Linux x86_64,59.88023952,,,,,,,,,,,,,,,,,,,,,,,367.1565,368.5032,l,1,0.6687,,0.6687,1,368.5034,369.0058,,,,,,430,FEM,NOWORD,AGR,150,tenta,,la,,369.0059,369.0061,0.01171875,-0.399739583,0,0,0,,0,108,108,429,1,tarta,,,,
,,,,,,56cfd0ddd691bb000697baef,676192165fb32c2e1fb7aee6,67d16a5bc77b1f8efc6df27a,2025-03-12_05h05.25.225,Tarea de decisión léxica,2024.2.5,Linux x86_64,59.88023952,,,,,,,,,,,,,,,,,,,,,,,369.0095,370.21,a,1,0.5286,,0.5286,1,370.2101,370.7093,,,,,,3,FEM,WORD,DIS,150,vida,,el,,370.7094,370.7096,0.01171875,-0.399739583,0,0,0,,0,109,109,2,1,dica,,,,
,,,,,,56cfd0ddd691bb000697baef,676192165fb32c2e1fb7aee6,67d16a5bc77b1f8efc6df27a,2025-03-12_05h05.25.225,Tarea de decisión léxica,2024.2.5,Linux x86_64,59.88023952,,,,,,,,,,,,,,,,,,,,,,,370.714,372.0291,l,1,0.6424,,0.6424,1,372.0293,372.5309,,,,,,224,FEM,NOWORD,DIS,150,cira,,el,,372.531,372.5312,0.01171875,-0.399739583,0,0,0,,0,110,110,223,1,cera,,,,
,,,,,,56cfd0ddd691bb000697baef,676192165fb32c2e1fb7aee6,67d16a5bc77b1f8efc6df27a,2025-03-12_05h05.25.225,Tarea de decisión léxica,2024.2.5,Linux x86_64,59.88023952,,,,,,,,,,,,,,,,,,,,,,,372.5335,373.9348,l,1,0.7256,,0.7256,1,373.935,374.4359,,,,,,394,FEM,NOWORD,AGR,150,ashea,,la,,374.436,374.4369,0.01171875,-0.399739583,0,0,0,,0,111,111,393,1,aldea,,,,
,,,,,,56cfd0ddd691bb000697baef,676192165fb32c2e1fb7aee6,67d16a5bc77b1f8efc6df27a,2025-03-12_05h05.25.225,Tarea de decisión léxica,2024.2.5,Linux x86_64,59.88023952,,,,,,,,,,,,,,,,,,,,,,,374.4393,375.589,l,1,0.4765,,0.4765,1,375.5891,376.0895,,,,,,434,MAS,NOWORD,AGR,150,durco,,el,,376.0925,376.0939,0.01171875,-0.399739583,0,0,0,,0,112,112,433,1,disco,,,,
,,,,,,56cfd0ddd691bb000697baef,676192165fb32c2e1fb7aee6,67d16a5bc77b1f8efc6df27a,2025-03-12_05h05.25.225,Tarea de decisión léxica,2024.2.5,Linux x86_64,59.88023952,,,,,,,,,,,,,,,,,,,,,,,376.0954,377.0412,l,0,0.2728,,0.2728,0,377.0461,377.5427,,,,,,317,FEM,WORD,AGR,150,playa,,la,,377.5428,377.543,0.01171875,-0.399739583,0,0,0,,0,113,113,316,1,plaad,,,,
,,,,,,56cfd0ddd691bb000697baef,676192165fb32c2e1fb7aee6,67d16a5bc77b1f8efc6df27a,2025-03-12_05h05.25.225,Tarea de decisión léxica,2024.2.5,Linux x86_64,59.88023952,,,,,,,,,,,,,,,,,,,,,,,377.546,378.8632,a,1,0.6362,,0.6362,1,378.8652,379.3636,,,,,,115,FEM,WORD,DIS,150,pata,,el,,379.3636,379.3638,0.01171875,-0.399739583,0,0,0,,0,114,114,114,1,haca,,,,
,,,,,,56cfd0ddd691bb000697baef,676192165fb32c2e1fb7aee6,67d16a5bc77b1f8efc6df27a,2025-03-12_05h05.25.225,Tarea de decisión léxica,2024.2.5,Linux x86_64,59.88023952,,,,,,,,,,,,,,,,,,,,,,,379.366,380.4999,a,1,0.4528,,0.4528,1,380.5,381.0005,,,,,,361,FEM,WORD,AGR,150,torre,,la,,381.0009,381.0014,0.01171875,-0.399739583,0,0,0,,0,115,115,360,1,solle,,,,
,,,,,,56cfd0ddd691bb000697baef,676192165fb32c2e1fb7aee6,67d16a5bc77b1f8efc6df27a,2025-03-12_05h05.25.225,Tarea de decisión léxica,2024.2.5,Linux x86_64,59.88023952,,,,,,,,,,,,,,,,,,,,,,,381.0051,382.1195,a,1,0.4547,,0.4547,1,382.1197,382.6219,,,,,,247,FEM,WORD,DIS,150,chica,,el,,382.622,382.6226,0.01171875,-0.399739583,0,0,0,,0,116,116,246,1,trida,,,,
,,,,,,56cfd0ddd691bb000697baef,676192165fb32c2e1fb7aee6,67d16a5bc77b1f8efc6df27a,2025-03-12_05h05.25.225,Tarea de decisión léxica,2024.2.5,Linux x86_64,59.88023952,,,,,,,,,,,,,,,,,,,,,,,382.6247,383.6571,a,1,0.3525,,0.3525,1,383.6573,384.1587,,,,,,99,MAS,WORD,DIS,150,lobo,,la,,384.1623,384.1642,0.01171875,-0.399739583,0,0,0,,0,117,117,98,1,soro,,,,
,,,,,,56cfd0ddd691bb000697baef,676192165fb32c2e1fb7aee6,67d16a5bc77b1f8efc6df27a,2025-03-12_05h05.25.225,Tarea de decisión léxica,2024.2.5,Linux x86_64,59.88023952,,,,,,,,,,,,,,,,,,,,,,,384.1657,385.2275,a,0,0.3847,,0.3847,0,385.2291,385.7284,,,,,,336,FEM,NOWORD,DIS,150,pesta,,el,,385.7285,385.7288,0.01171875,-0.399739583,0,0,0,,0,118,118,335,1,costa,,,,
,,,,,,56cfd0ddd691bb000697baef,676192165fb32c2e1fb7aee6,67d16a5bc77b1f8efc6df27a,2025-03-12_05h05.25.225,Tarea de decisión léxica,2024.2.5,Linux x86_64,59.88023952,,,,,,,,,,,,,,,,,,,,,,,385.7324,387.0658,l,1,0.6711,,0.6711,1,387.0678,387.5665,,,,,,274,FEM,NOWORD,AGR,150,frosa,,la,,387.5666,387.5669,0.01171875,-0.399739583,0,0,0,,0,119,119,273,1,broma,,,,
,,,,,,56cfd0ddd691bb000697baef,676192165fb32c2e1fb7aee6,67d16a5bc77b1f8efc6df27a,2025-03-12_05h05.25.225,Tarea de decisión léxica,2024.2.5,Linux x86_64,59.88023952,,,,,,,,,,,,,,,,,,,,,,,387.569,388.7028,a,1,0.4685,,0.4685,1,388.703,389.2043,,,,,,437,FEM,WORD,AGR,150,plaza,,la,,389.2045,389.2048,0.01171875,-0.399739583,0,0,0,,0,120,120,436,1,glava,,,,
,,,,,,56cfd0ddd691bb000697baef,676192165fb32c2e1fb7aee6,67d16a5bc77b1f8efc6df27a,2025-03-12_05h05.25.225,Tarea de decisión léxica,2024.2.5,Linux x86_64,59.88023952,,,,,,,,,,,,,,,,,,,,,,,389.2085,390.375,a,1,0.5141,,0.5141,1,390.3753,390.8752,,,,,,399,MAS,WORD,DIS,150,techo,,la,,390.8753,390.8755,0.01171875,-0.399739583,0,0,0,,0,121,121,398,1,serro,,,,
,,,,,,56cfd0ddd691bb000697baef,676192165fb32c2e1fb7aee6,67d16a5bc77b1f8efc6df27a,2025-03-12_05h05.25.225,Tarea de decisión léxica,2024.2.5,Linux x86_64,59.88023952,,,,,,,,,,,,,,,,,,,,,,,390.879,392.0271,l,1,0.4739,,0.4739,1,392.0273,392.5285,,,,,,350,MAS,NOWORD,AGR,150,cosir,,el,,392.5319,392.5338,0.01171875,-0.399739583,0,0,0,,0,122,122,349,1,color,,,,
,,,,,,56cfd0ddd691bb000697baef,676192165fb32c2e1fb7aee6,67d16a5bc77b1f8efc6df27a,2025-03-12_05h05.25.225,Tarea de decisión léxica,2024.2.5,Linux x86_64,59.88023952,,,,,,,,,,,,,,,,,,,,,,,392.5356,393.7817,l,1,0.5685,,0.5685,1,393.7819,394.2831,,,,,,294,MAS,NOWORD,AGR,150,cacso,,el,,394.2832,394.2834,0.01171875,-0.399739583,0,0,0,,0,123,123,293,1,campo,,,,
,,,,,,56cfd0ddd691bb000697baef,676192165fb32c2e1fb7aee6,67d16a5bc77b1f8efc6df27a,2025-03-12_05h05.25.225,Tarea de decisión léxica,2024.2.5,Linux x86_64,59.88023952,,,,,,,,,,,,,,,,,,,,,,,394.2878,395.3189,a,1,0.3505,,0.3505,1,395.3191,395.8198,,,,,,395,FEM,WORD,DIS,150,caída,,el,,395.8198,395.82,0.01171875,-0.399739583,0,0,0,,0,124,124,394,1,paeda,,,,
,,,,,,56cfd0ddd691bb000697baef,676192165fb32c2e1fb7aee6,67d16a5bc77b1f8efc6df27a,2025-03-12_05h05.25.225,Tarea de decisión léxica,2024.2.5,Linux x86_64,59.88023952,,,,,,,,,,,,,,,,,,,,,,,395.8225,396.923,a,1,0.4359,,0.4359,1,396.9232,397.4236,,,,,,431,MAS,WORD,DIS,150,motor,,la,,397.4237,397.424,0.01171875,-0.399739583,0,0,0,,0,125,125,430,1,tetor,,,,
,,,,,,56cfd0ddd691bb000697baef,676192165fb32c2e1fb7aee6,67d16a5bc77b1f8efc6df27a,2025-03-12_05h05.25.225,Tarea de decisión léxica,2024.2.5,Linux x86_64,59.88023952,,,,,,,,,,,,,,,,,,,,,,,397.4279,398.4424,a,1,0.3582,,0.3582,1,398.4427,398.9447,,,,,,339,MAS,WORD,DIS,150,brazo,,la,,398.9448,398.945,0.01171875,-0.399739583,0,0,0,,0,126,126,338,1,plajo,,,,
,,,,,,56cfd0ddd691bb000697baef,676192165fb32c2e1fb7aee6,67d16a5bc77b1f8efc6df27a,2025-03-12_05h05.25.225,Tarea de decisión léxica,2024.2.5,Linux x86_64,59.88023952,,,,,,,,,,,,,,,,,,,,,,,398.9477,400.1745,l,1,0.5506,,0.5506,1,400.1747,400.667,,,,,,404,FEM,NOWORD,DIS,150,grisa,,el,,400.6698,400.671,0.01171875,-0.399739583,0,0,0,,0,127,127,403,1,prima,,,,
,,,,,,56cfd0ddd691bb000697baef,676192165fb32c2e1fb7aee6,67d16a5bc77b1f8efc6df27a,2025-03-12_05h05.25.225,Tarea de decisión léxica,2024.2.5,Linux x86_64,59.88023952,,,,,,,,,,,,,,,,,,,,,,,400.6728,401.6838,a,1,0.324,,0.324,1,401.6839,402.1848,,,,,,249,FEM,WORD,AGR,150,clase,,la,,402.1849,402.1851,0.01171875,-0.399739583,0,0,0,,0,128,128,248,1,plane,,,,
,,,,,,56cfd0ddd691bb000697baef,676192165fb32c2e1fb7aee6,67d16a5bc77b1f8efc6df27a,2025-03-12_05h05.25.225,Tarea de decisión léxica,2024.2.5,Linux x86_64,59.88023952,,,,,,,,,,,,,,,,,,,,,,,402.1885,403.3045,l,1,0.4586,,0.4586,1,403.3047,403.8064,,,,,,380,MAS,NOWORD,DIS,150,tunso,,la,,403.8065,403.8067,0.01171875,-0.399739583,0,0,0,,0,129,129,379,1,turno,,,,
,,,,,,56cfd0ddd691bb000697baef,676192165fb32c2e1fb7aee6,67d16a5bc77b1f8efc6df27a,2025-03-12_05h05.25.225,Tarea de decisión léxica,2024.2.5,Linux x86_64,59.88023952,,,,,,,,,,,,,,,,,,,,,,,403.8092,404.8253,a,1,0.3365,,0.3365,1,404.8255,405.3264,,,,,,299,FEM,WORD,DIS,150,bolsa,,el,,405.3265,405.3269,0.01171875,-0.399739583,0,0,0,,0,130,130,298,1,bosga,,,,
,,,,,,56cfd0ddd691bb000697baef,676192165fb32c2e1fb7aee6,67d16a5bc77b1f8efc6df27a,2025-03-12_05h05.25.225,Tarea de decisión léxica,2024.2.5,Linux x86_64,59.88023952,,,,,,,,,,,,,,,,,,,,,,,405.3294,406.4462,l,1,0.4507,,0.4507,1,406.4464,406.9463,,,,,,246,FEM,NOWORD,AGR,150,pafle,,la,,406.9497,406.9516,0.01171875,-0.399739583,0,0,0,,0,131,131,245,1,madre,,,,
,,,,,,56cfd0ddd691bb000697baef,676192165fb32c2e1fb7aee6,67d16a5bc77b1f8efc6df27a,2025-03-12_05h05.25.225,Tarea de decisión léxica,2024.2.5,Linux x86_64,59.88023952,,,,,,,,,,,,,,,,,,,,,,,406.9531,408.2002,l,1,0.5774,,0.5774,1,408.2004,408.7014,,,,,,220,FEM,NOWORD,DIS,150,miva,,el,,408.7015,408.7018,0.01171875,-0.399739583,0,0,0,,0,132,132,219,1,pipa,,,,
,,,,,,56cfd0ddd691bb000697baef,676192165fb32c2e1fb7aee6,67d16a5bc77b1f8efc6df27a,2025-03-12_05h05.25.225,Tarea de decisión léxica,2024.2.5,Linux x86_64,59.88023952,,,,,,,,,,,,,,,,,,,,,,,408.7042,409.7702,a,1,0.3886,,0.3886,1,409.7703,410.2714,,,,,,109,MAS,WORD,AGR,150,rayo,,el,,410.2716,410.2718,0.01171875,-0.399739583,0,0,0,,0,133,133,108,1,suno,,,,
,,,,,,56cfd0ddd691bb000697baef,676192165fb32c2e1fb7aee6,67d16a5bc77b1f8efc6df27a,2025-03-12_05h05.25.225,Tarea de decisión léxica,2024.2.5,Linux x86_64,59.88023952,,,,,,,,,,,,,,,,,,,,,,,410.2738,411.4411,l,0,0.4875,,0.4875,0,411.4423,411.9423,,,,,,127,MAS,WORD,DIS,150,pico,,la,,411.9424,411.9427,0.01171875,-0.399739583,0,0,0,,0,134,134,126,1,itio,,,,
,,,,,,56cfd0ddd691bb000697baef,676192165fb32c2e1fb7aee6,67d16a5bc77b1f8efc6df27a,2025-03-12_05h05.25.225,Tarea de decisión léxica,2024.2.5,Linux x86_64,59.88023952,,,,,,,,,,,,,,,,,,,,,,,411.9456,413.2124,a,1,0.6027,,0.6027,1,413.216,413.7135,,,,,,279,FEM,WORD,DIS,150,prisa,,el,,413.7136,413.7138,0.01171875,-0.399739583,0,0,0,,0,135,135,278,1,grina,,,,
,,,,,,56cfd0ddd691bb000697baef,676192165fb32c2e1fb7aee6,67d16a5bc77b1f8efc6df27a,2025-03-12_05h05.25.225,Tarea de decisión léxica,2024.2.5,Linux x86_64,59.88023952,,,,,,,,,,,,,,,,,,,,,,,413.7175,414.9162,l,1,0.5267,,0.5267,1,414.9163,415.4175,,,,,,362,FEM,NOWORD,AGR,150,solle,,la,,415.4211,415.4225,0.01171875,-0.399739583,0,0,0,,0,136,136,361,1,torre,,,,
,,,,,,56cfd0ddd691bb000697baef,676192165fb32c2e1fb7aee6,67d16a5bc77b1f8efc6df27a,2025-03-12_05h05.25.225,Tarea de decisión léxica,2024.2.5,Linux x86_64,59.88023952,,,,,,,,,,,,,,,,,,,,,,,415.4239,416.4865,a,1,0.394,,0.394,1,416.4867,416.9885,,,,,,451,FEM,WORD,DIS,150,fruta,,el,,416.9886,416.9888,0.01171875,-0.399739583,0,0,0,,0,137,137,450,1,clita,,,,
,,,,,,56cfd0ddd691bb000697baef,676192165fb32c2e1fb7aee6,67d16a5bc77b1f8efc6df27a,2025-03-12_05h05.25.225,Tarea de decisión léxica,2024.2.5,Linux x86_64,59.88023952,,,,,,,,,,,,,,,,,,,,,,,416.9922,418.2078,l,1,0.5517,,0.5517,1,418.208,418.7097,,,,,,142,FEM,NOWORD,AGR,150,sina,,la,,418.7099,418.7101,0.01171875,-0.399739583,0,0,0,,0,138,138,141,1,cruz,,,,
,,,,,,56cfd0ddd691bb000697baef,676192165fb32c2e1fb7aee6,67d16a5bc77b1f8efc6df27a,2025-03-12_05h05.25.225,Tarea de decisión léxica,2024.2.5,Linux x86_64,59.88023952,,,,,,,,,,,,,,,,,,,,,,,418.7131,419.8108,l,0,0.4072,,0.4072,0,419.8128,420.3129,,,,,,459,MAS,WORD,DIS,150,grado,,la,,420.313,420.3132,0.01171875,-0.399739583,0,0,0,,0,139,139,458,1,fraco,,,,
,,,,,,56cfd0ddd691bb000697baef,676192165fb32c2e1fb7aee6,67d16a5bc77b1f8efc6df27a,2025-03-12_05h05.25.225,Tarea de decisión léxica,2024.2.5,Linux x86_64,59.88023952,,,,,,,,,,,,,,,,,,,,,,,420.3159,421.6167,l,1,0.6178,,0.6178,1,421.6188,422.1171,,,,,,158,MAS,NOWORD,AGR,150,hico,,el,,422.1171,422.1173,0.01171875,-0.399739583,0,0,0,,0,140,140,157,1,nido,,,,
,,,,,,56cfd0ddd691bb000697baef,676192165fb32c2e1fb7aee6,67d16a5bc77b1f8efc6df27a,2025-03-12_05h05.25.225,Tarea de decisión léxica,2024.2.5,Linux x86_64,59.88023952,,,,,,,,,,,,,,,,,,,,,,,422.121,423.2871,l,1,0.5029,,0.5029,1,423.2873,423.7883,,,,,,420,MAS,NOWORD,DIS,150,chudo,,la,,423.7921,423.7936,0.01171875,-0.399739583,0,0,0,,0,141,141,419,1,truco,,,,
,,,,,,56cfd0ddd691bb000697baef,676192165fb32c2e1fb7aee6,67d16a5bc77b1f8efc6df27a,2025-03-12_05h05.25.225,Tarea de decisión léxica,2024.2.5,Linux x86_64,59.88023952,,,,,,,,,,,,,,,,,,,,,,,423.7951,424.8733,a,1,0.4033,,0.4033,1,424.8734,425.375,,,,,,5,FEM,WORD,AGR,150,cosa,,la,,425.375,425.3753,0.01171875,-0.399739583,0,0,0,,0,142,142,4,1,poga,,,,
,,,,,,56cfd0ddd691bb000697baef,676192165fb32c2e1fb7aee6,67d16a5bc77b1f8efc6df27a,2025-03-12_05h05.25.225,Tarea de decisión léxica,2024.2.5,Linux x86_64,59.88023952,,,,,,,,,,,,,,,,,,,,,,,425.378,426.5611,l,0,0.5202,,0.5202,0,426.5622,427.0618,,,,,,469,MAS,WORD,AGR,150,patio,,el,,427.0618,427.062,0.01171875,-0.399739583,0,0,0,,0,143,143,468,1,matia,,,,
,,,,,,56cfd0ddd691bb000697baef,676192165fb32c2e1fb7aee6,67d16a5bc77b1f8efc6df27a,2025-03-12_05h05.25.225,Tarea de decisión léxica,2024.2.5,Linux x86_64,59.88023952,,,,,,,,,,,,,,,,,,,,,,,427.0641,428.2655,l,1,0.5443,,0.5443,1,428.2688,428.7661,,,,,,424,MAS,NOWORD,DIS,150,quigo,,la,,428.7661,428.7663,0.01171875,-0.399739583,0,0,0,,0,144,144,423,1,queso,,,,
,,,,,,56cfd0ddd691bb000697baef,676192165fb32c2e1fb7aee6,67d16a5bc77b1f8efc6df27a,2025-03-12_05h05.25.225,Tarea de decisión léxica,2024.2.5,Linux x86_64,59.88023952,,,,,,,,,,,,,,,,,,,,,,,428.7706,430.0197,l,1,0.5941,,0.5941,1,430.0198,430.5212,,,,,,156,FEM,NOWORD,DIS,150,luma,,el,,430.5214,430.5216,0.01171875,-0.399739583,0,0,0,,0,145,145,155,1,fuga,,,,
,,,,,,56cfd0ddd691bb000697baef,676192165fb32c2e1fb7aee6,67d16a5bc77b1f8efc6df27a,2025-03-12_05h05.25.225,Tarea de decisión léxica,2024.2.5,Linux x86_64,59.88023952,,,,,,,,,,,,,,,,,,,,,,,430.5236,431.7907,l,1,0.5963,,0.5963,1,431.7908,432.2943,,,,,,188,MAS,NOWORD,DIS,150,suto,,la,,432.2979,432.2993,0.01171875,-0.399739583,0,0,0,,0,146,146,187,1,mito,,,,
,,,,,,56cfd0ddd691bb000697baef,676192165fb32c2e1fb7aee6,67d16a5bc77b1f8efc6df27a,2025-03-12_05h05.25.225,Tarea de decisión léxica,2024.2.5,Linux x86_64,59.88023952,,,,,,,,,,,,,,,,,,,,,,,432.3009,433.6113,a,1,0.6371,,0.6371,1,433.6114,434.113,,,,,,7,MAS,WORD,DIS,150,hijo,,la,,434.113,434.1133,0.01171875,-0.399739583,0,0,0,,0,147,147,6,1,nivo,,,,
,,,,,,56cfd0ddd691bb000697baef,676192165fb32c2e1fb7aee6,67d16a5bc77b1f8efc6df27a,2025-03-12_05h05.25.225,Tarea de decisión léxica,2024.2.5,Linux x86_64,59.88023952,,,,,,,,,,,,,,,,,,,,,,,434.1171,435.4488,l,1,0.6618,,0.6618,1,435.449,435.9504,,,,,,244,MAS,NOWORD,DIS,150,asamo,,la,,435.9504,435.9506,0.01171875,-0.399739583,0,0,0,,0,148,148,243,1,amigo,,,,
,,,,,,56cfd0ddd691bb000697baef,676192165fb32c2e1fb7aee6,67d16a5bc77b1f8efc6df27a,2025-03-12_05h05.25.225,Tarea de decisión léxica,2024.2.5,Linux x86_64,59.88023952,,,,,,,,,,,,,,,,,,,,,,,435.9543,437.2196,a,1,0.6043,,0.6043,1,437.2197,437.7217,,,,,,41,FEM,WORD,AGR,150,nave,,la,,437.7218,437.722,0.01171875,-0.399739583,0,0,0,,0,149,149,40,1,haje,,,,
,,,,,,56cfd0ddd691bb000697baef,676192165fb32c2e1fb7aee6,67d16a5bc77b1f8efc6df27a,2025-03-12_05h05.25.225,Tarea de decisión léxica,2024.2.5,Linux x86_64,59.88023952,,,,,,,,,,,,,,,,,,,,,,,437.7241,438.8074,l,1,0.4283,,0.4283,1,438.8075,439.3087,,,,,,76,MAS,NOWORD,DIS,150,ocer,,la,,439.3087,439.3089,0.01171875,-0.399739583,0,0,0,,0,150,150,75,1,olor,,,,
,,,,,,56cfd0ddd691bb000697baef,676192165fb32c2e1fb7aee6,67d16a5bc77b1f8efc6df27a,2025-03-12_05h05.25.225,Tarea de decisión léxica,2024.2.5,Linux x86_64,59.88023952,,,,,,,,,,,,,,,,,,,,,,,439.3114,440.5276,l,1,0.5535,,0.5535,1,440.5281,441.0298,,,,,,288,FEM,NOWORD,DIS,150,fosta,,el,,441.0329,441.0342,0.01171875,-0.399739583,0,0,0,,0,151,151,287,1,lista,,,,
,,,,,,56cfd0ddd691bb000697baef,676192165fb32c2e1fb7aee6,67d16a5bc77b1f8efc6df27a,2025-03-12_05h05.25.225,Tarea de decisión léxica,2024.2.5,Linux x86_64,59.88023952,,,,,,,,,,,,,,,,,,,,,,,441.0355,442.1654,a,1,0.4593,,0.4593,1,442.1656,442.6672,,,,,,267,MAS,WORD,DIS,150,libro,,la,,442.6673,442.6675,0.01171875,-0.399739583,0,0,0,,0,152,152,266,1,figro,,,,
,,,,,,56cfd0ddd691bb000697baef,676192165fb32c2e1fb7aee6,67d16a5bc77b1f8efc6df27a,2025-03-12_05h05.25.225,Tarea de decisión léxica,2024.2.5,Linux x86_64,59.88023952,,,,,,,,,,,,,,,,,,,,,,,442.6703,443.8362,a,1,0.4871,,0.4871,1,443.8364,444.338,,,,,,209,MAS,WORD,AGR,150,velo,,el,,444.3381,444.3383,0.01171875,-0.399739583,0,0,0,,0,153,153,208,1,dero,,,,
,,,,,,56cfd0ddd691bb000697baef,676192165fb32c2e1fb7aee6,67d16a5bc77b1f8efc6df27a,2025-03-12_05h05.25.225,Tarea de decisión léxica,2024.2.5,Linux x86_64,59.88023952,,,,,,,,,,,,,,,,,,,,,,,444.3411,445.5579,a,1,0.5611,,0.5611,1,445.558,446.0576,,,,,,87,MAS,WORD,DIS,150,vaso,,la,,446.0577,446.0579,0.01171875,-0.399739583,0,0,0,,0,154,154,86,1,damo,,,,
,,,,,,56cfd0ddd691bb000697baef,676192165fb32c2e1fb7aee6,67d16a5bc77b1f8efc6df27a,2025-03-12_05h05.25.225,Tarea de decisión léxica,2024.2.5,Linux x86_64,59.88023952,,,,,,,,,,,,,,,,,,,,,,,446.0602,447.1107,a,1,0.3896,,0.3896,1,447.1108,447.6129,,,,,,9,MAS,WORD,AGR,150,tipo,,el,,447.6179,447.6201,0.01171875,-0.399739583,0,0,0,,0,155,155,8,1,sibo,,,,
,,,,,,56cfd0ddd691bb000697baef,676192165fb32c2e1fb7aee6,67d16a5bc77b1f8efc6df27a,2025-03-12_05h05.25.225,Tarea de decisión léxica,2024.2.5,Linux x86_64,59.88023952,,,,,,,,,,,,,,,,,,,,,,,447.6221,448.8488,l,1,0.5564,,0.5564,1,448.8489,449.3493,,,,,,310,FEM,NOWORD,AGR,150,tirra,,la,,449.3494,449.3496,0.01171875,-0.399739583,0,0,0,,0,156,156,309,1,silla,,,,
,,,,,,56cfd0ddd691bb000697baef,676192165fb32c2e1fb7aee6,67d16a5bc77b1f8efc6df27a,2025-03-12_05h05.25.225,Tarea de decisión léxica,2024.2.5,Linux x86_64,59.88023952,,,,,,,,,,,,,,,,,,,,,,,449.3521,450.3526,a,1,0.3366,,0.3366,1,450.3528,450.8531,,,,,,189,MAS,WORD,AGR,150,puño,,el,,450.8531,450.8533,0.01171875,-0.399739583,0,0,0,,0,157,157,188,1,muvo,,,,
,,,,,,56cfd0ddd691bb000697baef,676192165fb32c2e1fb7aee6,67d16a5bc77b1f8efc6df27a,2025-03-12_05h05.25.225,Tarea de decisión léxica,2024.2.5,Linux x86_64,59.88023952,,,,,,,,,,,,,,,,,,,,,,,450.8559,452.0729,a,1,0.5372,,0.5372,1,452.0731,452.5735,,,,,,61,FEM,WORD,AGR,150,obra,,la,,452.5736,452.5737,0.01171875,-0.399739583,0,0,0,,0,158,158,60,1,efla,,,,
,,,,,,56cfd0ddd691bb000697baef,676192165fb32c2e1fb7aee6,67d16a5bc77b1f8efc6df27a,2025-03-12_05h05.25.225,Tarea de decisión léxica,2024.2.5,Linux x86_64,59.88023952,,,,,,,,,,,,,,,,,,,,,,,452.5761,453.8104,l,1,0.5769,,0.5769,1,453.8105,454.3117,,,,,,202,FEM,NOWORD,AGR,150,cusa,,la,,454.3117,454.3119,0.01171875,-0.399739583,0,0,0,,0,159,159,201,1,cuna,,,,
,,,,,,56cfd0ddd691bb000697baef,676192165fb32c2e1fb7aee6,67d16a5bc77b1f8efc6df27a,2025-03-12_05h05.25.225,Tarea de decisión léxica,2024.2.5,Linux x86_64,59.88023952,,,,,,,,,,,,,,,,,,,,,,,454.3146,455.3304,a,1,0.3523,,0.3523,1,455.3305,455.8316,,,,,,137,MAS,WORD,AGR,150,nene,,el,,455.8347,518.0323,0.01171875,-0.399739583,0,0,0,space,0,160,160,136,1,pamo,62.1715,,,
,,,,,,56cfd0ddd691bb000697baef,676192165fb32c2e1fb7aee6,67d16a5bc77b1f8efc6df27a,2025-03-12_05h05.25.225,Tarea de decisión léxica,2024.2.5,Linux x86_64,59.88023952,,,,,,,,,,,,,,,,,,,,,,,518.0359,519.3692,l,1,0.6756,,0.6756,1,519.3694,519.87,,,,,,72,FEM,NOWORD,DIS,150,urla,,el,,519.8702,519.8705,0.01171875,-0.399739583,0,0,0,,0,161,161,71,1,isla,,,,
,,,,,,56cfd0ddd691bb000697baef,676192165fb32c2e1fb7aee6,67d16a5bc77b1f8efc6df27a,2025-03-12_05h05.25.225,Tarea de decisión léxica,2024.2.5,Linux x86_64,59.88023952,,,,,,,,,,,,,,,,,,,,,,,519.8731,520.9759,a,0,0.4482,,0.4482,0,520.9793,521.474,,,,,,470,MAS,NOWORD,AGR,150,matia,,el,,521.4741,521.4743,0.01171875,-0.399739583,0,0,0,,0,162,162,469,1,patio,,,,
,,,,,,56cfd0ddd691bb000697baef,676192165fb32c2e1fb7aee6,67d16a5bc77b1f8efc6df27a,2025-03-12_05h05.25.225,Tarea de decisión léxica,2024.2.5,Linux x86_64,59.88023952,,,,,,,,,,,,,,,,,,,,,,,521.4773,522.5266,a,1,0.3873,,0.3873,1,522.5281,523.0273,,,,,,165,FEM,WORD,AGR,150,vela,,la,,523.0274,523.0276,0.01171875,-0.399739583,0,0,0,,0,163,163,164,1,dera,,,,
,,,,,,56cfd0ddd691bb000697baef,676192165fb32c2e1fb7aee6,67d16a5bc77b1f8efc6df27a,2025-03-12_05h05.25.225,Tarea de decisión léxica,2024.2.5,Linux x86_64,59.88023952,,,,,,,,,,,,,,,,,,,,,,,523.03,524.2153,l,1,0.5283,,0.5283,1,524.2155,524.7156,,,,,,364,FEM,NOWORD,DIS,150,veida,,el,,524.7156,524.7159,0.01171875,-0.399739583,0,0,0,,0,164,164,363,1,deuda,,,,
,,,,,,56cfd0ddd691bb000697baef,676192165fb32c2e1fb7aee6,67d16a5bc77b1f8efc6df27a,2025-03-12_05h05.25.225,Tarea de decisión léxica,2024.2.5,Linux x86_64,59.88023952,,,,,,,,,,,,,,,,,,,,,,,524.7181,525.6341,a,1,0.2544,,0.2544,1,525.6343,526.1355,,,,,,173,FEM,WORD,AGR,150,rosa,,la,,526.1387,526.1415,0.01171875,-0.399739583,0,0,0,,0,165,165,172,1,boma,,,,
,,,,,,56cfd0ddd691bb000697baef,676192165fb32c2e1fb7aee6,67d16a5bc77b1f8efc6df27a,2025-03-12_05h05.25.225,Tarea de decisión léxica,2024.2.5,Linux x86_64,59.88023952,,,,,,,,,,,,,,,,,,,,,,,526.1433,527.221,l,1,0.411,,0.411,1,527.2212,527.7222,,,,,,62,FEM,NOWORD,AGR,150,efla,,la,,527.7223,527.7224,0.01171875,-0.399739583,0,0,0,,0,166,166,61,1,obra,,,,
,,,,,,56cfd0ddd691bb000697baef,676192165fb32c2e1fb7aee6,67d16a5bc77b1f8efc6df27a,2025-03-12_05h05.25.225,Tarea de decisión léxica,2024.2.5,Linux x86_64,59.88023952,,,,,,,,,,,,,,,,,,,,,,,527.7251,528.7937,a,1,0.4131,,0.4131,1,528.7939,529.2932,,,,,,243,MAS,WORD,DIS,150,amigo,,la,,529.2935,529.2937,0.01171875,-0.399739583,0,0,0,,0,167,167,242,1,asamo,,,,
,,,,,,56cfd0ddd691bb000697baef,676192165fb32c2e1fb7aee6,67d16a5bc77b1f8efc6df27a,2025-03-12_05h05.25.225,Tarea de decisión léxica,2024.2.5,Linux x86_64,59.88023952,,,,,,,,,,,,,,,,,,,,,,,529.2964,530.2963,a,1,0.3258,,0.3258,1,530.2964,530.7969,,,,,,259,MAS,WORD,DIS,150,juego,,la,,530.797,530.7973,0.01171875,-0.399739583,0,0,0,,0,168,168,258,1,jaumo,,,,
,,,,,,56cfd0ddd691bb000697baef,676192165fb32c2e1fb7aee6,67d16a5bc77b1f8efc6df27a,2025-03-12_05h05.25.225,Tarea de decisión léxica,2024.2.5,Linux x86_64,59.88023952,,,,,,,,,,,,,,,,,,,,,,,530.8001,531.7989,a,1,0.3337,,0.3337,1,531.799,532.301,,,,,,45,FEM,WORD,AGR,150,mesa,,la,,532.3011,532.3013,0.01171875,-0.399739583,0,0,0,,0,169,169,44,1,pema,,,,
,,,,,,56cfd0ddd691bb000697baef,676192165fb32c2e1fb7aee6,67d16a5bc77b1f8efc6df27a,2025-03-12_05h05.25.225,Tarea de decisión léxica,2024.2.5,Linux x86_64,59.88023952,,,,,,,,,,,,,,,,,,,,,,,532.3046,533.5878,a,1,0.6027,,0.6027,1,533.5879,534.0882,,,,,,239,MAS,WORD,DIS,150,mozo,,la,,534.092,534.0942,0.01171875,-0.399739583,0,0,0,,0,170,170,238,1,poño,,,,
,,,,,,56cfd0ddd691bb000697baef,676192165fb32c2e1fb7aee6,67d16a5bc77b1f8efc6df27a,2025-03-12_05h05.25.225,Tarea de decisión léxica,2024.2.5,Linux x86_64,59.88023952,,,,,,,,,,,,,,,,,,,,,,,534.0958,535.0238,a,1,0.2586,,0.2586,1,535.024,535.5251,,,,,,81,FEM,WORD,AGR,150,dama,,la,,535.5251,535.5254,0.01171875,-0.399739583,0,0,0,,0,171,171,80,1,vasa,,,,
,,,,,,56cfd0ddd691bb000697baef,676192165fb32c2e1fb7aee6,67d16a5bc77b1f8efc6df27a,2025-03-12_05h05.25.225,Tarea de decisión léxica,2024.2.5,Linux x86_64,59.88023952,,,,,,,,,,,,,,,,,,,,,,,535.528,536.4941,a,1,0.2915,,0.2915,1,536.4942,536.9944,,,,,,425,FEM,WORD,AGR,150,viuda,,la,,536.9944,536.9947,0.01171875,-0.399739583,0,0,0,,0,172,172,424,1,virca,,,,
,,,,,,56cfd0ddd691bb000697baef,676192165fb32c2e1fb7aee6,67d16a5bc77b1f8efc6df27a,2025-03-12_05h05.25.225,Tarea de decisión léxica,2024.2.5,Linux x86_64,59.88023952,,,,,,,,,,,,,,,,,,,,,,,536.9974,537.9134,a,0,0.2512,,0.2512,0,537.9146,538.4153,,,,,,196,FEM,NOWORD,DIS,150,sira,,el,,538.4154,538.4155,0.01171875,-0.399739583,0,0,0,,0,173,173,195,1,tela,,,,
,,,,,,56cfd0ddd691bb000697baef,676192165fb32c2e1fb7aee6,67d16a5bc77b1f8efc6df27a,2025-03-12_05h05.25.225,Tarea de decisión léxica,2024.2.5,Linux x86_64,59.88023952,,,,,,,,,,,,,,,,,,,,,,,538.4187,539.3681,a,1,0.2874,,0.2874,1,539.3701,539.8684,,,,,,283,MAS,WORD,DIS,150,sueño,,la,,539.8685,539.8687,0.01171875,-0.399739583,0,0,0,,0,174,174,282,1,tuevo,,,,
,,,,,,56cfd0ddd691bb000697baef,676192165fb32c2e1fb7aee6,67d16a5bc77b1f8efc6df27a,2025-03-12_05h05.25.225,Tarea de decisión léxica,2024.2.5,Linux x86_64,59.88023952,,,,,,,,,,,,,,,,,,,,,,,539.8712,540.9204,a,1,0.3839,,0.3839,1,540.9206,541.4219,,,,,,159,MAS,WORD,DIS,150,giro,,la,,541.4248,541.4267,0.01171875,-0.399739583,0,0,0,,0,175,175,158,1,bilo,,,,
,,,,,,56cfd0ddd691bb000697baef,676192165fb32c2e1fb7aee6,67d16a5bc77b1f8efc6df27a,2025-03-12_05h05.25.225,Tarea de decisión léxica,2024.2.5,Linux x86_64,59.88023952,,,,,,,,,,,,,,,,,,,,,,,541.4284,542.3576,a,0,0.2532,,0.2532,0,542.3597,542.8588,,,,,,232,FEM,NOWORD,DIS,150,heta,,el,,542.859,542.8594,0.01171875,-0.399739583,0,0,0,,0,176,176,231,1,bota,,,,
,,,,,,56cfd0ddd691bb000697baef,676192165fb32c2e1fb7aee6,67d16a5bc77b1f8efc6df27a,2025-03-12_05h05.25.225,Tarea de decisión léxica,2024.2.5,Linux x86_64,59.88023952,,,,,,,,,,,,,,,,,,,,,,,542.8641,543.828,a,1,0.3096,,0.3096,1,543.8302,544.329,,,,,,139,MAS,WORD,DIS,150,mago,,la,,544.329,544.3292,0.01171875,-0.399739583,0,0,0,,0,177,177,138,1,nila,,,,
,,,,,,56cfd0ddd691bb000697baef,676192165fb32c2e1fb7aee6,67d16a5bc77b1f8efc6df27a,2025-03-12_05h05.25.225,Tarea de decisión léxica,2024.2.5,Linux x86_64,59.88023952,,,,,,,,,,,,,,,,,,,,,,,544.3321,545.4494,a,0,0.4542,,0.4542,0,545.4522,545.9509,,,,,,176,FEM,NOWORD,DIS,150,hosa,,el,,545.951,545.9512,0.01171875,-0.399739583,0,0,0,,0,178,178,175,1,goma,,,,
,,,,,,56cfd0ddd691bb000697baef,676192165fb32c2e1fb7aee6,67d16a5bc77b1f8efc6df27a,2025-03-12_05h05.25.225,Tarea de decisión léxica,2024.2.5,Linux x86_64,59.88023952,,,,,,,,,,,,,,,,,,,,,,,545.9539,547.1861,a,1,0.5608,,0.5608,1,547.1889,547.6878,,,,,,97,MAS,WORD,AGR,150,mono,,el,,547.6912,547.6925,0.01171875,-0.399739583,0,0,0,,0,179,179,96,1,fopo,,,,
,,,,,,56cfd0ddd691bb000697baef,676192165fb32c2e1fb7aee6,67d16a5bc77b1f8efc6df27a,2025-03-12_05h05.25.225,Tarea de decisión léxica,2024.2.5,Linux x86_64,59.88023952,,,,,,,,,,,,,,,,,,,,,,,547.6938,548.8738,l,1,0.5064,,0.5064,1,548.874,549.3743,,,,,,312,MAS,NOWORD,DIS,150,nosor,,la,,549.3745,549.3747,0.01171875,-0.399739583,0,0,0,,0,180,180,311,1,honor,,,,
,,,,,,56cfd0ddd691bb000697baef,676192165fb32c2e1fb7aee6,67d16a5bc77b1f8efc6df27a,2025-03-12_05h05.25.225,Tarea de decisión léxica,2024.2.5,Linux x86_64,59.88023952,,,,,,,,,,,,,,,,,,,,,,,549.3782,550.7289,l,1,0.6917,,0.6917,1,550.7291,551.2294,,,,,,164,FEM,NOWORD,DIS,150,laga,,el,,551.2296,551.2297,0.01171875,-0.399739583,0,0,0,,0,181,181,163,1,fama,,,,
,,,,,,56cfd0ddd691bb000697baef,676192165fb32c2e1fb7aee6,67d16a5bc77b1f8efc6df27a,2025-03-12_05h05.25.225,Tarea de decisión léxica,2024.2.5,Linux x86_64,59.88023952,,,,,,,,,,,,,,,,,,,,,,,551.2341,552.4488,l,1,0.5552,,0.5552,1,552.449,552.9504,,,,,,360,MAS,NOWORD,DIS,150,cacer,,la,,552.9505,552.9513,0.01171875,-0.399739583,0,0,0,,0,182,182,359,1,calor,,,,
,,,,,,56cfd0ddd691bb000697baef,676192165fb32c2e1fb7aee6,67d16a5bc77b1f8efc6df27a,2025-03-12_05h05.25.225,Tarea de decisión léxica,2024.2.5,Linux x86_64,59.88023952,,,,,,,,,,,,,,,,,,,,,,,552.9539,554.204,l,1,0.5794,,0.5794,1,554.2041,554.704,,,,,,166,FEM,NOWORD,AGR,150,dera,,la,,554.7041,554.7043,0.01171875,-0.399739583,0,0,0,,0,183,183,165,1,vela,,,,
,,,,,,56cfd0ddd691bb000697baef,676192165fb32c2e1fb7aee6,67d16a5bc77b1f8efc6df27a,2025-03-12_05h05.25.225,Tarea de decisión léxica,2024.2.5,Linux x86_64,59.88023952,,,,,,,,,,,,,,,,,,,,,,,554.7075,555.8397,a,1,0.4695,,0.4695,1,555.8399,556.3421,,,,,,129,MAS,WORD,AGR,150,oído,,el,,556.3454,556.3471,0.01171875,-0.399739583,0,0,0,,0,184,184,128,1,pima,,,,
,,,,,,56cfd0ddd691bb000697baef,676192165fb32c2e1fb7aee6,67d16a5bc77b1f8efc6df27a,2025-03-12_05h05.25.225,Tarea de decisión léxica,2024.2.5,Linux x86_64,59.88023952,,,,,,,,,,,,,,,,,,,,,,,556.3484,557.5617,a,1,0.5409,,0.5409,1,557.5619,558.0619,,,,,,141,FEM,WORD,AGR,150,cruz,,la,,558.062,558.0621,0.01171875,-0.399739583,0,0,0,,0,185,185,140,1,sina,,,,
,,,,,,56cfd0ddd691bb000697baef,676192165fb32c2e1fb7aee6,67d16a5bc77b1f8efc6df27a,2025-03-12_05h05.25.225,Tarea de decisión léxica,2024.2.5,Linux x86_64,59.88023952,,,,,,,,,,,,,,,,,,,,,,,558.0653,559.1484,l,1,0.428,,0.428,1,559.1486,559.6502,,,,,,162,MAS,NOWORD,AGR,150,bopo,,el,,559.6503,559.6505,0.01171875,-0.399739583,0,0,0,,0,186,186,161,1,coro,,,,
,,,,,,56cfd0ddd691bb000697baef,676192165fb32c2e1fb7aee6,67d16a5bc77b1f8efc6df27a,2025-03-12_05h05.25.225,Tarea de decisión léxica,2024.2.5,Linux x86_64,59.88023952,,,,,,,,,,,,,,,,,,,,,,,559.6541,560.6853,a,1,0.3696,,0.3696,1,560.6855,561.1866,,,,,,255,MAS,WORD,DIS,150,miedo,,la,,561.1867,561.187,0.01171875,-0.399739583,0,0,0,,0,187,187,254,1,mauco,,,,
,,,,,,56cfd0ddd691bb000697baef,676192165fb32c2e1fb7aee6,67d16a5bc77b1f8efc6df27a,2025-03-12_05h05.25.225,Tarea de decisión léxica,2024.2.5,Linux x86_64,59.88023952,,,,,,,,,,,,,,,,,,,,,,,561.19,562.1903,a,1,0.3456,,0.3456,1,562.1905,562.6904,,,,,,377,MAS,WORD,AGR,150,hielo,,el,,562.6905,562.6907,0.01171875,-0.399739583,0,0,0,,0,188,188,376,1,gaulo,,,,
,,,,,,56cfd0ddd691bb000697baef,676192165fb32c2e1fb7aee6,67d16a5bc77b1f8efc6df27a,2025-03-12_05h05.25.225,Tarea de decisión léxica,2024.2.5,Linux x86_64,59.88023952,,,,,,,,,,,,,,,,,,,,,,,562.6937,563.8438,l,1,0.488,,0.488,1,563.8439,564.3447,,,,,,130,MAS,NOWORD,AGR,150,pima,,el,,564.3473,564.349,0.01171875,-0.399739583,0,0,0,,0,189,189,129,1,oído,,,,
,,,,,,56cfd0ddd691bb000697baef,676192165fb32c2e1fb7aee6,67d16a5bc77b1f8efc6df27a,2025-03-12_05h05.25.225,Tarea de decisión léxica,2024.2.5,Linux x86_64,59.88023952,,,,,,,,,,,,,,,,,,,,,,,564.351,565.3639,a,1,0.3441,,0.3441,1,565.364,565.866,,,,,,111,MAS,WORD,DIS,150,muro,,la,,565.8661,565.8663,0.01171875,-0.399739583,0,0,0,,0,190,190,110,1,siro,,,,
,,,,,,56cfd0ddd691bb000697baef,676192165fb32c2e1fb7aee6,67d16a5bc77b1f8efc6df27a,2025-03-12_05h05.25.225,Tarea de decisión léxica,2024.2.5,Linux x86_64,59.88023952,,,,,,,,,,,,,,,,,,,,,,,565.8687,566.884,a,1,0.3354,,0.3354,1,566.8842,567.3844,,,,,,153,MAS,WORD,AGR,150,pato,,el,,567.385,567.3853,0.01171875,-0.399739583,0,0,0,,0,191,191,152,1,tado,,,,
,,,,,,56cfd0ddd691bb000697baef,676192165fb32c2e1fb7aee6,67d16a5bc77b1f8efc6df27a,2025-03-12_05h05.25.225,Tarea de decisión léxica,2024.2.5,Linux x86_64,59.88023952,,,,,,,,,,,,,,,,,,,,,,,567.3883,568.5207,a,1,0.4592,,0.4592,1,568.5209,569.0229,,,,,,191,FEM,WORD,DIS,150,pila,,el,,569.0229,569.0232,0.01171875,-0.399739583,0,0,0,,0,192,192,190,1,bila,,,,
,,,,,,56cfd0ddd691bb000697baef,676192165fb32c2e1fb7aee6,67d16a5bc77b1f8efc6df27a,2025-03-12_05h05.25.225,Tarea de decisión léxica,2024.2.5,Linux x86_64,59.88023952,,,,,,,,,,,,,,,,,,,,,,,569.0254,569.9415,a,0,0.2364,,0.2364,0,569.9442,570.443,,,,,,402,MAS,NOWORD,AGR,150,pirvo,,el,,570.4432,570.4443,0.01171875,-0.399739583,0,0,0,,0,193,193,401,1,polvo,,,,
,,,,,,56cfd0ddd691bb000697baef,676192165fb32c2e1fb7aee6,67d16a5bc77b1f8efc6df27a,2025-03-12_05h05.25.225,Tarea de decisión léxica,2024.2.5,Linux x86_64,59.88023952,,,,,,,,,,,,,,,,,,,,,,,570.4469,573.1,,0,,,0.2364,-1,573.1022,573.6001,,,,,,40,MAS,NOWORD,DIS,150,redo,,la,,573.6041,573.6059,0.01171875,-0.399739583,0,0,0,,0,194,194,39,1,voto,,,,
,,,,,,56cfd0ddd691bb000697baef,676192165fb32c2e1fb7aee6,67d16a5bc77b1f8efc6df27a,2025-03-12_05h05.25.225,Tarea de decisión léxica,2024.2.5,Linux x86_64,59.88023952,,,,,,,,,,,,,,,,,,,,,,,573.608,574.9026,l,1,0.6208,,0.6208,1,574.9057,575.4041,,,,,,198,MAS,NOWORD,AGR,150,dade,,el,,575.4042,575.4044,0.01171875,-0.399739583,0,0,0,,0,195,195,197,1,bate,,,,
,,,,,,56cfd0ddd691bb000697baef,676192165fb32c2e1fb7aee6,67d16a5bc77b1f8efc6df27a,2025-03-12_05h05.25.225,Tarea de decisión léxica,2024.2.5,Linux x86_64,59.88023952,,,,,,,,,,,,,,,,,,,,,,,575.4069,576.5234,l,1,0.4427,,0.4427,1,576.5235,577.025,,,,,,152,MAS,NOWORD,DIS,150,sogo,,la,,577.0251,577.0253,0.01171875,-0.399739583,0,0,0,,0,196,196,151,1,tomo,,,,
,,,,,,56cfd0ddd691bb000697baef,676192165fb32c2e1fb7aee6,67d16a5bc77b1f8efc6df27a,2025-03-12_05h05.25.225,Tarea de decisión léxica,2024.2.5,Linux x86_64,59.88023952,,,,,,,,,,,,,,,,,,,,,,,577.0279,577.9945,l,0,0.3037,,0.3037,0,577.9963,578.4949,,,,,,135,MAS,WORD,DIS,150,tubo,,la,,578.495,578.4952,0.01171875,-0.399739583,0,0,0,,0,197,197,134,1,geso,,,,
,,,,,,56cfd0ddd691bb000697baef,676192165fb32c2e1fb7aee6,67d16a5bc77b1f8efc6df27a,2025-03-12_05h05.25.225,Tarea de decisión léxica,2024.2.5,Linux x86_64,59.88023952,,,,,,,,,,,,,,,,,,,,,,,578.4977,579.7488,l,1,0.59,,0.59,1,579.7532,580.2492,,,,,,264,FEM,NOWORD,DIS,150,dosta,,el,,580.2493,580.2495,0.01171875,-0.399739583,0,0,0,,0,198,198,263,1,vista,,,,
,,,,,,56cfd0ddd691bb000697baef,676192165fb32c2e1fb7aee6,67d16a5bc77b1f8efc6df27a,2025-03-12_05h05.25.225,Tarea de decisión léxica,2024.2.5,Linux x86_64,59.88023952,,,,,,,,,,,,,,,,,,,,,,,580.2522,581.4019,l,0,0.4858,,0.4858,0,581.4046,581.903,,,,,,151,MAS,WORD,DIS,150,tomo,,la,,581.906,581.9076,0.01171875,-0.399739583,0,0,0,,0,199,199,150,1,sogo,,,,
,,,,,,56cfd0ddd691bb000697baef,676192165fb32c2e1fb7aee6,67d16a5bc77b1f8efc6df27a,2025-03-12_05h05.25.225,Tarea de decisión léxica,2024.2.5,Linux x86_64,59.88023952,,,,,,,,,,,,,,,,,,,,,,,581.9092,583.3737,l,1,0.7888,,0.7888,1,583.376,583.8753,,,,,,272,FEM,NOWORD,DIS,150,refal,,el,,583.8753,583.8755,0.01171875,-0.399739583,0,0,0,,0,200,200,271,1,señal,,,,
,,,,,,56cfd0ddd691bb000697baef,676192165fb32c2e1fb7aee6,67d16a5bc77b1f8efc6df27a,2025-03-12_05h05.25.225,Tarea de decisión léxica,2024.2.5,Linux x86_64,59.88023952,,,,,,,,,,,,,,,,,,,,,,,583.8779,584.9948,a,1,0.4455,,0.4455,1,584.9949,585.4956,,,,,,107,MAS,WORD,DIS,150,saco,,la,,585.4957,585.4967,0.01171875,-0.399739583,0,0,0,,0,201,201,106,1,raot,,,,
,,,,,,56cfd0ddd691bb000697baef,676192165fb32c2e1fb7aee6,67d16a5bc77b1f8efc6df27a,2025-03-12_05h05.25.225,Tarea de decisión léxica,2024.2.5,Linux x86_64,59.88023952,,,,,,,,,,,,,,,,,,,,,,,585.4997,586.7483,l,1,0.5741,,0.5741,1,586.7484,587.25,,,,,,444,MAS,NOWORD,DIS,150,taron,,la,,587.2501,587.2503,0.01171875,-0.399739583,0,0,0,,0,202,202,443,1,salón,,,,
,,,,,,56cfd0ddd691bb000697baef,676192165fb32c2e1fb7aee6,67d16a5bc77b1f8efc6df27a,2025-03-12_05h05.25.225,Tarea de decisión léxica,2024.2.5,Linux x86_64,59.88023952,,,,,,,,,,,,,,,,,,,,,,,587.2525,588.4866,l,1,0.572,,0.572,1,588.4868,588.9872,,,,,,98,MAS,NOWORD,AGR,150,fopo,,el,,588.9902,588.9921,0.01171875,-0.399739583,0,0,0,,0,203,203,97,1,mono,,,,
,,,,,,56cfd0ddd691bb000697baef,676192165fb32c2e1fb7aee6,67d16a5bc77b1f8efc6df27a,2025-03-12_05h05.25.225,Tarea de decisión léxica,2024.2.5,Linux x86_64,59.88023952,,,,,,,,,,,,,,,,,,,,,,,588.9937,590.0584,a,1,0.3967,,0.3967,1,590.0587,590.5581,,,,,,423,MAS,WORD,DIS,150,queso,,la,,590.5581,590.5584,0.01171875,-0.399739583,0,0,0,,0,204,204,422,1,quigo,,,,
,,,,,,56cfd0ddd691bb000697baef,676192165fb32c2e1fb7aee6,67d16a5bc77b1f8efc6df27a,2025-03-12_05h05.25.225,Tarea de decisión léxica,2024.2.5,Linux x86_64,59.88023952,,,,,,,,,,,,,,,,,,,,,,,590.5614,591.5434,l,1,0.3027,,0.3027,1,591.5435,592.0448,,,,,,78,MAS,NOWORD,AGR,150,fodo,,el,,592.0449,592.0453,0.01171875,-0.399739583,0,0,0,,0,205,205,77,1,loco,,,,
,,,,,,56cfd0ddd691bb000697baef,676192165fb32c2e1fb7aee6,67d16a5bc77b1f8efc6df27a,2025-03-12_05h05.25.225,Tarea de decisión léxica,2024.2.5,Linux x86_64,59.88023952,,,,,,,,,,,,,,,,,,,,,,,592.0479,593.2012,l,1,0.4814,,0.4814,1,593.2013,593.6987,,,,,,150,MAS,NOWORD,AGR,150,pafo,,el,,593.6988,593.6991,0.01171875,-0.399739583,0,0,0,,0,206,206,149,1,cabo,,,,
,,,,,,56cfd0ddd691bb000697baef,676192165fb32c2e1fb7aee6,67d16a5bc77b1f8efc6df27a,2025-03-12_05h05.25.225,Tarea de decisión léxica,2024.2.5,Linux x86_64,59.88023952,,,,,,,,,,,,,,,,,,,,,,,593.7014,594.7843,a,1,0.4011,,0.4011,1,594.7844,595.2862,,,,,,113,FEM,WORD,AGR,150,miel,,la,,595.2863,595.2865,0.01171875,-0.399739583,0,0,0,,0,207,207,112,1,tada,,,,
,,,,,,56cfd0ddd691bb000697baef,676192165fb32c2e1fb7aee6,67d16a5bc77b1f8efc6df27a,2025-03-12_05h05.25.225,Tarea de decisión léxica,2024.2.5,Linux x86_64,59.88023952,,,,,,,,,,,,,,,,,,,,,,,595.2894,596.3048,l,1,0.3608,,0.3608,1,596.3048,596.8064,,,,,,70,FEM,NOWORD,AGR,150,ñola,,la,,596.8095,596.8111,0.01171875,-0.399739583,0,0,0,,0,208,208,69,1,zona,,,,
,,,,,,56cfd0ddd691bb000697baef,676192165fb32c2e1fb7aee6,67d16a5bc77b1f8efc6df27a,2025-03-12_05h05.25.225,Tarea de decisión léxica,2024.2.5,Linux x86_64,59.88023952,,,,,,,,,,,,,,,,,,,,,,,596.8128,597.9085,a,1,0.4192,,0.4192,1,597.9087,598.4103,,,,,,319,MAS,WORD,DIS,150,suelo,,la,,598.4103,598.4107,0.01171875,-0.399739583,0,0,0,,0,209,209,318,1,tuero,,,,
,,,,,,56cfd0ddd691bb000697baef,676192165fb32c2e1fb7aee6,67d16a5bc77b1f8efc6df27a,2025-03-12_05h05.25.225,Tarea de decisión léxica,2024.2.5,Linux x86_64,59.88023952,,,,,,,,,,,,,,,,,,,,,,,598.4131,599.949,a,1,0.8813,,0.8813,1,599.9491,600.4482,,,,,,363,FEM,WORD,DIS,150,deuda,,el,,600.4482,600.4485,0.01171875,-0.399739583,0,0,0,,0,210,210,362,1,veida,,,,
,,,,,,56cfd0ddd691bb000697baef,676192165fb32c2e1fb7aee6,67d16a5bc77b1f8efc6df27a,2025-03-12_05h05.25.225,Tarea de decisión léxica,2024.2.5,Linux x86_64,59.88023952,,,,,,,,,,,,,,,,,,,,,,,600.4509,601.6847,a,1,0.5691,,0.5691,1,601.6848,602.1878,,,,,,157,MAS,WORD,AGR,150,nido,,el,,602.1879,602.188,0.01171875,-0.399739583,0,0,0,,0,211,211,156,1,hico,,,,
,,,,,,56cfd0ddd691bb000697baef,676192165fb32c2e1fb7aee6,67d16a5bc77b1f8efc6df27a,2025-03-12_05h05.25.225,Tarea de decisión léxica,2024.2.5,Linux x86_64,59.88023952,,,,,,,,,,,,,,,,,,,,,,,602.1906,603.289,a,1,0.4242,,0.4242,1,603.2891,603.7896,,,,,,353,FEM,WORD,AGR,150,celda,,la,,603.7897,603.7899,0.01171875,-0.399739583,0,0,0,,0,212,212,352,1,cezca,,,,
,,,,,,56cfd0ddd691bb000697baef,676192165fb32c2e1fb7aee6,67d16a5bc77b1f8efc6df27a,2025-03-12_05h05.25.225,Tarea de decisión léxica,2024.2.5,Linux x86_64,59.88023952,,,,,,,,,,,,,,,,,,,,,,,603.793,604.9429,a,1,0.4718,,0.4718,1,604.943,605.4433,,,,,,175,FEM,WORD,DIS,150,goma,,el,,605.4461,605.4477,0.01171875,-0.399739583,0,0,0,,0,213,213,174,1,hosa,,,,
,,,,,,56cfd0ddd691bb000697baef,676192165fb32c2e1fb7aee6,67d16a5bc77b1f8efc6df27a,2025-03-12_05h05.25.225,Tarea de decisión léxica,2024.2.5,Linux x86_64,59.88023952,,,,,,,,,,,,,,,,,,,,,,,605.4492,606.5802,a,1,0.4513,,0.4513,1,606.5803,607.0807,,,,,,79,FEM,WORD,DIS,150,piel,,el,,607.0808,607.081,0.01171875,-0.399739583,0,0,0,,0,214,214,78,1,ciel,,,,
,,,,,,56cfd0ddd691bb000697baef,676192165fb32c2e1fb7aee6,67d16a5bc77b1f8efc6df27a,2025-03-12_05h05.25.225,Tarea de decisión léxica,2024.2.5,Linux x86_64,59.88023952,,,,,,,,,,,,,,,,,,,,,,,607.083,608.1179,a,1,0.3734,,0.3734,1,608.1181,608.6183,,,,,,201,FEM,WORD,AGR,150,cuna,,la,,608.6183,608.6185,0.01171875,-0.399739583,0,0,0,,0,215,215,200,1,cusa,,,,
,,,,,,56cfd0ddd691bb000697baef,676192165fb32c2e1fb7aee6,67d16a5bc77b1f8efc6df27a,2025-03-12_05h05.25.225,Tarea de decisión léxica,2024.2.5,Linux x86_64,59.88023952,,,,,,,,,,,,,,,,,,,,,,,608.6211,610.2388,l,1,0.9535,,0.9535,1,610.239,610.7403,,,,,,26,FEM,NOWORD,AGR,150,paza,,la,,610.7405,610.7408,0.01171875,-0.399739583,0,0,0,,0,216,216,25,1,cama,,,,
,,,,,,56cfd0ddd691bb000697baef,676192165fb32c2e1fb7aee6,67d16a5bc77b1f8efc6df27a,2025-03-12_05h05.25.225,Tarea de decisión léxica,2024.2.5,Linux x86_64,59.88023952,,,,,,,,,,,,,,,,,,,,,,,610.7435,612.1594,l,1,0.736,,0.736,1,612.1595,612.6609,,,,,,282,MAS,NOWORD,AGR,150,cauro,,el,,612.661,612.6611,0.01171875,-0.399739583,0,0,0,,0,217,217,281,1,cielo,,,,
,,,,,,56cfd0ddd691bb000697baef,676192165fb32c2e1fb7aee6,67d16a5bc77b1f8efc6df27a,2025-03-12_05h05.25.225,Tarea de decisión léxica,2024.2.5,Linux x86_64,59.88023952,,,,,,,,,,,,,,,,,,,,,,,612.6646,614.0141,l,1,0.6878,,0.6878,1,614.0145,614.5157,,,,,,110,MAS,NOWORD,AGR,150,suno,,el,,614.5179,614.5198,0.01171875,-0.399739583,0,0,0,,0,218,218,109,1,rayo,,,,
,,,,,,56cfd0ddd691bb000697baef,676192165fb32c2e1fb7aee6,67d16a5bc77b1f8efc6df27a,2025-03-12_05h05.25.225,Tarea de decisión léxica,2024.2.5,Linux x86_64,59.88023952,,,,,,,,,,,,,,,,,,,,,,,614.5212,615.7022,l,1,0.5022,,0.5022,1,615.7024,616.2035,,,,,,136,MAS,NOWORD,DIS,150,geso,,la,,616.2035,616.2038,0.01171875,-0.399739583,0,0,0,,0,219,219,135,1,tubo,,,,
,,,,,,56cfd0ddd691bb000697baef,676192165fb32c2e1fb7aee6,67d16a5bc77b1f8efc6df27a,2025-03-12_05h05.25.225,Tarea de decisión léxica,2024.2.5,Linux x86_64,59.88023952,,,,,,,,,,,,,,,,,,,,,,,616.2067,617.4063,a,0,0.5422,,0.5422,0,617.4081,617.9076,,,,,,450,FEM,NOWORD,AGR,150,crusa,,la,,617.9076,617.9079,0.01171875,-0.399739583,0,0,0,,0,220,220,449,1,pluma,,,,
,,,,,,56cfd0ddd691bb000697baef,676192165fb32c2e1fb7aee6,67d16a5bc77b1f8efc6df27a,2025-03-12_05h05.25.225,Tarea de decisión léxica,2024.2.5,Linux x86_64,59.88023952,,,,,,,,,,,,,,,,,,,,,,,617.9117,619.027,a,1,0.46,,0.46,1,619.0293,619.5275,,,,,,411,MAS,WORD,DIS,150,pollo,,la,,619.5276,619.5278,0.01171875,-0.399739583,0,0,0,,0,221,221,410,1,mobro,,,,
,,,,,,56cfd0ddd691bb000697baef,676192165fb32c2e1fb7aee6,67d16a5bc77b1f8efc6df27a,2025-03-12_05h05.25.225,Tarea de decisión léxica,2024.2.5,Linux x86_64,59.88023952,,,,,,,,,,,,,,,,,,,,,,,619.5298,620.647,l,1,0.455,,0.455,1,620.6472,621.1488,,,,,,192,FEM,NOWORD,DIS,150,bila,,el,,621.1489,621.149,0.01171875,-0.399739583,0,0,0,,0,222,222,191,1,pila,,,,
,,,,,,56cfd0ddd691bb000697baef,676192165fb32c2e1fb7aee6,67d16a5bc77b1f8efc6df27a,2025-03-12_05h05.25.225,Tarea de decisión léxica,2024.2.5,Linux x86_64,59.88023952,,,,,,,,,,,,,,,,,,,,,,,621.1518,622.3864,l,1,0.5784,,0.5784,1,622.3866,622.8861,,,,,,52,FEM,NOWORD,DIS,150,mava,,el,,622.8909,622.8924,0.01171875,-0.399739583,0,0,0,,0,223,223,51,1,caja,,,,
,,,,,,56cfd0ddd691bb000697baef,676192165fb32c2e1fb7aee6,67d16a5bc77b1f8efc6df27a,2025-03-12_05h05.25.225,Tarea de decisión léxica,2024.2.5,Linux x86_64,59.88023952,,,,,,,,,,,,,,,,,,,,,,,622.8942,623.9737,l,1,0.403,,0.403,1,623.9743,624.4735,,,,,,318,FEM,NOWORD,AGR,150,plaad,,la,,624.4735,624.4738,0.01171875,-0.399739583,0,0,0,,0,224,224,317,1,playa,,,,
,,,,,,56cfd0ddd691bb000697baef,676192165fb32c2e1fb7aee6,67d16a5bc77b1f8efc6df27a,2025-03-12_05h05.25.225,Tarea de decisión léxica,2024.2.5,Linux x86_64,59.88023952,,,,,,,,,,,,,,,,,,,,,,,624.4765,625.5607,a,1,0.4294,,0.4294,1,625.5608,626.0604,,,,,,69,FEM,WORD,AGR,150,zona,,la,,626.0605,626.0609,0.01171875,-0.399739583,0,0,0,,0,225,225,68,1,ñola,,,,
,,,,,,56cfd0ddd691bb000697baef,676192165fb32c2e1fb7aee6,67d16a5bc77b1f8efc6df27a,2025-03-12_05h05.25.225,Tarea de decisión léxica,2024.2.5,Linux x86_64,59.88023952,,,,,,,,,,,,,,,,,,,,,,,626.0636,627.1796,l,1,0.4417,,0.4417,1,627.1797,627.681,,,,,,128,MAS,NOWORD,DIS,150,itio,,la,,627.6812,627.6815,0.01171875,-0.399739583,0,0,0,,0,226,226,127,1,pico,,,,
,,,,,,56cfd0ddd691bb000697baef,676192165fb32c2e1fb7aee6,67d16a5bc77b1f8efc6df27a,2025-03-12_05h05.25.225,Tarea de decisión léxica,2024.2.5,Linux x86_64,59.88023952,,,,,,,,,,,,,,,,,,,,,,,627.684,628.6497,a,0,0.3069,,0.3069,0,628.6519,629.1514,,,,,,234,FEM,NOWORD,AGR,150,fasa,,la,,629.155,629.1566,0.01171875,-0.399739583,0,0,0,,0,227,227,233,1,lana,,,,
,,,,,,56cfd0ddd691bb000697baef,676192165fb32c2e1fb7aee6,67d16a5bc77b1f8efc6df27a,2025-03-12_05h05.25.225,Tarea de decisión léxica,2024.2.5,Linux x86_64,59.88023952,,,,,,,,,,,,,,,,,,,,,,,629.1585,630.1871,a,1,0.3583,,0.3583,1,630.1894,630.6884,,,,,,345,FEM,WORD,AGR,150,arena,,la,,630.6885,630.6889,0.01171875,-0.399739583,0,0,0,,0,228,228,344,1,anera,,,,
,,,,,,56cfd0ddd691bb000697baef,676192165fb32c2e1fb7aee6,67d16a5bc77b1f8efc6df27a,2025-03-12_05h05.25.225,Tarea de decisión léxica,2024.2.5,Linux x86_64,59.88023952,,,,,,,,,,,,,,,,,,,,,,,630.6916,631.7918,a,1,0.4198,,0.4198,1,631.792,632.2919,,,,,,39,MAS,WORD,DIS,150,voto,,la,,632.292,632.2925,0.01171875,-0.399739583,0,0,0,,0,229,229,38,1,redo,,,,
,,,,,,56cfd0ddd691bb000697baef,676192165fb32c2e1fb7aee6,67d16a5bc77b1f8efc6df27a,2025-03-12_05h05.25.225,Tarea de decisión léxica,2024.2.5,Linux x86_64,59.88023952,,,,,,,,,,,,,,,,,,,,,,,632.2954,633.329,a,1,0.3688,,0.3688,1,633.3292,633.8292,,,,,,383,FEM,WORD,DIS,150,frase,,el,,633.8293,633.8294,0.01171875,-0.399739583,0,0,0,,0,230,230,382,1,brame,,,,
,,,,,,56cfd0ddd691bb000697baef,676192165fb32c2e1fb7aee6,67d16a5bc77b1f8efc6df27a,2025-03-12_05h05.25.225,Tarea de decisión léxica,2024.2.5,Linux x86_64,59.88023952,,,,,,,,,,,,,,,,,,,,,,,633.8324,634.8999,a,1,0.4011,,0.4011,1,634.9002,635.4001,,,,,,461,FEM,WORD,AGR,150,tabla,,la,,635.4001,635.4003,0.01171875,-0.399739583,0,0,0,,0,231,231,460,1,pagra,,,,
,,,,,,56cfd0ddd691bb000697baef,676192165fb32c2e1fb7aee6,67d16a5bc77b1f8efc6df27a,2025-03-12_05h05.25.225,Tarea de decisión léxica,2024.2.5,Linux x86_64,59.88023952,,,,,,,,,,,,,,,,,,,,,,,635.4029,636.3694,a,1,0.285,,0.285,1,636.3696,636.8708,,,,,,55,MAS,WORD,DIS,150,gato,,la,,636.8731,636.8743,0.01171875,-0.399739583,0,0,0,,0,232,232,54,1,jado,,,,
,,,,,,56cfd0ddd691bb000697baef,676192165fb32c2e1fb7aee6,67d16a5bc77b1f8efc6df27a,2025-03-12_05h05.25.225,Tarea de decisión léxica,2024.2.5,Linux x86_64,59.88023952,,,,,,,,,,,,,,,,,,,,,,,636.8762,637.9228,a,1,0.3683,,0.3683,1,637.923,638.4242,,,,,,355,FEM,WORD,DIS,150,regla,,el,,638.4243,638.4245,0.01171875,-0.399739583,0,0,0,,0,233,233,354,1,bepla,,,,
,,,,,,56cfd0ddd691bb000697baef,676192165fb32c2e1fb7aee6,67d16a5bc77b1f8efc6df27a,2025-03-12_05h05.25.225,Tarea de decisión léxica,2024.2.5,Linux x86_64,59.88023952,,,,,,,,,,,,,,,,,,,,,,,638.4275,639.4274,a,1,0.3258,,0.3258,1,639.4275,639.9271,,,,,,89,MAS,WORD,AGR,150,humo,,el,,639.9271,639.9275,0.01171875,-0.399739583,0,0,0,,0,234,234,88,1,guso,,,,
,,,,,,56cfd0ddd691bb000697baef,676192165fb32c2e1fb7aee6,67d16a5bc77b1f8efc6df27a,2025-03-12_05h05.25.225,Tarea de decisión léxica,2024.2.5,Linux x86_64,59.88023952,,,,,,,,,,,,,,,,,,,,,,,639.9302,641.1656,l,1,0.5762,,0.5762,1,641.1658,641.6653,,,,,,54,FEM,NOWORD,AGR,150,rora,,la,,641.6653,641.666,0.01171875,-0.399739583,0,0,0,,0,235,235,53,1,boda,,,,
,,,,,,56cfd0ddd691bb000697baef,676192165fb32c2e1fb7aee6,67d16a5bc77b1f8efc6df27a,2025-03-12_05h05.25.225,Tarea de decisión léxica,2024.2.5,Linux x86_64,59.88023952,,,,,,,,,,,,,,,,,,,,,,,641.6688,642.9344,l,1,0.5855,,0.5855,1,642.9347,643.4363,,,,,,32,FEM,NOWORD,DIS,150,bova,,el,,643.4364,643.4366,0.01171875,-0.399739583,0,0,0,,0,236,236,31,1,ropa,,,,
,,,,,,56cfd0ddd691bb000697baef,676192165fb32c2e1fb7aee6,67d16a5bc77b1f8efc6df27a,2025-03-12_05h05.25.225,Tarea de decisión léxica,2024.2.5,Linux x86_64,59.88023952,,,,,,,,,,,,,,,,,,,,,,,643.4392,644.7397,l,1,0.6206,,0.6206,1,644.7398,645.2401,,,,,,316,FEM,NOWORD,DIS,150,riosa,,el,,645.2436,645.2453,0.01171875,-0.399739583,0,0,0,,0,237,237,315,1,reina,,,,
,,,,,,56cfd0ddd691bb000697baef,676192165fb32c2e1fb7aee6,67d16a5bc77b1f8efc6df27a,2025-03-12_05h05.25.225,Tarea de decisión léxica,2024.2.5,Linux x86_64,59.88023952,,,,,,,,,,,,,,,,,,,,,,,645.2474,646.6106,l,1,0.6851,,0.6851,1,646.6108,647.1117,,,,,,194,FEM,NOWORD,AGR,150,foda,,la,,647.1118,647.112,0.01171875,-0.399739583,0,0,0,,0,238,238,193,1,loca,,,,
,,,,,,56cfd0ddd691bb000697baef,676192165fb32c2e1fb7aee6,67d16a5bc77b1f8efc6df27a,2025-03-12_05h05.25.225,Tarea de decisión léxica,2024.2.5,Linux x86_64,59.88023952,,,,,,,,,,,,,,,,,,,,,,,647.1146,648.4145,a,1,0.6196,,0.6196,1,648.4147,648.9159,,,,,,327,MAS,WORD,DIS,150,fondo,,la,,648.916,648.9165,0.01171875,-0.399739583,0,0,0,,0,239,239,326,1,lendo,,,,
,,,,,,56cfd0ddd691bb000697baef,676192165fb32c2e1fb7aee6,67d16a5bc77b1f8efc6df27a,2025-03-12_05h05.25.225,Tarea de decisión léxica,2024.2.5,Linux x86_64,59.88023952,,,,,,,,,,,,,,,,,,,,,,,648.9192,650.2527,a,1,0.653,,0.653,1,650.2528,650.7543,,,,,,403,FEM,WORD,DIS,150,prima,,el,,650.7543,650.7549,0.01171875,-0.399739583,0,0,0,,0,240,240,402,1,grisa,,,,
,,,,,,56cfd0ddd691bb000697baef,676192165fb32c2e1fb7aee6,67d16a5bc77b1f8efc6df27a,2025-03-12_05h05.25.225,Tarea de decisión léxica,2024.2.5,Linux x86_64,59.88023952,,,,,,,,,,,,,,,,,,,,,,,650.7573,651.8728,a,1,0.4429,,0.4429,1,651.873,652.3753,,,,,,199,MAS,WORD,DIS,150,lazo,,la,,652.3754,652.3756,0.01171875,-0.399739583,0,0,0,,0,241,241,198,1,fano,,,,
,,,,,,56cfd0ddd691bb000697baef,676192165fb32c2e1fb7aee6,67d16a5bc77b1f8efc6df27a,2025-03-12_05h05.25.225,Tarea de decisión léxica,2024.2.5,Linux x86_64,59.88023952,,,,,,,,,,,,,,,,,,,,,,,652.3773,653.3764,a,0,0.323,,0.323,0,653.3805,653.8777,,,,,,94,FEM,NOWORD,AGR,150,rona,,la,,653.881,653.8823,0.01171875,-0.399739583,0,0,0,,0,242,242,93,1,bola,,,,
,,,,,,56cfd0ddd691bb000697baef,676192165fb32c2e1fb7aee6,67d16a5bc77b1f8efc6df27a,2025-03-12_05h05.25.225,Tarea de decisión léxica,2024.2.5,Linux x86_64,59.88023952,,,,,,,,,,,,,,,,,,,,,,,653.8842,655.0479,l,1,0.4945,,0.4945,1,655.05,655.5484,,,,,,108,MAS,NOWORD,DIS,150,raot,,la,,655.5485,655.5487,0.01171875,-0.399739583,0,0,0,,0,243,243,107,1,saco,,,,
,,,,,,56cfd0ddd691bb000697baef,676192165fb32c2e1fb7aee6,67d16a5bc77b1f8efc6df27a,2025-03-12_05h05.25.225,Tarea de decisión léxica,2024.2.5,Linux x86_64,59.88023952,,,,,,,,,,,,,,,,,,,,,,,655.5514,656.9013,l,1,0.6857,,0.6857,1,656.9014,657.4029,,,,,,386,FEM,NOWORD,AGR,150,febra,,la,,657.4031,657.4033,0.01171875,-0.399739583,0,0,0,,0,244,244,385,1,letra,,,,
,,,,,,56cfd0ddd691bb000697baef,676192165fb32c2e1fb7aee6,67d16a5bc77b1f8efc6df27a,2025-03-12_05h05.25.225,Tarea de decisión léxica,2024.2.5,Linux x86_64,59.88023952,,,,,,,,,,,,,,,,,,,,,,,657.406,658.6895,l,1,0.6046,,0.6046,1,658.6896,659.1912,,,,,,314,MAS,NOWORD,AGR,150,govio,,el,,659.1912,659.1918,0.01171875,-0.399739583,0,0,0,,0,245,245,313,1,novio,,,,
,,,,,,56cfd0ddd691bb000697baef,676192165fb32c2e1fb7aee6,67d16a5bc77b1f8efc6df27a,2025-03-12_05h05.25.225,Tarea de decisión léxica,2024.2.5,Linux x86_64,59.88023952,,,,,,,,,,,,,,,,,,,,,,,659.1946,660.5268,l,1,0.6595,,0.6595,1,660.5269,661.0283,,,,,,90,MAS,NOWORD,AGR,150,guso,,el,,661.0285,661.0286,0.01171875,-0.399739583,0,0,0,,0,246,246,89,1,humo,,,,
,,,,,,56cfd0ddd691bb000697baef,676192165fb32c2e1fb7aee6,67d16a5bc77b1f8efc6df27a,2025-03-12_05h05.25.225,Tarea de decisión léxica,2024.2.5,Linux x86_64,59.88023952,,,,,,,,,,,,,,,,,,,,,,,661.032,662.1478,a,1,0.4512,,0.4512,1,662.1479,662.6499,,,,,,181,FEM,WORD,AGR,150,seda,,la,,662.6526,662.654,0.01171875,-0.399739583,0,0,0,,0,247,247,180,1,teda,,,,
,,,,,,56cfd0ddd691bb000697baef,676192165fb32c2e1fb7aee6,67d16a5bc77b1f8efc6df27a,2025-03-12_05h05.25.225,Tarea de decisión léxica,2024.2.5,Linux x86_64,59.88023952,,,,,,,,,,,,,,,,,,,,,,,662.656,663.8356,a,1,0.5015,,0.5015,1,663.8357,664.3368,,,,,,371,FEM,WORD,DIS,150,pasta,,el,,664.3369,664.3371,0.01171875,-0.399739583,0,0,0,,0,248,248,370,1,mosta,,,,
,,,,,,56cfd0ddd691bb000697baef,676192165fb32c2e1fb7aee6,67d16a5bc77b1f8efc6df27a,2025-03-12_05h05.25.225,Tarea de decisión léxica,2024.2.5,Linux x86_64,59.88023952,,,,,,,,,,,,,,,,,,,,,,,664.3398,665.6904,a,1,0.6954,,0.6954,1,665.6906,666.1911,,,,,,359,MAS,WORD,DIS,150,calor,,la,,666.1912,666.1915,0.01171875,-0.399739583,0,0,0,,0,249,249,358,1,cacer,,,,
,,,,,,56cfd0ddd691bb000697baef,676192165fb32c2e1fb7aee6,67d16a5bc77b1f8efc6df27a,2025-03-12_05h05.25.225,Tarea de decisión léxica,2024.2.5,Linux x86_64,59.88023952,,,,,,,,,,,,,,,,,,,,,,,666.195,667.3772,l,1,0.5085,,0.5085,1,667.3774,667.8778,,,,,,84,FEM,NOWORD,DIS,150,taga,,el,,667.8778,667.8782,0.01171875,-0.399739583,0,0,0,,0,250,250,83,1,bala,,,,
,,,,,,56cfd0ddd691bb000697baef,676192165fb32c2e1fb7aee6,67d16a5bc77b1f8efc6df27a,2025-03-12_05h05.25.225,Tarea de decisión léxica,2024.2.5,Linux x86_64,59.88023952,,,,,,,,,,,,,,,,,,,,,,,667.881,668.9813,a,1,0.4394,,0.4394,1,668.9815,669.4842,,,,,,195,FEM,WORD,DIS,150,tela,,el,,669.4863,669.4875,0.01171875,-0.399739583,0,0,0,,0,251,251,194,1,sira,,,,
,,,,,,56cfd0ddd691bb000697baef,676192165fb32c2e1fb7aee6,67d16a5bc77b1f8efc6df27a,2025-03-12_05h05.25.225,Tarea de decisión léxica,2024.2.5,Linux x86_64,59.88023952,,,,,,,,,,,,,,,,,,,,,,,669.4889,670.7196,l,1,0.553,,0.553,1,670.7197,671.2193,,,,,,36,MAS,NOWORD,DIS,150,meno,,la,,671.2194,671.2199,0.01171875,-0.399739583,0,0,0,,0,252,252,35,1,pelo,,,,
,,,,,,56cfd0ddd691bb000697baef,676192165fb32c2e1fb7aee6,67d16a5bc77b1f8efc6df27a,2025-03-12_05h05.25.225,Tarea de decisión léxica,2024.2.5,Linux x86_64,59.88023952,,,,,,,,,,,,,,,,,,,,,,,671.2223,672.4085,l,1,0.5301,,0.5301,1,672.4087,672.9073,,,,,,68,FEM,NOWORD,DIS,150,gesa,,el,,672.9074,672.9077,0.01171875,-0.399739583,0,0,0,,0,253,253,67,1,nena,,,,
,,,,,,56cfd0ddd691bb000697baef,676192165fb32c2e1fb7aee6,67d16a5bc77b1f8efc6df27a,2025-03-12_05h05.25.225,Tarea de decisión léxica,2024.2.5,Linux x86_64,59.88023952,,,,,,,,,,,,,,,,,,,,,,,672.9106,674.1271,a,1,0.5362,,0.5362,1,674.1272,674.6279,,,,,,397,FEM,WORD,AGR,150,tribu,,la,,674.628,674.6281,0.01171875,-0.399739583,0,0,0,,0,254,254,396,1,trigi,,,,
,,,,,,56cfd0ddd691bb000697baef,676192165fb32c2e1fb7aee6,67d16a5bc77b1f8efc6df27a,2025-03-12_05h05.25.225,Tarea de decisión léxica,2024.2.5,Linux x86_64,59.88023952,,,,,,,,,,,,,,,,,,,,,,,674.6305,675.7139,l,1,0.4188,,0.4188,1,675.714,676.2157,,,,,,266,FEM,NOWORD,AGR,150,pitat,,la,,676.2157,676.2158,0.01171875,-0.399739583,0,0,0,,0,255,255,265,1,mitad,,,,
,,,,,,56cfd0ddd691bb000697baef,676192165fb32c2e1fb7aee6,67d16a5bc77b1f8efc6df27a,2025-03-12_05h05.25.225,Tarea de decisión léxica,2024.2.5,Linux x86_64,59.88023952,,,,,,,,,,,,,,,,,,,,,,,676.2193,677.2179,a,1,0.3271,,0.3271,1,677.218,677.7187,,,,,,25,FEM,WORD,AGR,150,cama,,la,,677.7221,677.7238,0.01171875,-0.399739583,0,0,0,,0,256,256,24,1,paza,,,,
,,,,,,56cfd0ddd691bb000697baef,676192165fb32c2e1fb7aee6,67d16a5bc77b1f8efc6df27a,2025-03-12_05h05.25.225,Tarea de decisión léxica,2024.2.5,Linux x86_64,59.88023952,,,,,,,,,,,,,,,,,,,,,,,677.7257,679.1053,a,1,0.7033,,0.7033,1,679.1055,679.6072,,,,,,379,MAS,WORD,DIS,150,turno,,la,,679.6072,679.6075,0.01171875,-0.399739583,0,0,0,,0,257,257,378,1,tunso,,,,
,,,,,,56cfd0ddd691bb000697baef,676192165fb32c2e1fb7aee6,67d16a5bc77b1f8efc6df27a,2025-03-12_05h05.25.225,Tarea de decisión léxica,2024.2.5,Linux x86_64,59.88023952,,,,,,,,,,,,,,,,,,,,,,,679.6093,680.76,l,1,0.4716,,0.4716,1,680.7607,681.2606,,,,,,392,MAS,NOWORD,DIS,150,dievo,,la,,681.2607,681.2609,0.01171875,-0.399739583,0,0,0,,0,258,258,391,1,dueño,,,,
,,,,,,56cfd0ddd691bb000697baef,676192165fb32c2e1fb7aee6,67d16a5bc77b1f8efc6df27a,2025-03-12_05h05.25.225,Tarea de decisión léxica,2024.2.5,Linux x86_64,59.88023952,,,,,,,,,,,,,,,,,,,,,,,681.264,682.4008,l,1,0.4813,,0.4813,1,682.401,682.8988,,,,,,10,MAS,NOWORD,AGR,150,sibo,,el,,682.8989,682.899,0.01171875,-0.399739583,0,0,0,,0,259,259,9,1,tipo,,,,
