counterbalancing_condition,consent_prescreening.block_1/declare_consent,consent_prescreening.block_1/age_years,consent_prescreening.block_1/gender,consent_prescreening.block_1/language_disorder,consent_prescreening.block_1/first_language,PROLIFIC_PID,STUDY_ID,SESSION_ID,date,expName,psychopyVersion,OS,frameRate,check_prescreening_answers.started,check_prescreening_answers.stopped,Instructions.started,Instructions.stopped,instr_done_keyboard.keys,instr_done_keyboard.rt,instr_done_keyboard.duration,instr_done_touch.x,instr_done_touch.y,instr_done_touch.leftButton,instr_done_touch.midButton,instr_done_touch.rightButton,instruction_pages.thisRepN,instruction_pages.thisTrialN,instruction_pages.thisN,instruction_pages.thisIndex,instruction_pages.ran,pageN,phase,instruct_text,has_image,instruct_image,presentTrial.started,presentTrial.stopped,response.keys,response.corr,response.rt,response.duration,rt,corr,feedback.started,feedback.stopped,practice_trials.thisRepN,practice_trials.thisTrialN,practice_trials.thisN,practice_trials.thisIndex,practice_trials.ran,TrialID,Gender,StimulusType,Condition,PrimeDuration,Prime,len,Flanker,corrAns,Break.started,Break.stopped,break_done_touch.x,break_done_touch.y,break_done_touch.leftButton,break_done_touch.midButton,break_done_touch.rightButton,break_done_keyboard.keys,experiment_trials.thisRepN,experiment_trials.thisTrialN,experiment_trials.thisN,experiment_trials.thisIndex,experiment_trials.ran,PairedWith,break_done_keyboard.rt,break_done_keyboard.duration,End.started,End.stopped
0,"[""over_18"",""comfortable"",""read_info"",""consent_given""]",29,M,"[""none""]","[""spanish""]",5883a935c0c9a10001df6345,676192165fb32c2e1fb7aee6,67d15ef658710532218c3bf8,2025-03-12_11h24.30.003,Tarea de decisión léxica,2024.2.5,Win32,178.5714286,,,,,,,,,,,,,,,,,,,,,,,,,,,,,,,,,,,,,,,,,,,,,,,,,,,,,,,,,,,,,,,,
,,,,,,5883a935c0c9a10001df6345,676192165fb32c2e1fb7aee6,67d15ef658710532218c3bf8,2025-03-12_11h24.30.003,Tarea de decisión léxica,2024.2.5,Win32,178.5714286,209.8151,209.8151,,,,,,,,,,,,,,,,,,,,,,,,,,,,,,,,,,,,,,,,,,,,,,,,,,,,,,,,,,,,,,
,,,,,,5883a935c0c9a10001df6345,676192165fb32c2e1fb7aee6,67d15ef658710532218c3bf8,2025-03-12_11h24.30.003,Tarea de decisión léxica,2024.2.5,Win32,178.5714286,,,209.8274,315.8217,space,105.971,,0.024305556,-0.499305619,0,0,0,0,0,0,0,1,1,instructions,"INSTRUCCIONES
Va a realizar una prueba de decisión léxica. Desde el comienzo de la prueba mire siempre al centro de la pantalla. Se presentará una serie de cadenas de letras, una a la vez, en la pantalla. Su tarea consiste en determinar si cada cadena de letras constituye una palabra real en español o una no-palabra (una secuencia de letras que no constituye una palabra real). 

Pulse la tecla ESPACIO para continuar.",0,keyboardresponseNW.png,,,,,,,,,,,,,,,,,,,,,,,,,,,,,,,,,,,,,,,,,,
,,,,,,5883a935c0c9a10001df6345,676192165fb32c2e1fb7aee6,67d15ef658710532218c3bf8,2025-03-12_11h24.30.003,Tarea de decisión léxica,2024.2.5,Win32,178.5714286,,,315.823,369.6208,space,53.7902,,0.024305556,-0.499305619,0,0,0,0,1,1,1,1,2,instructions,"El procedimiento es el siguiente: Aparecerán dos barras verticales posicionadas en el centro de la pantalla, separadas por un pequeño espacio.Por favor, enfoque su atención en el espacio entre las barras. Esto preparará sus ojos para la siguiente cadena de letras, que aparecerá entre las dos barras durante un instante.

Pulse la tecla ESPACIO para continuar.",0,keyboardresponseNW.png,,,,,,,,,,,,,,,,,,,,,,,,,,,,,,,,,,,,,,,,,,
,,,,,,5883a935c0c9a10001df6345,676192165fb32c2e1fb7aee6,67d15ef658710532218c3bf8,2025-03-12_11h24.30.003,Tarea de decisión léxica,2024.2.5,Win32,178.5714286,,,369.6221,381.5206,space,11.8724,,0.024305556,-0.499305619,0,0,0,0,2,2,2,1,3,instructions,"En el teclado de su dispositivo, pulse la tecla ""L"" si la cadena de letras es una palabra real en español (por ejemplo: ""mano"") y la tecla ""A"" si la cadena de letras es una no-palabra (por ejemplo: ""minu"").
Pulse la tecla ESPACIO para continuar.",1,keyboardresponseNW.png,,,,,,,,,,,,,,,,,,,,,,,,,,,,,,,,,,,,,,,,,,
,,,,,,5883a935c0c9a10001df6345,676192165fb32c2e1fb7aee6,67d15ef658710532218c3bf8,2025-03-12_11h24.30.003,Tarea de decisión léxica,2024.2.5,Win32,178.5714286,,,381.5219,397.7593,space,16.2321,,0.024305556,-0.499305619,0,0,0,0,3,3,3,1,4,instructions,"Es muy importante que responda con la mayor rapidez y precisión posibles. Si no responde dentro de 2 segundos, aparecerá el mensaje ""Muy lento"" y el experimento pasará a la siguiente palabra. Inmediatamente después de su respuesta se indicará si fue correcta o no. Los primeros 15 intentos serán de práctica y habrá dos descansos durante la prueba.

Pulse la tecla ESPACIO  para iniciar la parte de práctica.",0,keyboardresponseNW.png,,,,,,,,,,,,,,,,,,,,,,,,,,,,,,,,,,,,,,,,,,
,,,,,,5883a935c0c9a10001df6345,676192165fb32c2e1fb7aee6,67d15ef658710532218c3bf8,2025-03-12_11h24.30.003,Tarea de decisión léxica,2024.2.5,Win32,178.5714286,,,,,,,,,,,,,,,,,,,,,,,397.7708,399.1705,a,0,0.7411,,0.7411,0,399.1706,399.6703,0,0,0,9,1,1010,MAS,WORD,DIS,150,video,5,la,l,,,,,,,,,,,,,,,,,,
,,,,,,5883a935c0c9a10001df6345,676192165fb32c2e1fb7aee6,67d15ef658710532218c3bf8,2025-03-12_11h24.30.003,Tarea de decisión léxica,2024.2.5,Win32,178.5714286,,,,,,,,,,,,,,,,,,,,,,,399.6713,400.6702,l,1,0.3411,,0.3411,1,400.6708,401.1703,0,1,1,6,1,1007,MAS,WORD,DIS,150,masa,4,la,l,,,,,,,,,,,,,,,,,,
,,,,,,5883a935c0c9a10001df6345,676192165fb32c2e1fb7aee6,67d15ef658710532218c3bf8,2025-03-12_11h24.30.003,Tarea de decisión léxica,2024.2.5,Win32,178.5714286,,,,,,,,,,,,,,,,,,,,,,,401.171,402.0759,l,1,0.2457,,0.2457,1,402.0759,402.5758,0,2,2,7,1,1008,MAS,WORD,DIS,150,frío,4,la,l,,,,,,,,,,,,,,,,,,
,,,,,,5883a935c0c9a10001df6345,676192165fb32c2e1fb7aee6,67d15ef658710532218c3bf8,2025-03-12_11h24.30.003,Tarea de decisión léxica,2024.2.5,Win32,178.5714286,,,,,,,,,,,,,,,,,,,,,,,402.5766,403.4869,l,1,0.2554,,0.2554,1,403.487,403.9869,0,3,3,8,1,1009,FEM,WORD,AGR,150,viejo,5,la,l,,,,,,,,,,,,,,,,,,
,,,,,,5883a935c0c9a10001df6345,676192165fb32c2e1fb7aee6,67d15ef658710532218c3bf8,2025-03-12_11h24.30.003,Tarea de decisión léxica,2024.2.5,Win32,178.5714286,,,,,,,,,,,,,,,,,,,,,,,403.9876,405.0368,a,1,0.3899,,0.3899,1,405.037,405.5368,0,4,4,3,1,1004,FEM,NOWORD,AGR,150,bireo,5,la,a,,,,,,,,,,,,,,,,,,
,,,,,,5883a935c0c9a10001df6345,676192165fb32c2e1fb7aee6,67d15ef658710532218c3bf8,2025-03-12_11h24.30.003,Tarea de decisión léxica,2024.2.5,Win32,178.5714286,,,,,,,,,,,,,,,,,,,,,,,405.5376,406.6369,a,1,0.4401,,0.4401,1,406.637,407.1369,0,5,5,4,1,1005,MAS,NOWORD,DIS,150,nobad,5,la,a,,,,,,,,,,,,,,,,,,
,,,,,,5883a935c0c9a10001df6345,676192165fb32c2e1fb7aee6,67d15ef658710532218c3bf8,2025-03-12_11h24.30.003,Tarea de decisión léxica,2024.2.5,Win32,178.5714286,,,,,,,,,,,,,,,,,,,,,,,407.1376,408.1479,a,1,0.3544,,0.3544,1,408.148,408.648,0,6,6,0,1,1001,FEM,NOWORD,AGR,150,croz,4,la,a,,,,,,,,,,,,,,,,,,
,,,,,,5883a935c0c9a10001df6345,676192165fb32c2e1fb7aee6,67d15ef658710532218c3bf8,2025-03-12_11h24.30.003,Tarea de decisión léxica,2024.2.5,Win32,178.5714286,,,,,,,,,,,,,,,,,,,,,,,408.6485,409.6924,a,1,0.3848,,0.3848,1,409.6924,410.1923,0,7,7,1,1,1002,FEM,NOWORD,DIS,150,mabo,4,el,a,,,,,,,,,,,,,,,,,,
,,,,,,5883a935c0c9a10001df6345,676192165fb32c2e1fb7aee6,67d15ef658710532218c3bf8,2025-03-12_11h24.30.003,Tarea de decisión léxica,2024.2.5,Win32,178.5714286,,,,,,,,,,,,,,,,,,,,,,,410.193,411.2313,a,1,0.3729,,0.3729,1,411.2313,411.7312,0,8,8,2,1,1003,FEM,NOWORD,DIS,150,muvor,5,el,a,,,,,,,,,,,,,,,,,,
,,,,,,5883a935c0c9a10001df6345,676192165fb32c2e1fb7aee6,67d15ef658710532218c3bf8,2025-03-12_11h24.30.003,Tarea de decisión léxica,2024.2.5,Win32,178.5714286,,,,,,,,,,,,,,,,,,,,,,,411.7317,412.6924,l,1,0.3033,,0.3033,1,412.6925,413.1924,0,9,9,5,1,1006,FEM,WORD,AGR,150,cara,4,la,l,,,,,,,,,,,,,,,,,,
,,,,,,5883a935c0c9a10001df6345,676192165fb32c2e1fb7aee6,67d15ef658710532218c3bf8,2025-03-12_11h24.30.003,Tarea de decisión léxica,2024.2.5,Win32,178.5714286,,,418.5158,424.2534,space,5.7283,,0.024305556,-0.499305619,0,0,0,,,,,,,,,,,424.2761,425.3199,a,1,0.3838,,0.3838,1,425.3201,425.82,,,,,,184,FEM,NOWORD,AGR,150,raad,,la,,425.8201,425.8221,0.024305556,-0.499305619,0,0,0,,0,0,0,183,1,raya,,,,
,,,,,,5883a935c0c9a10001df6345,676192165fb32c2e1fb7aee6,67d15ef658710532218c3bf8,2025-03-12_11h24.30.003,Tarea de decisión léxica,2024.2.5,Win32,178.5714286,,,,,,,,,,,,,,,,,,,,,,,425.8227,426.8477,l,1,0.3673,,0.3673,1,426.8478,427.3477,,,,,,9,MAS,WORD,DIS,150,tipo,,la,,427.3477,427.3479,0.024305556,-0.499305619,0,0,0,,0,1,1,8,1,sibo,,,,
,,,,,,5883a935c0c9a10001df6345,676192165fb32c2e1fb7aee6,67d15ef658710532218c3bf8,2025-03-12_11h24.30.003,Tarea de decisión léxica,2024.2.5,Win32,178.5714286,,,,,,,,,,,,,,,,,,,,,,,427.3482,428.4921,a,1,0.4867,,0.4867,1,428.4921,428.9921,,,,,,112,MAS,NOWORD,AGR,150,siro,,el,,428.9927,428.9931,0.024305556,-0.499305619,0,0,0,,0,2,2,111,1,muro,,,,
,,,,,,5883a935c0c9a10001df6345,676192165fb32c2e1fb7aee6,67d15ef658710532218c3bf8,2025-03-12_11h24.30.003,Tarea de decisión léxica,2024.2.5,Win32,178.5714286,,,,,,,,,,,,,,,,,,,,,,,428.9934,430.0032,l,1,0.3528,,0.3528,1,430.0033,430.5032,,,,,,279,FEM,WORD,AGR,150,prisa,,la,,430.5033,430.5033,0.024305556,-0.499305619,0,0,0,,0,3,3,278,1,grina,,,,
,,,,,,5883a935c0c9a10001df6345,676192165fb32c2e1fb7aee6,67d15ef658710532218c3bf8,2025-03-12_11h24.30.003,Tarea de decisión léxica,2024.2.5,Win32,178.5714286,,,,,,,,,,,,,,,,,,,,,,,430.5038,431.5365,a,1,0.3749,,0.3749,1,431.5365,432.0365,,,,,,80,FEM,NOWORD,AGR,150,ciel,,la,,432.0365,432.0366,0.024305556,-0.499305619,0,0,0,,0,4,4,79,1,piel,,,,
,,,,,,5883a935c0c9a10001df6345,676192165fb32c2e1fb7aee6,67d15ef658710532218c3bf8,2025-03-12_11h24.30.003,Tarea de decisión léxica,2024.2.5,Win32,178.5714286,,,,,,,,,,,,,,,,,,,,,,,432.0371,432.9976,a,1,0.3013,,0.3013,1,432.9977,433.4977,,,,,,258,FEM,NOWORD,DIS,150,asama,,el,,433.4977,433.4978,0.024305556,-0.499305619,0,0,0,,0,5,5,257,1,amiga,,,,
,,,,,,5883a935c0c9a10001df6345,676192165fb32c2e1fb7aee6,67d15ef658710532218c3bf8,2025-03-12_11h24.30.003,Tarea de decisión léxica,2024.2.5,Win32,178.5714286,,,,,,,,,,,,,,,,,,,,,,,433.4983,434.5087,l,1,0.3507,,0.3507,1,434.5087,435.0087,,,,,,301,FEM,WORD,DIS,150,banda,,el,,435.0088,435.0088,0.024305556,-0.499305619,0,0,0,,0,6,6,300,1,ranga,,,,
,,,,,,5883a935c0c9a10001df6345,676192165fb32c2e1fb7aee6,67d15ef658710532218c3bf8,2025-03-12_11h24.30.003,Tarea de decisión léxica,2024.2.5,Win32,178.5714286,,,,,,,,,,,,,,,,,,,,,,,435.0094,435.9642,l,1,0.2954,,0.2954,1,435.9644,436.4643,,,,,,391,MAS,WORD,DIS,150,dueño,,la,,436.4649,436.4653,0.024305556,-0.499305619,0,0,0,,0,7,7,390,1,dievo,,,,
,,,,,,5883a935c0c9a10001df6345,676192165fb32c2e1fb7aee6,67d15ef658710532218c3bf8,2025-03-12_11h24.30.003,Tarea de decisión léxica,2024.2.5,Win32,178.5714286,,,,,,,,,,,,,,,,,,,,,,,436.4658,437.4643,a,1,0.3402,,0.3402,1,437.4643,437.9643,,,,,,90,MAS,NOWORD,DIS,150,guso,,la,,437.9643,437.9643,0.024305556,-0.499305619,0,0,0,,0,8,8,89,1,humo,,,,
,,,,,,5883a935c0c9a10001df6345,676192165fb32c2e1fb7aee6,67d15ef658710532218c3bf8,2025-03-12_11h24.30.003,Tarea de decisión léxica,2024.2.5,Win32,178.5714286,,,,,,,,,,,,,,,,,,,,,,,437.9649,439.0142,a,1,0.3913,,0.3913,1,439.0143,439.5142,,,,,,196,FEM,NOWORD,AGR,150,sira,,la,,439.5143,439.5143,0.024305556,-0.499305619,0,0,0,,0,9,9,195,1,tela,,,,
,,,,,,5883a935c0c9a10001df6345,676192165fb32c2e1fb7aee6,67d15ef658710532218c3bf8,2025-03-12_11h24.30.003,Tarea de decisión léxica,2024.2.5,Win32,178.5714286,,,,,,,,,,,,,,,,,,,,,,,439.5148,440.5419,l,0,0.3707,,0.3707,0,440.5423,441.042,,,,,,454,FEM,NOWORD,DIS,150,pafia,,el,,441.042,441.0421,0.024305556,-0.499305619,0,0,0,,0,10,10,453,1,mafia,,,,
,,,,,,5883a935c0c9a10001df6345,676192165fb32c2e1fb7aee6,67d15ef658710532218c3bf8,2025-03-12_11h24.30.003,Tarea de decisión léxica,2024.2.5,Win32,178.5714286,,,,,,,,,,,,,,,,,,,,,,,441.0426,442.0642,l,1,0.3623,,0.3623,1,442.0646,442.5642,,,,,,57,MAS,WORD,AGR,150,dedo,,el,,442.5649,442.5652,0.024305556,-0.499305619,0,0,0,,0,11,11,56,1,heco,,,,
,,,,,,5883a935c0c9a10001df6345,676192165fb32c2e1fb7aee6,67d15ef658710532218c3bf8,2025-03-12_11h24.30.003,Tarea de decisión léxica,2024.2.5,Win32,178.5714286,,,,,,,,,,,,,,,,,,,,,,,442.5655,443.5086,l,1,0.286,,0.286,1,443.5087,444.0086,,,,,,223,FEM,WORD,AGR,150,cera,,la,,444.0086,444.0087,0.024305556,-0.499305619,0,0,0,,0,12,12,222,1,cira,,,,
,,,,,,5883a935c0c9a10001df6345,676192165fb32c2e1fb7aee6,67d15ef658710532218c3bf8,2025-03-12_11h24.30.003,Tarea de decisión léxica,2024.2.5,Win32,178.5714286,,,,,,,,,,,,,,,,,,,,,,,444.0091,445.0086,a,1,0.3418,,0.3418,1,445.0086,445.5085,,,,,,78,MAS,NOWORD,DIS,150,fodo,,la,,445.5086,445.5087,0.024305556,-0.499305619,0,0,0,,0,13,13,77,1,loco,,,,
,,,,,,5883a935c0c9a10001df6345,676192165fb32c2e1fb7aee6,67d15ef658710532218c3bf8,2025-03-12_11h24.30.003,Tarea de decisión léxica,2024.2.5,Win32,178.5714286,,,,,,,,,,,,,,,,,,,,,,,445.5091,446.5307,a,1,0.3649,,0.3649,1,446.5308,447.0308,,,,,,352,MAS,NOWORD,AGR,150,duepo,,el,,447.0308,447.0309,0.024305556,-0.499305619,0,0,0,,0,14,14,351,1,vuelo,,,,
,,,,,,5883a935c0c9a10001df6345,676192165fb32c2e1fb7aee6,67d15ef658710532218c3bf8,2025-03-12_11h24.30.003,Tarea de decisión léxica,2024.2.5,Win32,178.5714286,,,,,,,,,,,,,,,,,,,,,,,447.0313,448.0363,l,1,0.3478,,0.3478,1,448.0364,448.5363,,,,,,339,MAS,WORD,AGR,150,brazo,,el,,448.5364,448.5364,0.024305556,-0.499305619,0,0,0,,0,15,15,338,1,plajo,,,,
,,,,,,5883a935c0c9a10001df6345,676192165fb32c2e1fb7aee6,67d15ef658710532218c3bf8,2025-03-12_11h24.30.003,Tarea de decisión léxica,2024.2.5,Win32,178.5714286,,,,,,,,,,,,,,,,,,,,,,,448.5369,449.5029,a,1,0.3066,,0.3066,1,449.503,450.0029,,,,,,86,MAS,NOWORD,DIS,150,babo,,la,,450.0037,450.004,0.024305556,-0.499305619,0,0,0,,0,16,16,85,1,lago,,,,
,,,,,,5883a935c0c9a10001df6345,676192165fb32c2e1fb7aee6,67d15ef658710532218c3bf8,2025-03-12_11h24.30.003,Tarea de decisión léxica,2024.2.5,Win32,178.5714286,,,,,,,,,,,,,,,,,,,,,,,450.0043,451.0918,a,1,0.4324,,0.4324,1,451.0918,451.5918,,,,,,334,FEM,NOWORD,DIS,150,dalea,,el,,451.5918,451.592,0.024305556,-0.499305619,0,0,0,,0,17,17,333,1,tarea,,,,
,,,,,,5883a935c0c9a10001df6345,676192165fb32c2e1fb7aee6,67d15ef658710532218c3bf8,2025-03-12_11h24.30.003,Tarea de decisión léxica,2024.2.5,Win32,178.5714286,,,,,,,,,,,,,,,,,,,,,,,451.5924,452.5084,l,1,0.2582,,0.2582,1,452.5085,453.0085,,,,,,133,FEM,WORD,AGR,150,vaca,,la,,453.0085,453.0086,0.024305556,-0.499305619,0,0,0,,0,18,18,132,1,vesa,,,,
,,,,,,5883a935c0c9a10001df6345,676192165fb32c2e1fb7aee6,67d15ef658710532218c3bf8,2025-03-12_11h24.30.003,Tarea de decisión léxica,2024.2.5,Win32,178.5714286,,,,,,,,,,,,,,,,,,,,,,,453.009,454.0029,a,1,0.338,,0.338,1,454.003,454.5029,,,,,,148,FEM,NOWORD,AGR,150,pama,,la,,454.5029,454.503,0.024305556,-0.499305619,0,0,0,,0,19,19,147,1,hoja,,,,
,,,,,,5883a935c0c9a10001df6345,676192165fb32c2e1fb7aee6,67d15ef658710532218c3bf8,2025-03-12_11h24.30.003,Tarea de decisión léxica,2024.2.5,Win32,178.5714286,,,,,,,,,,,,,,,,,,,,,,,454.5035,455.4418,a,1,0.2805,,0.2805,1,455.4418,455.9418,,,,,,278,MAS,NOWORD,DIS,150,vuemo,,la,,455.9418,455.9419,0.024305556,-0.499305619,0,0,0,,0,20,20,277,1,fuego,,,,
,,,,,,5883a935c0c9a10001df6345,676192165fb32c2e1fb7aee6,67d15ef658710532218c3bf8,2025-03-12_11h24.30.003,Tarea de decisión léxica,2024.2.5,Win32,178.5714286,,,,,,,,,,,,,,,,,,,,,,,455.9423,456.8418,a,1,0.2428,,0.2428,1,456.8418,457.3418,,,,,,306,MAS,NOWORD,DIS,150,adiol,,la,,457.3423,457.3428,0.024305556,-0.499305619,0,0,0,,0,21,21,305,1,avión,,,,
,,,,,,5883a935c0c9a10001df6345,676192165fb32c2e1fb7aee6,67d15ef658710532218c3bf8,2025-03-12_11h24.30.003,Tarea de decisión léxica,2024.2.5,Win32,178.5714286,,,,,,,,,,,,,,,,,,,,,,,457.343,458.325,l,1,0.3251,,0.3251,1,458.3251,458.8251,,,,,,85,MAS,WORD,DIS,150,lago,,la,,458.8252,458.8253,0.024305556,-0.499305619,0,0,0,,0,22,22,84,1,babo,,,,
,,,,,,5883a935c0c9a10001df6345,676192165fb32c2e1fb7aee6,67d15ef658710532218c3bf8,2025-03-12_11h24.30.003,Tarea de decisión léxica,2024.2.5,Win32,178.5714286,,,,,,,,,,,,,,,,,,,,,,,458.8259,459.764,l,1,0.2799,,0.2799,1,459.764,460.2639,,,,,,469,MAS,WORD,DIS,150,patio,,la,,460.2639,460.264,0.024305556,-0.499305619,0,0,0,,0,23,23,468,1,matia,,,,
,,,,,,5883a935c0c9a10001df6345,676192165fb32c2e1fb7aee6,67d15ef658710532218c3bf8,2025-03-12_11h24.30.003,Tarea de decisión léxica,2024.2.5,Win32,178.5714286,,,,,,,,,,,,,,,,,,,,,,,460.2645,461.2306,l,1,0.3055,,0.3055,1,461.2307,461.7306,,,,,,159,MAS,WORD,DIS,150,giro,,la,,461.7306,461.7306,0.024305556,-0.499305619,0,0,0,,0,24,24,158,1,bilo,,,,
,,,,,,5883a935c0c9a10001df6345,676192165fb32c2e1fb7aee6,67d15ef658710532218c3bf8,2025-03-12_11h24.30.003,Tarea de decisión léxica,2024.2.5,Win32,178.5714286,,,,,,,,,,,,,,,,,,,,,,,461.7311,462.7306,a,1,0.3398,,0.3398,1,462.7307,463.2305,,,,,,132,FEM,NOWORD,AGR,150,fada,,la,,463.2306,463.2307,0.024305556,-0.499305619,0,0,0,,0,25,25,131,1,mina,,,,
,,,,,,5883a935c0c9a10001df6345,676192165fb32c2e1fb7aee6,67d15ef658710532218c3bf8,2025-03-12_11h24.30.003,Tarea de decisión léxica,2024.2.5,Win32,178.5714286,,,,,,,,,,,,,,,,,,,,,,,463.231,464.1861,l,1,0.2951,,0.2951,1,464.1862,464.6861,,,,,,423,MAS,WORD,AGR,150,queso,,el,,464.6867,464.6871,0.024305556,-0.499305619,0,0,0,,0,26,26,422,1,quigo,,,,
,,,,,,5883a935c0c9a10001df6345,676192165fb32c2e1fb7aee6,67d15ef658710532218c3bf8,2025-03-12_11h24.30.003,Tarea de decisión léxica,2024.2.5,Win32,178.5714286,,,,,,,,,,,,,,,,,,,,,,,464.6875,465.625,a,1,0.2806,,0.2806,1,465.625,466.1249,,,,,,200,MAS,NOWORD,AGR,150,fano,,el,,466.125,466.125,0.024305556,-0.499305619,0,0,0,,0,27,27,199,1,lazo,,,,
,,,,,,5883a935c0c9a10001df6345,676192165fb32c2e1fb7aee6,67d15ef658710532218c3bf8,2025-03-12_11h24.30.003,Tarea de decisión léxica,2024.2.5,Win32,178.5714286,,,,,,,,,,,,,,,,,,,,,,,466.1255,467.075,a,0,0.2917,,0.2917,0,467.0754,467.575,,,,,,135,MAS,WORD,AGR,150,tubo,,el,,467.575,467.575,0.024305556,-0.499305619,0,0,0,,0,28,28,134,1,geso,,,,
,,,,,,5883a935c0c9a10001df6345,676192165fb32c2e1fb7aee6,67d15ef658710532218c3bf8,2025-03-12_11h24.30.003,Tarea de decisión léxica,2024.2.5,Win32,178.5714286,,,,,,,,,,,,,,,,,,,,,,,467.5757,468.5694,a,1,0.338,,0.338,1,468.5698,469.0694,,,,,,58,MAS,NOWORD,DIS,150,heco,,la,,469.0694,469.0694,0.024305556,-0.499305619,0,0,0,,0,29,29,57,1,dedo,,,,
,,,,,,5883a935c0c9a10001df6345,676192165fb32c2e1fb7aee6,67d15ef658710532218c3bf8,2025-03-12_11h24.30.003,Tarea de decisión léxica,2024.2.5,Win32,178.5714286,,,,,,,,,,,,,,,,,,,,,,,469.07,470.2082,a,1,0.4806,,0.4806,1,470.2083,470.7082,,,,,,114,FEM,NOWORD,DIS,150,tada,,el,,470.7082,470.7083,0.024305556,-0.499305619,0,0,0,,0,30,30,113,1,miel,,,,
,,,,,,5883a935c0c9a10001df6345,676192165fb32c2e1fb7aee6,67d15ef658710532218c3bf8,2025-03-12_11h24.30.003,Tarea de decisión léxica,2024.2.5,Win32,178.5714286,,,,,,,,,,,,,,,,,,,,,,,470.7088,471.7582,a,1,0.3931,,0.3931,1,471.7583,472.2582,,,,,,14,FEM,NOWORD,DIS,150,nola,,el,,472.2588,472.2593,0.024305556,-0.499305619,0,0,0,,0,31,31,13,1,hora,,,,
,,,,,,5883a935c0c9a10001df6345,676192165fb32c2e1fb7aee6,67d15ef658710532218c3bf8,2025-03-12_11h24.30.003,Tarea de decisión léxica,2024.2.5,Win32,178.5714286,,,,,,,,,,,,,,,,,,,,,,,472.2596,473.2248,a,1,0.3083,,0.3083,1,473.2249,473.7249,,,,,,42,FEM,NOWORD,DIS,150,haje,,el,,473.7249,473.7249,0.024305556,-0.499305619,0,0,0,,0,32,32,41,1,nave,,,,
,,,,,,5883a935c0c9a10001df6345,676192165fb32c2e1fb7aee6,67d15ef658710532218c3bf8,2025-03-12_11h24.30.003,Tarea de decisión léxica,2024.2.5,Win32,178.5714286,,,,,,,,,,,,,,,,,,,,,,,473.7255,474.8693,a,1,0.4839,,0.4839,1,474.8694,475.3693,,,,,,406,FEM,NOWORD,DIS,150,rarra,,el,,475.3693,475.3694,0.024305556,-0.499305619,0,0,0,,0,33,33,405,1,barra,,,,
,,,,,,5883a935c0c9a10001df6345,676192165fb32c2e1fb7aee6,67d15ef658710532218c3bf8,2025-03-12_11h24.30.003,Tarea de decisión léxica,2024.2.5,Win32,178.5714286,,,,,,,,,,,,,,,,,,,,,,,475.3698,476.4025,l,1,0.3722,,0.3722,1,476.4026,476.9025,,,,,,89,MAS,WORD,DIS,150,humo,,la,,476.9026,476.9026,0.024305556,-0.499305619,0,0,0,,0,34,34,88,1,guso,,,,
,,,,,,5883a935c0c9a10001df6345,676192165fb32c2e1fb7aee6,67d15ef658710532218c3bf8,2025-03-12_11h24.30.003,Tarea de decisión léxica,2024.2.5,Win32,178.5714286,,,,,,,,,,,,,,,,,,,,,,,476.9033,478.0692,l,1,0.5087,,0.5087,1,478.0692,478.5692,,,,,,121,MAS,WORD,AGR,150,hoyo,,el,,478.5701,478.5704,0.024305556,-0.499305619,0,0,0,,0,35,35,120,1,bomo,,,,
,,,,,,5883a935c0c9a10001df6345,676192165fb32c2e1fb7aee6,67d15ef658710532218c3bf8,2025-03-12_11h24.30.003,Tarea de decisión léxica,2024.2.5,Win32,178.5714286,,,,,,,,,,,,,,,,,,,,,,,478.5708,479.5525,l,1,0.3249,,0.3249,1,479.5526,480.0525,,,,,,305,MAS,WORD,AGR,150,avión,,el,,480.0526,480.0526,0.024305556,-0.499305619,0,0,0,,0,36,36,304,1,adiol,,,,
,,,,,,5883a935c0c9a10001df6345,676192165fb32c2e1fb7aee6,67d15ef658710532218c3bf8,2025-03-12_11h24.30.003,Tarea de decisión léxica,2024.2.5,Win32,178.5714286,,,,,,,,,,,,,,,,,,,,,,,480.0531,481.0359,a,1,0.3236,,0.3236,1,481.036,481.5359,,,,,,326,FEM,NOWORD,DIS,150,mabia,,el,,481.5359,481.5359,0.024305556,-0.499305619,0,0,0,,0,37,37,325,1,magia,,,,
,,,,,,5883a935c0c9a10001df6345,676192165fb32c2e1fb7aee6,67d15ef658710532218c3bf8,2025-03-12_11h24.30.003,Tarea de decisión léxica,2024.2.5,Win32,178.5714286,,,,,,,,,,,,,,,,,,,,,,,481.5364,482.5915,l,1,0.3969,,0.3969,1,482.5915,483.0914,,,,,,23,FEM,WORD,AGR,150,hija,,la,,483.0915,483.0916,0.024305556,-0.499305619,0,0,0,,0,38,38,22,1,giva,,,,
,,,,,,5883a935c0c9a10001df6345,676192165fb32c2e1fb7aee6,67d15ef658710532218c3bf8,2025-03-12_11h24.30.003,Tarea de decisión léxica,2024.2.5,Win32,178.5714286,,,,,,,,,,,,,,,,,,,,,,,483.0921,484.0414,l,1,0.2925,,0.2925,1,484.0414,484.5414,,,,,,109,MAS,WORD,AGR,150,rayo,,el,,484.5414,484.5415,0.024305556,-0.499305619,0,0,0,,0,39,39,108,1,suno,,,,
,,,,,,5883a935c0c9a10001df6345,676192165fb32c2e1fb7aee6,67d15ef658710532218c3bf8,2025-03-12_11h24.30.003,Tarea de decisión léxica,2024.2.5,Win32,178.5714286,,,,,,,,,,,,,,,,,,,,,,,484.542,485.5914,a,1,0.3893,,0.3893,1,485.5914,486.0914,,,,,,242,MAS,NOWORD,DIS,150,mirdo,,la,,486.0922,486.0927,0.024305556,-0.499305619,0,0,0,,0,40,40,241,1,mundo,,,,
,,,,,,5883a935c0c9a10001df6345,676192165fb32c2e1fb7aee6,67d15ef658710532218c3bf8,2025-03-12_11h24.30.003,Tarea de decisión léxica,2024.2.5,Win32,178.5714286,,,,,,,,,,,,,,,,,,,,,,,486.093,487.2136,a,1,0.4629,,0.4629,1,487.2136,487.7136,,,,,,370,MAS,NOWORD,DIS,150,rioco,,la,,487.7136,487.7137,0.024305556,-0.499305619,0,0,0,,0,41,41,369,1,ruido,,,,
,,,,,,5883a935c0c9a10001df6345,676192165fb32c2e1fb7aee6,67d15ef658710532218c3bf8,2025-03-12_11h24.30.003,Tarea de decisión léxica,2024.2.5,Win32,178.5714286,,,,,,,,,,,,,,,,,,,,,,,487.7142,488.9414,a,1,0.5685,,0.5685,1,488.9415,489.4413,,,,,,30,MAS,NOWORD,DIS,150,pono,,la,,489.4413,489.4414,0.024305556,-0.499305619,0,0,0,,0,42,42,29,1,modo,,,,
,,,,,,5883a935c0c9a10001df6345,676192165fb32c2e1fb7aee6,67d15ef658710532218c3bf8,2025-03-12_11h24.30.003,Tarea de decisión léxica,2024.2.5,Win32,178.5714286,,,,,,,,,,,,,,,,,,,,,,,489.442,490.4357,l,1,0.3373,,0.3373,1,490.4358,490.9358,,,,,,17,FEM,WORD,DIS,150,mamá,,el,,490.9358,490.9359,0.024305556,-0.499305619,0,0,0,,0,43,43,16,1,paba,,,,
,,,,,,5883a935c0c9a10001df6345,676192165fb32c2e1fb7aee6,67d15ef658710532218c3bf8,2025-03-12_11h24.30.003,Tarea de decisión léxica,2024.2.5,Win32,178.5714286,,,,,,,,,,,,,,,,,,,,,,,490.9363,491.9914,a,1,0.3946,,0.3946,1,491.9914,492.4913,,,,,,470,MAS,NOWORD,DIS,150,matia,,la,,492.4913,492.4914,0.024305556,-0.499305619,0,0,0,,0,44,44,469,1,patio,,,,
,,,,,,5883a935c0c9a10001df6345,676192165fb32c2e1fb7aee6,67d15ef658710532218c3bf8,2025-03-12_11h24.30.003,Tarea de decisión léxica,2024.2.5,Win32,178.5714286,,,,,,,,,,,,,,,,,,,,,,,492.4921,493.5246,l,1,0.3726,,0.3726,1,493.5247,494.0246,,,,,,93,FEM,WORD,AGR,150,bola,,la,,494.0252,494.0255,0.024305556,-0.499305619,0,0,0,,0,45,45,92,1,rona,,,,
,,,,,,5883a935c0c9a10001df6345,676192165fb32c2e1fb7aee6,67d15ef658710532218c3bf8,2025-03-12_11h24.30.003,Tarea de decisión léxica,2024.2.5,Win32,178.5714286,,,,,,,,,,,,,,,,,,,,,,,494.0259,495.0913,l,0,0.4074,,0.4074,0,495.0917,495.5912,,,,,,276,MAS,NOWORD,AGR,150,musto,,el,,495.5912,495.5914,0.024305556,-0.499305619,0,0,0,,0,46,46,275,1,punto,,,,
,,,,,,5883a935c0c9a10001df6345,676192165fb32c2e1fb7aee6,67d15ef658710532218c3bf8,2025-03-12_11h24.30.003,Tarea de decisión léxica,2024.2.5,Win32,178.5714286,,,,,,,,,,,,,,,,,,,,,,,495.5919,496.8079,a,1,0.5561,,0.5561,1,496.8083,497.308,,,,,,420,MAS,NOWORD,AGR,150,chudo,,el,,497.308,497.3081,0.024305556,-0.499305619,0,0,0,,0,47,47,419,1,truco,,,,
,,,,,,5883a935c0c9a10001df6345,676192165fb32c2e1fb7aee6,67d15ef658710532218c3bf8,2025-03-12_11h24.30.003,Tarea de decisión léxica,2024.2.5,Win32,178.5714286,,,,,,,,,,,,,,,,,,,,,,,497.3085,498.4468,l,1,0.478,,0.478,1,498.4469,498.9468,,,,,,163,FEM,WORD,AGR,150,fama,,la,,498.9469,498.9469,0.024305556,-0.499305619,0,0,0,,0,48,48,162,1,laga,,,,
,,,,,,5883a935c0c9a10001df6345,676192165fb32c2e1fb7aee6,67d15ef658710532218c3bf8,2025-03-12_11h24.30.003,Tarea de decisión léxica,2024.2.5,Win32,178.5714286,,,,,,,,,,,,,,,,,,,,,,,498.9473,500.0523,l,1,0.4488,,0.4488,1,500.0523,500.5523,,,,,,431,MAS,WORD,DIS,150,motor,,la,,500.5523,500.5525,0.024305556,-0.499305619,0,0,0,,0,49,49,430,1,tetor,,,,
,,,,,,5883a935c0c9a10001df6345,676192165fb32c2e1fb7aee6,67d15ef658710532218c3bf8,2025-03-12_11h24.30.003,Tarea de decisión léxica,2024.2.5,Win32,178.5714286,,,,,,,,,,,,,,,,,,,,,,,500.5529,501.5578,l,1,0.3472,,0.3472,1,501.5579,502.0579,,,,,,475,FEM,WORD,DIS,150,manta,,el,,502.0583,502.0588,0.024305556,-0.499305619,0,0,0,,0,50,50,474,1,mucta,,,,
,,,,,,5883a935c0c9a10001df6345,676192165fb32c2e1fb7aee6,67d15ef658710532218c3bf8,2025-03-12_11h24.30.003,Tarea de decisión léxica,2024.2.5,Win32,178.5714286,,,,,,,,,,,,,,,,,,,,,,,502.0591,503.1634,l,0,0.4482,,0.4482,0,503.1638,503.6634,,,,,,64,FEM,NOWORD,AGR,150,funa,,la,,503.6634,503.6635,0.024305556,-0.499305619,0,0,0,,0,51,51,63,1,luna,,,,
,,,,,,5883a935c0c9a10001df6345,676192165fb32c2e1fb7aee6,67d15ef658710532218c3bf8,2025-03-12_11h24.30.003,Tarea de decisión léxica,2024.2.5,Win32,178.5714286,,,,,,,,,,,,,,,,,,,,,,,503.664,504.6356,l,1,0.3111,,0.3111,1,504.636,505.1356,,,,,,361,FEM,WORD,DIS,150,torre,,el,,505.1356,505.1356,0.024305556,-0.499305619,0,0,0,,0,52,52,360,1,solle,,,,
,,,,,,5883a935c0c9a10001df6345,676192165fb32c2e1fb7aee6,67d15ef658710532218c3bf8,2025-03-12_11h24.30.003,Tarea de decisión léxica,2024.2.5,Win32,178.5714286,,,,,,,,,,,,,,,,,,,,,,,505.1362,506.2356,a,1,0.4436,,0.4436,1,506.2357,506.7355,,,,,,362,FEM,NOWORD,DIS,150,solle,,el,,506.7356,506.7357,0.024305556,-0.499305619,0,0,0,,0,53,53,361,1,torre,,,,
,,,,,,5883a935c0c9a10001df6345,676192165fb32c2e1fb7aee6,67d15ef658710532218c3bf8,2025-03-12_11h24.30.003,Tarea de decisión léxica,2024.2.5,Win32,178.5714286,,,,,,,,,,,,,,,,,,,,,,,506.7361,507.7411,l,1,0.349,,0.349,1,507.7411,508.241,,,,,,271,FEM,WORD,AGR,150,señal,,la,,508.241,508.2411,0.024305556,-0.499305619,0,0,0,,0,54,54,270,1,refal,,,,
,,,,,,5883a935c0c9a10001df6345,676192165fb32c2e1fb7aee6,67d15ef658710532218c3bf8,2025-03-12_11h24.30.003,Tarea de decisión léxica,2024.2.5,Win32,178.5714286,,,,,,,,,,,,,,,,,,,,,,,508.2416,509.341,l,1,0.4436,,0.4436,1,509.3411,509.841,,,,,,63,FEM,WORD,AGR,150,luna,,la,,509.8417,509.842,0.024305556,-0.499305619,0,0,0,,0,55,55,62,1,funa,,,,
,,,,,,5883a935c0c9a10001df6345,676192165fb32c2e1fb7aee6,67d15ef658710532218c3bf8,2025-03-12_11h24.30.003,Tarea de decisión léxica,2024.2.5,Win32,178.5714286,,,,,,,,,,,,,,,,,,,,,,,509.8423,510.8744,l,1,0.3726,,0.3726,1,510.8744,511.3744,,,,,,265,FEM,WORD,DIS,150,mitad,,el,,511.3745,511.3746,0.024305556,-0.499305619,0,0,0,,0,56,56,264,1,pitat,,,,
,,,,,,5883a935c0c9a10001df6345,676192165fb32c2e1fb7aee6,67d15ef658710532218c3bf8,2025-03-12_11h24.30.003,Tarea de decisión léxica,2024.2.5,Win32,178.5714286,,,,,,,,,,,,,,,,,,,,,,,511.375,512.3578,l,1,0.3255,,0.3255,1,512.3578,512.8577,,,,,,451,FEM,WORD,AGR,150,fruta,,la,,512.8578,512.8578,0.024305556,-0.499305619,0,0,0,,0,57,57,450,1,clita,,,,
,,,,,,5883a935c0c9a10001df6345,676192165fb32c2e1fb7aee6,67d15ef658710532218c3bf8,2025-03-12_11h24.30.003,Tarea de decisión léxica,2024.2.5,Win32,178.5714286,,,,,,,,,,,,,,,,,,,,,,,512.8583,513.991,a,1,0.4756,,0.4756,1,513.9911,514.4911,,,,,,260,MAS,NOWORD,AGR,150,jaumo,,el,,514.4911,514.4912,0.024305556,-0.499305619,0,0,0,,0,58,58,259,1,juego,,,,
,,,,,,5883a935c0c9a10001df6345,676192165fb32c2e1fb7aee6,67d15ef658710532218c3bf8,2025-03-12_11h24.30.003,Tarea de decisión léxica,2024.2.5,Win32,178.5714286,,,,,,,,,,,,,,,,,,,,,,,514.4918,515.6079,l,1,0.4606,,0.4606,1,515.6079,516.1076,,,,,,245,FEM,WORD,AGR,150,madre,,la,,516.1082,516.1086,0.024305556,-0.499305619,0,0,0,,0,59,59,244,1,pafle,,,,
,,,,,,5883a935c0c9a10001df6345,676192165fb32c2e1fb7aee6,67d15ef658710532218c3bf8,2025-03-12_11h24.30.003,Tarea de decisión léxica,2024.2.5,Win32,178.5714286,,,,,,,,,,,,,,,,,,,,,,,516.1089,517.1188,l,1,0.3537,,0.3537,1,517.1188,517.6187,,,,,,115,FEM,WORD,DIS,150,pata,,el,,517.6188,517.6189,0.024305556,-0.499305619,0,0,0,,0,60,60,114,1,haca,,,,
,,,,,,5883a935c0c9a10001df6345,676192165fb32c2e1fb7aee6,67d15ef658710532218c3bf8,2025-03-12_11h24.30.003,Tarea de decisión léxica,2024.2.5,Win32,178.5714286,,,,,,,,,,,,,,,,,,,,,,,517.6193,518.6911,a,1,0.4159,,0.4159,1,518.6912,519.1909,,,,,,342,MAS,NOWORD,DIS,150,daror,,la,,519.191,519.191,0.024305556,-0.499305619,0,0,0,,0,61,61,341,1,valor,,,,
,,,,,,5883a935c0c9a10001df6345,676192165fb32c2e1fb7aee6,67d15ef658710532218c3bf8,2025-03-12_11h24.30.003,Tarea de decisión léxica,2024.2.5,Win32,178.5714286,,,,,,,,,,,,,,,,,,,,,,,519.1915,520.2132,l,1,0.3621,,0.3621,1,520.2132,520.7131,,,,,,95,FEM,WORD,DIS,151,moda,,el,,520.7132,520.7133,0.024305556,-0.499305619,0,0,0,,0,62,62,94,1,neda,,,,
,,,,,,5883a935c0c9a10001df6345,676192165fb32c2e1fb7aee6,67d15ef658710532218c3bf8,2025-03-12_11h24.30.003,Tarea de decisión léxica,2024.2.5,Win32,178.5714286,,,,,,,,,,,,,,,,,,,,,,,520.7137,521.8132,l,1,0.4411,,0.4411,1,521.8132,522.3132,,,,,,101,MAS,WORD,AGR,150,tono,,el,,522.3132,522.3132,0.024305556,-0.499305619,0,0,0,,0,63,63,100,1,gito,,,,
,,,,,,5883a935c0c9a10001df6345,676192165fb32c2e1fb7aee6,67d15ef658710532218c3bf8,2025-03-12_11h24.30.003,Tarea de decisión léxica,2024.2.5,Win32,178.5714286,,,,,,,,,,,,,,,,,,,,,,,522.3137,523.3631,a,1,0.3911,,0.3911,1,523.3632,523.8631,,,,,,294,MAS,NOWORD,DIS,150,cacso,,la,,523.8636,523.8642,0.024305556,-0.499305619,0,0,0,,0,64,64,293,1,campo,,,,
,,,,,,5883a935c0c9a10001df6345,676192165fb32c2e1fb7aee6,67d15ef658710532218c3bf8,2025-03-12_11h24.30.003,Tarea de decisión léxica,2024.2.5,Win32,178.5714286,,,,,,,,,,,,,,,,,,,,,,,523.8644,525.0742,a,1,0.5512,,0.5512,1,525.0742,525.5742,,,,,,392,MAS,NOWORD,AGR,150,dievo,,el,,525.5742,525.5743,0.024305556,-0.499305619,0,0,0,,0,65,65,391,1,dueño,,,,
,,,,,,5883a935c0c9a10001df6345,676192165fb32c2e1fb7aee6,67d15ef658710532218c3bf8,2025-03-12_11h24.30.003,Tarea de decisión léxica,2024.2.5,Win32,178.5714286,,,,,,,,,,,,,,,,,,,,,,,525.5748,526.5631,l,1,0.328,,0.328,1,526.5631,527.0631,,,,,,401,MAS,WORD,DIS,150,polvo,,la,,527.0631,527.0631,0.024305556,-0.499305619,0,0,0,,0,66,66,400,1,pirvo,,,,
,,,,,,5883a935c0c9a10001df6345,676192165fb32c2e1fb7aee6,67d15ef658710532218c3bf8,2025-03-12_11h24.30.003,Tarea de decisión léxica,2024.2.5,Win32,178.5714286,,,,,,,,,,,,,,,,,,,,,,,527.0637,528.1631,a,1,0.4426,,0.4426,1,528.1631,528.6631,,,,,,372,FEM,NOWORD,AGR,150,mosta,,la,,528.6632,528.6632,0.024305556,-0.499305619,0,0,0,,0,67,67,371,1,pasta,,,,
,,,,,,5883a935c0c9a10001df6345,676192165fb32c2e1fb7aee6,67d15ef658710532218c3bf8,2025-03-12_11h24.30.003,Tarea de decisión léxica,2024.2.5,Win32,178.5714286,,,,,,,,,,,,,,,,,,,,,,,528.6637,529.6241,l,1,0.3018,,0.3018,1,529.6242,530.1241,,,,,,367,MAS,WORD,DIS,150,reloj,,la,,530.1243,530.1243,0.024305556,-0.499305619,0,0,0,,0,68,68,366,1,rerob,,,,
,,,,,,5883a935c0c9a10001df6345,676192165fb32c2e1fb7aee6,67d15ef658710532218c3bf8,2025-03-12_11h24.30.003,Tarea de decisión léxica,2024.2.5,Win32,178.5714286,,,,,,,,,,,,,,,,,,,,,,,530.1247,531.0908,l,1,0.3101,,0.3101,1,531.0908,531.5908,,,,,,473,FEM,WORD,AGR,150,feria,,la,,531.5912,531.5917,0.024305556,-0.499305619,0,0,0,,0,69,69,472,1,felia,,,,
,,,,,,5883a935c0c9a10001df6345,676192165fb32c2e1fb7aee6,67d15ef658710532218c3bf8,2025-03-12_11h24.30.003,Tarea de decisión léxica,2024.2.5,Win32,178.5714286,,,,,,,,,,,,,,,,,,,,,,,531.5919,532.5797,a,1,0.3306,,0.3306,1,532.5797,533.0796,,,,,,22,MAS,NOWORD,DIS,150,blan,,la,,533.0796,533.0797,0.024305556,-0.499305619,0,0,0,,0,70,70,21,1,plan,,,,
,,,,,,5883a935c0c9a10001df6345,676192165fb32c2e1fb7aee6,67d15ef658710532218c3bf8,2025-03-12_11h24.30.003,Tarea de decisión léxica,2024.2.5,Win32,178.5714286,,,,,,,,,,,,,,,,,,,,,,,533.0802,534.1352,l,1,0.3967,,0.3967,1,534.1352,534.6351,,,,,,435,MAS,WORD,DIS,150,ritmo,,la,,534.6352,534.6352,0.024305556,-0.499305619,0,0,0,,0,71,71,434,1,ricno,,,,
,,,,,,5883a935c0c9a10001df6345,676192165fb32c2e1fb7aee6,67d15ef658710532218c3bf8,2025-03-12_11h24.30.003,Tarea de decisión léxica,2024.2.5,Win32,178.5714286,,,,,,,,,,,,,,,,,,,,,,,534.6358,535.6907,a,1,0.3962,,0.3962,1,535.6907,536.1907,,,,,,36,MAS,NOWORD,AGR,150,meno,,el,,536.1908,536.1908,0.024305556,-0.499305619,0,0,0,,0,72,72,35,1,pelo,,,,
,,,,,,5883a935c0c9a10001df6345,676192165fb32c2e1fb7aee6,67d15ef658710532218c3bf8,2025-03-12_11h24.30.003,Tarea de decisión léxica,2024.2.5,Win32,178.5714286,,,,,,,,,,,,,,,,,,,,,,,536.1914,537.1907,l,1,0.3423,,0.3423,1,537.1907,537.6907,,,,,,457,MAS,WORD,AGR,150,plato,,el,,537.6907,537.6907,0.024305556,-0.499305619,0,0,0,,0,73,73,456,1,glaco,,,,
,,,,,,5883a935c0c9a10001df6345,676192165fb32c2e1fb7aee6,67d15ef658710532218c3bf8,2025-03-12_11h24.30.003,Tarea de decisión léxica,2024.2.5,Win32,178.5714286,,,,,,,,,,,,,,,,,,,,,,,537.6913,538.6351,l,1,0.2873,,0.2873,1,538.6352,539.1351,,,,,,447,MAS,WORD,AGR,150,bolso,,el,,539.1358,539.1363,0.024305556,-0.499305619,0,0,0,,0,74,74,446,1,buaso,,,,
,,,,,,5883a935c0c9a10001df6345,676192165fb32c2e1fb7aee6,67d15ef658710532218c3bf8,2025-03-12_11h24.30.003,Tarea de decisión léxica,2024.2.5,Win32,178.5714286,,,,,,,,,,,,,,,,,,,,,,,539.1365,540.1184,l,1,0.3259,,0.3259,1,540.1185,540.6184,,,,,,337,MAS,WORD,DIS,150,huevo,,la,,540.6185,540.6185,0.024305556,-0.499305619,0,0,0,,0,75,75,336,1,nuejo,,,,
,,,,,,5883a935c0c9a10001df6345,676192165fb32c2e1fb7aee6,67d15ef658710532218c3bf8,2025-03-12_11h24.30.003,Tarea de decisión léxica,2024.2.5,Win32,178.5714286,,,,,,,,,,,,,,,,,,,,,,,540.619,541.6573,a,1,0.3795,,0.3795,1,541.6574,542.1574,,,,,,386,FEM,NOWORD,DIS,150,febra,,el,,542.1574,542.1574,0.024305556,-0.499305619,0,0,0,,0,76,76,385,1,letra,,,,
,,,,,,5883a935c0c9a10001df6345,676192165fb32c2e1fb7aee6,67d15ef658710532218c3bf8,2025-03-12_11h24.30.003,Tarea de decisión léxica,2024.2.5,Win32,178.5714286,,,,,,,,,,,,,,,,,,,,,,,542.1578,543.274,a,1,0.4556,,0.4556,1,543.274,543.7739,,,,,,156,FEM,NOWORD,AGR,150,luma,,la,,543.774,543.774,0.024305556,-0.499305619,0,0,0,,0,77,77,155,1,fuga,,,,
,,,,,,5883a935c0c9a10001df6345,676192165fb32c2e1fb7aee6,67d15ef658710532218c3bf8,2025-03-12_11h24.30.003,Tarea de decisión léxica,2024.2.5,Win32,178.5714286,,,,,,,,,,,,,,,,,,,,,,,543.7747,544.9128,a,1,0.4816,,0.4816,1,544.913,545.4128,,,,,,128,MAS,NOWORD,AGR,150,itio,,el,,545.4129,545.4129,0.024305556,-0.499305619,0,0,0,,0,78,78,127,1,pico,,,,
,,,,,,5883a935c0c9a10001df6345,676192165fb32c2e1fb7aee6,67d15ef658710532218c3bf8,2025-03-12_11h24.30.003,Tarea de decisión léxica,2024.2.5,Win32,178.5714286,,,,,,,,,,,,,,,,,,,,,,,545.4136,546.3573,a,0,0.2838,,0.2838,0,546.3577,546.8573,,,,,,399,MAS,WORD,AGR,150,techo,,el,,546.8579,546.8584,0.024305556,-0.499305619,0,0,0,,0,79,79,398,1,serro,,,,
,,,,,,5883a935c0c9a10001df6345,676192165fb32c2e1fb7aee6,67d15ef658710532218c3bf8,2025-03-12_11h24.30.003,Tarea de decisión léxica,2024.2.5,Win32,178.5714286,,,,,,,,,,,,,,,,,,,,,,,546.8586,547.7628,l,1,0.2449,,0.2449,1,547.7633,548.2628,,,,,,7,MAS,WORD,AGR,150,hijo,,el,,548.2628,548.2629,0.024305556,-0.499305619,0,0,0,,0,80,80,6,1,nivo,,,,
,,,,,,5883a935c0c9a10001df6345,676192165fb32c2e1fb7aee6,67d15ef658710532218c3bf8,2025-03-12_11h24.30.003,Tarea de decisión léxica,2024.2.5,Win32,178.5714286,,,,,,,,,,,,,,,,,,,,,,,548.2635,549.3016,a,1,0.3812,,0.3812,1,549.3017,549.8017,,,,,,70,FEM,NOWORD,DIS,150,ñola,,el,,549.8017,549.8017,0.024305556,-0.499305619,0,0,0,,0,81,81,69,1,zona,,,,
,,,,,,5883a935c0c9a10001df6345,676192165fb32c2e1fb7aee6,67d15ef658710532218c3bf8,2025-03-12_11h24.30.003,Tarea de decisión léxica,2024.2.5,Win32,178.5714286,,,,,,,,,,,,,,,,,,,,,,,549.8022,550.8239,l,1,0.3656,,0.3656,1,550.824,551.3239,,,,,,113,FEM,WORD,AGR,150,miel,,la,,551.324,551.324,0.024305556,-0.499305619,0,0,0,,0,82,82,112,1,tada,,,,
,,,,,,5883a935c0c9a10001df6345,676192165fb32c2e1fb7aee6,67d15ef658710532218c3bf8,2025-03-12_11h24.30.003,Tarea de decisión léxica,2024.2.5,Win32,178.5714286,,,,,,,,,,,,,,,,,,,,,,,551.3245,552.5072,a,1,0.5226,,0.5226,1,552.5072,553.0072,,,,,,262,MAS,NOWORD,DIS,150,titio,,la,,553.0077,553.0081,0.024305556,-0.499305619,0,0,0,,0,83,83,261,1,sitio,,,,
,,,,,,5883a935c0c9a10001df6345,676192165fb32c2e1fb7aee6,67d15ef658710532218c3bf8,2025-03-12_11h24.30.003,Tarea de decisión léxica,2024.2.5,Win32,178.5714286,,,,,,,,,,,,,,,,,,,,,,,553.0084,553.9738,l,1,0.3084,,0.3084,1,553.9738,554.4739,,,,,,341,MAS,WORD,DIS,150,valor,,la,,554.4739,554.4739,0.024305556,-0.499305619,0,0,0,,0,84,84,340,1,daror,,,,
,,,,,,5883a935c0c9a10001df6345,676192165fb32c2e1fb7aee6,67d15ef658710532218c3bf8,2025-03-12_11h24.30.003,Tarea de decisión léxica,2024.2.5,Win32,178.5714286,,,,,,,,,,,,,,,,,,,,,,,554.4744,555.5627,a,1,0.43,,0.43,1,555.5627,556.0627,,,,,,304,MAS,NOWORD,AGR,150,lanco,,el,,556.0627,556.0628,0.024305556,-0.499305619,0,0,0,,0,85,85,303,1,barco,,,,
,,,,,,5883a935c0c9a10001df6345,676192165fb32c2e1fb7aee6,67d15ef658710532218c3bf8,2025-03-12_11h24.30.003,Tarea de decisión léxica,2024.2.5,Win32,178.5714286,,,,,,,,,,,,,,,,,,,,,,,556.0632,557.046,a,1,0.3231,,0.3231,1,557.046,557.546,,,,,,46,FEM,NOWORD,DIS,150,pema,,el,,557.546,557.5461,0.024305556,-0.499305619,0,0,0,,0,86,86,45,1,mesa,,,,
,,,,,,5883a935c0c9a10001df6345,676192165fb32c2e1fb7aee6,67d15ef658710532218c3bf8,2025-03-12_11h24.30.003,Tarea de decisión léxica,2024.2.5,Win32,178.5714286,,,,,,,,,,,,,,,,,,,,,,,557.5466,558.5683,l,1,0.3643,,0.3643,1,558.5683,559.0682,,,,,,233,FEM,WORD,AGR,150,lana,,la,,559.0682,559.0682,0.024305556,-0.499305619,0,0,0,,0,87,87,232,1,fasa,,,,
,,,,,,5883a935c0c9a10001df6345,676192165fb32c2e1fb7aee6,67d15ef658710532218c3bf8,2025-03-12_11h24.30.003,Tarea de decisión léxica,2024.2.5,Win32,178.5714286,,,,,,,,,,,,,,,,,,,,,,,559.0687,559.9849,l,1,0.2562,,0.2562,1,559.9849,560.4849,,,,,,319,MAS,WORD,AGR,150,suelo,,el,,560.4854,560.4858,0.024305556,-0.499305619,0,0,0,,0,88,88,318,1,tuero,,,,
,,,,,,5883a935c0c9a10001df6345,676192165fb32c2e1fb7aee6,67d15ef658710532218c3bf8,2025-03-12_11h24.30.003,Tarea de decisión léxica,2024.2.5,Win32,178.5714286,,,,,,,,,,,,,,,,,,,,,,,560.4861,561.5181,a,1,0.3764,,0.3764,1,561.5182,562.0182,,,,,,138,MAS,NOWORD,DIS,150,pamo,,la,,562.0183,562.0183,0.024305556,-0.499305619,0,0,0,,0,89,89,137,1,nene,,,,
,,,,,,5883a935c0c9a10001df6345,676192165fb32c2e1fb7aee6,67d15ef658710532218c3bf8,2025-03-12_11h24.30.003,Tarea de decisión léxica,2024.2.5,Win32,178.5714286,,,,,,,,,,,,,,,,,,,,,,,562.0188,563.0182,a,1,0.3394,,0.3394,1,563.0183,563.5181,,,,,,240,MAS,NOWORD,AGR,150,poño,,el,,563.5181,563.5182,0.024305556,-0.499305619,0,0,0,,0,90,90,239,1,mozo,,,,
,,,,,,5883a935c0c9a10001df6345,676192165fb32c2e1fb7aee6,67d15ef658710532218c3bf8,2025-03-12_11h24.30.003,Tarea de decisión léxica,2024.2.5,Win32,178.5714286,,,,,,,,,,,,,,,,,,,,,,,563.5187,564.6293,a,1,0.4503,,0.4503,1,564.6293,565.1293,,,,,,474,FEM,NOWORD,DIS,150,felia,,el,,565.1293,565.1294,0.024305556,-0.499305619,0,0,0,,0,91,91,473,1,feria,,,,
,,,,,,5883a935c0c9a10001df6345,676192165fb32c2e1fb7aee6,67d15ef658710532218c3bf8,2025-03-12_11h24.30.003,Tarea de decisión léxica,2024.2.5,Win32,178.5714286,,,,,,,,,,,,,,,,,,,,,,,565.1298,566.1848,l,1,0.3988,,0.3988,1,566.1849,566.6848,,,,,,377,MAS,WORD,DIS,150,hielo,,la,,566.6848,566.6849,0.024305556,-0.499305619,0,0,0,,0,92,92,376,1,gaulo,,,,
,,,,,,5883a935c0c9a10001df6345,676192165fb32c2e1fb7aee6,67d15ef658710532218c3bf8,2025-03-12_11h24.30.003,Tarea de decisión léxica,2024.2.5,Win32,178.5714286,,,,,,,,,,,,,,,,,,,,,,,566.6853,567.6625,a,1,0.3167,,0.3167,1,567.6626,568.1625,,,,,,308,MAS,NOWORD,AGR,150,holol,,el,,568.163,568.1634,0.024305556,-0.499305619,0,0,0,,0,93,93,307,1,hotel,,,,
,,,,,,5883a935c0c9a10001df6345,676192165fb32c2e1fb7aee6,67d15ef658710532218c3bf8,2025-03-12_11h24.30.003,Tarea de decisión léxica,2024.2.5,Win32,178.5714286,,,,,,,,,,,,,,,,,,,,,,,568.1637,569.1292,a,1,0.3077,,0.3077,1,569.1293,569.6292,,,,,,76,MAS,NOWORD,AGR,150,ocer,,el,,569.6292,569.6293,0.024305556,-0.499305619,0,0,0,,0,94,94,75,1,olor,,,,
,,,,,,5883a935c0c9a10001df6345,676192165fb32c2e1fb7aee6,67d15ef658710532218c3bf8,2025-03-12_11h24.30.003,Tarea de decisión léxica,2024.2.5,Win32,178.5714286,,,,,,,,,,,,,,,,,,,,,,,569.6298,570.6125,l,1,0.3233,,0.3233,1,570.6125,571.1125,,,,,,419,MAS,WORD,AGR,150,truco,,el,,571.1125,571.1126,0.024305556,-0.499305619,0,0,0,,0,95,95,418,1,chudo,,,,
,,,,,,5883a935c0c9a10001df6345,676192165fb32c2e1fb7aee6,67d15ef658710532218c3bf8,2025-03-12_11h24.30.003,Tarea de decisión léxica,2024.2.5,Win32,178.5714286,,,,,,,,,,,,,,,,,,,,,,,571.113,572.1792,a,1,0.4091,,0.4091,1,572.1793,572.6791,,,,,,92,FEM,NOWORD,AGR,150,sava,,la,,572.6792,572.6793,0.024305556,-0.499305619,0,0,0,,0,96,96,91,1,taza,,,,
,,,,,,5883a935c0c9a10001df6345,676192165fb32c2e1fb7aee6,67d15ef658710532218c3bf8,2025-03-12_11h24.30.003,Tarea de decisión léxica,2024.2.5,Win32,178.5714286,,,,,,,,,,,,,,,,,,,,,,,572.6797,573.6902,a,1,0.3527,,0.3527,1,573.6903,574.1902,,,,,,10,MAS,NOWORD,DIS,150,sibo,,la,,574.1903,574.1903,0.024305556,-0.499305619,0,0,0,,0,97,97,9,1,tipo,,,,
,,,,,,5883a935c0c9a10001df6345,676192165fb32c2e1fb7aee6,67d15ef658710532218c3bf8,2025-03-12_11h24.30.003,Tarea de decisión léxica,2024.2.5,Win32,178.5714286,,,,,,,,,,,,,,,,,,,,,,,574.1908,575.1125,a,1,0.265,,0.265,1,575.1125,575.6125,,,,,,108,MAS,NOWORD,AGR,150,raot,,el,,575.613,575.6133,0.024305556,-0.499305619,0,0,0,,0,98,98,107,1,saco,,,,
,,,,,,5883a935c0c9a10001df6345,676192165fb32c2e1fb7aee6,67d15ef658710532218c3bf8,2025-03-12_11h24.30.003,Tarea de decisión léxica,2024.2.5,Win32,178.5714286,,,,,,,,,,,,,,,,,,,,,,,575.6136,576.6125,l,1,0.3389,,0.3389,1,576.6125,577.1124,,,,,,171,MAS,WORD,AGR,150,hilo,,el,,577.1125,577.1125,0.024305556,-0.499305619,0,0,0,,0,99,99,170,1,niro,,,,
,,,,,,5883a935c0c9a10001df6345,676192165fb32c2e1fb7aee6,67d15ef658710532218c3bf8,2025-03-12_11h24.30.003,Tarea de decisión léxica,2024.2.5,Win32,178.5714286,,,,,,,,,,,,,,,,,,,,,,,577.1131,578.3457,l,1,0.5759,,0.5759,1,578.3457,578.8457,,,,,,181,FEM,WORD,DIS,150,seda,,el,,578.8457,578.8457,0.024305556,-0.499305619,0,0,0,,0,100,100,180,1,teda,,,,
,,,,,,5883a935c0c9a10001df6345,676192165fb32c2e1fb7aee6,67d15ef658710532218c3bf8,2025-03-12_11h24.30.003,Tarea de decisión léxica,2024.2.5,Win32,178.5714286,,,,,,,,,,,,,,,,,,,,,,,578.8462,579.8569,l,1,0.3528,,0.3528,1,579.8569,580.3568,,,,,,79,FEM,WORD,AGR,150,piel,,la,,580.3569,580.3569,0.024305556,-0.499305619,0,0,0,,0,101,101,78,1,ciel,,,,
,,,,,,5883a935c0c9a10001df6345,676192165fb32c2e1fb7aee6,67d15ef658710532218c3bf8,2025-03-12_11h24.30.003,Tarea de decisión léxica,2024.2.5,Win32,178.5714286,,,,,,,,,,,,,,,,,,,,,,,580.3574,581.3457,a,1,0.3289,,0.3289,1,581.3458,581.8457,,,,,,436,MAS,NOWORD,AGR,150,ricno,,el,,581.8457,581.8458,0.024305556,-0.499305619,0,0,0,,0,102,102,435,1,ritmo,,,,
,,,,,,5883a935c0c9a10001df6345,676192165fb32c2e1fb7aee6,67d15ef658710532218c3bf8,2025-03-12_11h24.30.003,Tarea de decisión léxica,2024.2.5,Win32,178.5714286,,,,,,,,,,,,,,,,,,,,,,,581.8462,582.8293,l,1,0.3271,,0.3271,1,582.8293,583.329,,,,,,47,MAS,WORD,AGR,150,club,,el,,583.3296,583.33,0.024305556,-0.499305619,0,0,0,,0,103,103,46,1,chub,,,,
,,,,,,5883a935c0c9a10001df6345,676192165fb32c2e1fb7aee6,67d15ef658710532218c3bf8,2025-03-12_11h24.30.003,Tarea de decisión léxica,2024.2.5,Win32,178.5714286,,,,,,,,,,,,,,,,,,,,,,,583.3306,584.2623,a,1,0.2724,,0.2724,1,584.2623,584.7623,,,,,,182,FEM,NOWORD,DIS,150,teda,,el,,584.7624,584.7624,0.024305556,-0.499305619,0,0,0,,0,104,104,181,1,seda,,,,
,,,,,,5883a935c0c9a10001df6345,676192165fb32c2e1fb7aee6,67d15ef658710532218c3bf8,2025-03-12_11h24.30.003,Tarea de decisión léxica,2024.2.5,Win32,178.5714286,,,,,,,,,,,,,,,,,,,,,,,584.763,585.7178,a,1,0.2987,,0.2987,1,585.7179,586.2179,,,,,,40,MAS,NOWORD,AGR,150,redo,,el,,586.2179,586.2181,0.024305556,-0.499305619,0,0,0,,0,105,105,39,1,voto,,,,
,,,,,,5883a935c0c9a10001df6345,676192165fb32c2e1fb7aee6,67d15ef658710532218c3bf8,2025-03-12_11h24.30.003,Tarea de decisión léxica,2024.2.5,Win32,178.5714286,,,,,,,,,,,,,,,,,,,,,,,586.2184,587.1679,a,1,0.2893,,0.2893,1,587.1679,587.6678,,,,,,4,FEM,NOWORD,AGR,150,dica,,la,,587.6679,587.6679,0.024305556,-0.499305619,0,0,0,,0,106,106,3,1,vida,,,,
,,,,,,5883a935c0c9a10001df6345,676192165fb32c2e1fb7aee6,67d15ef658710532218c3bf8,2025-03-12_11h24.30.003,Tarea de decisión léxica,2024.2.5,Win32,178.5714286,,,,,,,,,,,,,,,,,,,,,,,587.6686,588.6623,a,1,0.3354,,0.3354,1,588.6623,589.1622,,,,,,458,MAS,NOWORD,DIS,150,glaco,,la,,589.1629,589.1633,0.024305556,-0.499305619,0,0,0,,0,107,107,457,1,plato,,,,
,,,,,,5883a935c0c9a10001df6345,676192165fb32c2e1fb7aee6,67d15ef658710532218c3bf8,2025-03-12_11h24.30.003,Tarea de decisión léxica,2024.2.5,Win32,178.5714286,,,,,,,,,,,,,,,,,,,,,,,589.1637,590.0567,a,1,0.2334,,0.2334,1,590.0568,590.5568,,,,,,374,FEM,NOWORD,DIS,150,pogza,,el,,590.5568,590.5568,0.024305556,-0.499305619,0,0,0,,0,108,108,373,1,pizza,,,,
,,,,,,5883a935c0c9a10001df6345,676192165fb32c2e1fb7aee6,67d15ef658710532218c3bf8,2025-03-12_11h24.30.003,Tarea de decisión léxica,2024.2.5,Win32,178.5714286,,,,,,,,,,,,,,,,,,,,,,,590.5573,591.4567,a,1,0.2392,,0.2392,1,591.4568,591.9567,,,,,,152,MAS,NOWORD,AGR,150,sogo,,el,,591.9567,591.9568,0.024305556,-0.499305619,0,0,0,,0,109,109,151,1,tomo,,,,
,,,,,,5883a935c0c9a10001df6345,676192165fb32c2e1fb7aee6,67d15ef658710532218c3bf8,2025-03-12_11h24.30.003,Tarea de decisión léxica,2024.2.5,Win32,178.5714286,,,,,,,,,,,,,,,,,,,,,,,591.9572,592.9123,a,1,0.2993,,0.2993,1,592.9124,593.4122,,,,,,290,FEM,NOWORD,DIS,150,bumpa,,el,,593.4122,593.4122,0.024305556,-0.499305619,0,0,0,,0,110,110,289,1,bomba,,,,
,,,,,,5883a935c0c9a10001df6345,676192165fb32c2e1fb7aee6,67d15ef658710532218c3bf8,2025-03-12_11h24.30.003,Tarea de decisión léxica,2024.2.5,Win32,178.5714286,,,,,,,,,,,,,,,,,,,,,,,593.4129,594.5789,l,1,0.5088,,0.5088,1,594.5789,595.0789,,,,,,287,FEM,WORD,DIS,150,lista,,el,,595.0789,595.079,0.024305556,-0.499305619,0,0,0,,0,111,111,286,1,fosta,,,,
,,,,,,5883a935c0c9a10001df6345,676192165fb32c2e1fb7aee6,67d15ef658710532218c3bf8,2025-03-12_11h24.30.003,Tarea de decisión léxica,2024.2.5,Win32,178.5714286,,,,,,,,,,,,,,,,,,,,,,,595.0795,596.1068,l,1,0.3714,,0.3714,1,596.1068,596.6066,,,,,,293,MAS,WORD,AGR,150,campo,,el,,596.6072,596.6075,0.024305556,-0.499305619,0,0,0,,0,112,112,292,1,cacso,,,,
,,,,,,5883a935c0c9a10001df6345,676192165fb32c2e1fb7aee6,67d15ef658710532218c3bf8,2025-03-12_11h24.30.003,Tarea de decisión léxica,2024.2.5,Win32,178.5714286,,,,,,,,,,,,,,,,,,,,,,,596.6078,597.6289,a,1,0.3629,,0.3629,1,597.6289,598.1289,,,,,,186,MAS,NOWORD,DIS,150,raol,,la,,598.1289,598.129,0.024305556,-0.499305619,0,0,0,,0,113,113,185,1,baúl,,,,
,,,,,,5883a935c0c9a10001df6345,676192165fb32c2e1fb7aee6,67d15ef658710532218c3bf8,2025-03-12_11h24.30.003,Tarea de decisión léxica,2024.2.5,Win32,178.5714286,,,,,,,,,,,,,,,,,,,,,,,598.1295,599.1121,l,1,0.3236,,0.3236,1,599.1122,599.6121,,,,,,213,FEM,WORD,AGR,150,rama,,la,,599.6121,599.6121,0.024305556,-0.499305619,0,0,0,,0,114,114,212,1,bana,,,,
,,,,,,5883a935c0c9a10001df6345,676192165fb32c2e1fb7aee6,67d15ef658710532218c3bf8,2025-03-12_11h24.30.003,Tarea de decisión léxica,2024.2.5,Win32,178.5714286,,,,,,,,,,,,,,,,,,,,,,,599.6127,600.5621,a,1,0.2916,,0.2916,1,600.5622,601.0622,,,,,,162,MAS,NOWORD,DIS,150,bopo,,la,,601.0622,601.0622,0.024305556,-0.499305619,0,0,0,,0,115,115,161,1,coro,,,,
,,,,,,5883a935c0c9a10001df6345,676192165fb32c2e1fb7aee6,67d15ef658710532218c3bf8,2025-03-12_11h24.30.003,Tarea de decisión léxica,2024.2.5,Win32,178.5714286,,,,,,,,,,,,,,,,,,,,,,,601.0626,602.0566,l,1,0.3337,,0.3337,1,602.0567,602.5566,,,,,,49,FEM,WORD,DIS,150,edad,,el,,602.5567,602.5567,0.024305556,-0.499305619,0,0,0,,0,116,116,48,1,ecat,,,,
,,,,,,5883a935c0c9a10001df6345,676192165fb32c2e1fb7aee6,67d15ef658710532218c3bf8,2025-03-12_11h24.30.003,Tarea de decisión léxica,2024.2.5,Win32,178.5714286,,,,,,,,,,,,,,,,,,,,,,,602.5571,603.6121,a,1,0.3957,,0.3957,1,603.6122,604.1121,,,,,,462,FEM,NOWORD,DIS,150,pagra,,el,,604.1125,604.1128,0.024305556,-0.499305619,0,0,0,,0,117,117,461,1,tabla,,,,
,,,,,,5883a935c0c9a10001df6345,676192165fb32c2e1fb7aee6,67d15ef658710532218c3bf8,2025-03-12_11h24.30.003,Tarea de decisión léxica,2024.2.5,Win32,178.5714286,,,,,,,,,,,,,,,,,,,,,,,604.1131,605.0731,a,1,0.3002,,0.3002,1,605.0732,605.5732,,,,,,442,FEM,NOWORD,DIS,150,telza,,el,,605.5732,605.5733,0.024305556,-0.499305619,0,0,0,,0,118,118,441,1,selva,,,,
,,,,,,5883a935c0c9a10001df6345,676192165fb32c2e1fb7aee6,67d15ef658710532218c3bf8,2025-03-12_11h24.30.003,Tarea de decisión léxica,2024.2.5,Win32,178.5714286,,,,,,,,,,,,,,,,,,,,,,,605.5737,606.5177,a,1,0.2853,,0.2853,1,606.5177,607.0176,,,,,,122,MAS,NOWORD,DIS,150,bomo,,la,,607.0177,607.0177,0.024305556,-0.499305619,0,0,0,,0,119,119,121,1,hoyo,,,,
,,,,,,5883a935c0c9a10001df6345,676192165fb32c2e1fb7aee6,67d15ef658710532218c3bf8,2025-03-12_11h24.30.003,Tarea de decisión léxica,2024.2.5,Win32,178.5714286,,,,,,,,,,,,,,,,,,,,,,,607.0182,608.1787,l,1,0.5012,,0.5012,1,608.1788,608.6787,,,,,,103,FEM,WORD,AGR,150,ruta,,la,,608.6787,608.6788,0.024305556,-0.499305619,0,0,0,,0,120,120,102,1,rova,,,,
,,,,,,5883a935c0c9a10001df6345,676192165fb32c2e1fb7aee6,67d15ef658710532218c3bf8,2025-03-12_11h24.30.003,Tarea de decisión léxica,2024.2.5,Win32,178.5714286,,,,,,,,,,,,,,,,,,,,,,,608.6793,609.6509,a,0,0.3143,,0.3143,0,609.6513,610.1508,,,,,,73,MAS,WORD,AGR,150,odio,,el,,610.1509,610.1509,0.024305556,-0.499305619,0,0,0,,0,121,121,72,1,omio,,,,
,,,,,,5883a935c0c9a10001df6345,676192165fb32c2e1fb7aee6,67d15ef658710532218c3bf8,2025-03-12_11h24.30.003,Tarea de decisión léxica,2024.2.5,Win32,178.5714286,,,,,,,,,,,,,,,,,,,,,,,610.1514,611.1953,a,1,0.3843,,0.3843,1,611.1957,611.6953,,,,,,178,MAS,NOWORD,DIS,150,bito,,la,,611.6959,611.6962,0.024305556,-0.499305619,0,0,0,,0,122,122,177,1,reto,,,,
,,,,,,5883a935c0c9a10001df6345,676192165fb32c2e1fb7aee6,67d15ef658710532218c3bf8,2025-03-12_11h24.30.003,Tarea de decisión léxica,2024.2.5,Win32,178.5714286,,,,,,,,,,,,,,,,,,,,,,,611.6965,612.662,l,1,0.3088,,0.3088,1,612.662,613.162,,,,,,465,FEM,WORD,AGR,150,aguja,,la,,613.162,613.1622,0.024305556,-0.499305619,0,0,0,,0,123,123,464,1,asuba,,,,
,,,,,,5883a935c0c9a10001df6345,676192165fb32c2e1fb7aee6,67d15ef658710532218c3bf8,2025-03-12_11h24.30.003,Tarea de decisión léxica,2024.2.5,Win32,178.5714286,,,,,,,,,,,,,,,,,,,,,,,613.1626,614.1119,l,1,0.2889,,0.2889,1,614.1121,614.6119,,,,,,383,FEM,WORD,DIS,150,frase,,el,,614.612,614.612,0.024305556,-0.499305619,0,0,0,,0,124,124,382,1,brame,,,,
,,,,,,5883a935c0c9a10001df6345,676192165fb32c2e1fb7aee6,67d15ef658710532218c3bf8,2025-03-12_11h24.30.003,Tarea de decisión léxica,2024.2.5,Win32,178.5714286,,,,,,,,,,,,,,,,,,,,,,,614.6125,615.5565,a,1,0.2843,,0.2843,1,615.5565,616.0564,,,,,,418,FEM,NOWORD,DIS,150,banja,,el,,616.0565,616.0565,0.024305556,-0.499305619,0,0,0,,0,125,125,417,1,barba,,,,
,,,,,,5883a935c0c9a10001df6345,676192165fb32c2e1fb7aee6,67d15ef658710532218c3bf8,2025-03-12_11h24.30.003,Tarea de decisión léxica,2024.2.5,Win32,178.5714286,,,,,,,,,,,,,,,,,,,,,,,616.057,617.0175,l,1,0.3004,,0.3004,1,617.0176,617.5175,,,,,,349,MAS,WORD,AGR,150,color,,el,,617.5175,617.5175,0.024305556,-0.499305619,0,0,0,,0,126,126,348,1,cosir,,,,
,,,,,,5883a935c0c9a10001df6345,676192165fb32c2e1fb7aee6,67d15ef658710532218c3bf8,2025-03-12_11h24.30.003,Tarea de decisión léxica,2024.2.5,Win32,178.5714286,,,,,,,,,,,,,,,,,,,,,,,617.518,618.5063,a,1,0.3312,,0.3312,1,618.5064,619.0064,,,,,,428,FEM,NOWORD,AGR,150,oseva,,la,,619.007,619.0075,0.024305556,-0.499305619,0,0,0,,0,127,127,427,1,oreja,,,,
,,,,,,5883a935c0c9a10001df6345,676192165fb32c2e1fb7aee6,67d15ef658710532218c3bf8,2025-03-12_11h24.30.003,Tarea de decisión léxica,2024.2.5,Win32,178.5714286,,,,,,,,,,,,,,,,,,,,,,,619.0077,620.1119,l,1,0.4476,,0.4476,1,620.1119,620.6119,,,,,,353,FEM,WORD,AGR,150,celda,,la,,620.6119,620.612,0.024305556,-0.499305619,0,0,0,,0,128,128,352,1,cezca,,,,
,,,,,,5883a935c0c9a10001df6345,676192165fb32c2e1fb7aee6,67d15ef658710532218c3bf8,2025-03-12_11h24.30.003,Tarea de decisión léxica,2024.2.5,Win32,178.5714286,,,,,,,,,,,,,,,,,,,,,,,620.6124,621.5618,a,1,0.2935,,0.2935,1,621.5619,622.0619,,,,,,116,FEM,NOWORD,AGR,150,haca,,la,,622.0619,622.0619,0.024305556,-0.499305619,0,0,0,,0,129,129,115,1,pata,,,,
,,,,,,5883a935c0c9a10001df6345,676192165fb32c2e1fb7aee6,67d15ef658710532218c3bf8,2025-03-12_11h24.30.003,Tarea de decisión léxica,2024.2.5,Win32,178.5714286,,,,,,,,,,,,,,,,,,,,,,,622.0624,623.0396,a,1,0.3176,,0.3176,1,623.0396,623.5397,,,,,,198,MAS,NOWORD,DIS,150,dade,,la,,623.5397,623.5397,0.024305556,-0.499305619,0,0,0,,0,130,130,197,1,bate,,,,
,,,,,,5883a935c0c9a10001df6345,676192165fb32c2e1fb7aee6,67d15ef658710532218c3bf8,2025-03-12_11h24.30.003,Tarea de decisión léxica,2024.2.5,Win32,178.5714286,,,,,,,,,,,,,,,,,,,,,,,623.5402,624.4952,l,1,0.2951,,0.2951,1,624.4953,624.9952,,,,,,143,MAS,WORD,DIS,150,pavo,,la,,624.9956,624.996,0.024305556,-0.499305619,0,0,0,,0,131,131,142,1,pezo,,,,
,,,,,,5883a935c0c9a10001df6345,676192165fb32c2e1fb7aee6,67d15ef658710532218c3bf8,2025-03-12_11h24.30.003,Tarea de decisión léxica,2024.2.5,Win32,178.5714286,,,,,,,,,,,,,,,,,,,,,,,624.9962,625.9507,l,1,0.2953,,0.2953,1,625.9508,626.4507,,,,,,169,MAS,WORD,DIS,150,cubo,,la,,626.4507,626.4507,0.024305556,-0.499305619,0,0,0,,0,132,132,168,1,mibo,,,,
,,,,,,5883a935c0c9a10001df6345,676192165fb32c2e1fb7aee6,67d15ef658710532218c3bf8,2025-03-12_11h24.30.003,Tarea de decisión léxica,2024.2.5,Win32,178.5714286,,,,,,,,,,,,,,,,,,,,,,,626.4512,627.4896,a,1,0.378,,0.378,1,627.4896,627.9895,,,,,,268,MAS,NOWORD,AGR,150,figro,,el,,627.9896,627.9897,0.024305556,-0.499305619,0,0,0,,0,133,133,267,1,libro,,,,
,,,,,,5883a935c0c9a10001df6345,676192165fb32c2e1fb7aee6,67d15ef658710532218c3bf8,2025-03-12_11h24.30.003,Tarea de decisión léxica,2024.2.5,Win32,178.5714286,,,,,,,,,,,,,,,,,,,,,,,627.9901,628.951,a,1,0.3051,,0.3051,1,628.9511,629.4507,,,,,,366,FEM,NOWORD,DIS,150,gulla,,el,,629.4507,629.4507,0.024305556,-0.499305619,0,0,0,,0,134,134,365,1,ducha,,,,
,,,,,,5883a935c0c9a10001df6345,676192165fb32c2e1fb7aee6,67d15ef658710532218c3bf8,2025-03-12_11h24.30.003,Tarea de decisión léxica,2024.2.5,Win32,178.5714286,,,,,,,,,,,,,,,,,,,,,,,629.4512,630.5284,a,1,0.4208,,0.4208,1,630.5285,631.0284,,,,,,130,MAS,NOWORD,DIS,150,pima,,la,,631.0285,631.0285,0.024305556,-0.499305619,0,0,0,,0,135,135,129,1,oído,,,,
,,,,,,5883a935c0c9a10001df6345,676192165fb32c2e1fb7aee6,67d15ef658710532218c3bf8,2025-03-12_11h24.30.003,Tarea de decisión léxica,2024.2.5,Win32,178.5714286,,,,,,,,,,,,,,,,,,,,,,,631.0289,631.9951,l,1,0.3069,,0.3069,1,631.9951,632.495,,,,,,453,FEM,WORD,DIS,150,mafia,,el,,632.4955,632.4958,0.024305556,-0.499305619,0,0,0,,0,136,136,452,1,pafia,,,,
,,,,,,5883a935c0c9a10001df6345,676192165fb32c2e1fb7aee6,67d15ef658710532218c3bf8,2025-03-12_11h24.30.003,Tarea de decisión léxica,2024.2.5,Win32,178.5714286,,,,,,,,,,,,,,,,,,,,,,,632.496,633.4728,a,1,0.3196,,0.3196,1,633.4729,633.9728,,,,,,324,FEM,NOWORD,AGR,150,certa,,la,,633.9728,633.9729,0.024305556,-0.499305619,0,0,0,,0,137,137,323,1,cinta,,,,
,,,,,,5883a935c0c9a10001df6345,676192165fb32c2e1fb7aee6,67d15ef658710532218c3bf8,2025-03-12_11h24.30.003,Tarea de decisión léxica,2024.2.5,Win32,178.5714286,,,,,,,,,,,,,,,,,,,,,,,633.9734,635.0673,a,1,0.4341,,0.4341,1,635.0674,635.5673,,,,,,284,MAS,NOWORD,AGR,150,tuevo,,el,,635.5673,635.5674,0.024305556,-0.499305619,0,0,0,,0,138,138,283,1,sueño,,,,
,,,,,,5883a935c0c9a10001df6345,676192165fb32c2e1fb7aee6,67d15ef658710532218c3bf8,2025-03-12_11h24.30.003,Tarea de decisión léxica,2024.2.5,Win32,178.5714286,,,,,,,,,,,,,,,,,,,,,,,635.5678,636.5117,a,1,0.2855,,0.2855,1,636.5118,637.0116,,,,,,158,MAS,NOWORD,DIS,150,hico,,la,,637.0116,637.0117,0.024305556,-0.499305619,0,0,0,,0,139,139,157,1,nido,,,,
,,,,,,5883a935c0c9a10001df6345,676192165fb32c2e1fb7aee6,67d15ef658710532218c3bf8,2025-03-12_11h24.30.003,Tarea de decisión léxica,2024.2.5,Win32,178.5714286,,,,,,,,,,,,,,,,,,,,,,,637.0122,638.3062,a,1,0.6342,,0.6342,1,638.3062,638.8061,,,,,,432,MAS,NOWORD,AGR,150,tetor,,el,,638.8061,638.8061,0.024305556,-0.499305619,0,0,0,,0,140,140,431,1,motor,,,,
,,,,,,5883a935c0c9a10001df6345,676192165fb32c2e1fb7aee6,67d15ef658710532218c3bf8,2025-03-12_11h24.30.003,Tarea de decisión léxica,2024.2.5,Win32,178.5714286,,,,,,,,,,,,,,,,,,,,,,,638.8066,639.9061,l,1,0.4422,,0.4422,1,639.9062,640.4061,,,,,,323,FEM,WORD,DIS,150,cinta,,el,,640.4066,640.407,0.024305556,-0.499305619,0,0,0,,0,141,141,322,1,certa,,,,
,,,,,,5883a935c0c9a10001df6345,676192165fb32c2e1fb7aee6,67d15ef658710532218c3bf8,2025-03-12_11h24.30.003,Tarea de decisión léxica,2024.2.5,Win32,178.5714286,,,,,,,,,,,,,,,,,,,,,,,640.4072,641.4061,l,1,0.3434,,0.3434,1,641.4062,641.9061,,,,,,355,FEM,WORD,DIS,150,regla,,el,,641.9061,641.9061,0.024305556,-0.499305619,0,0,0,,0,142,142,354,1,bepla,,,,
,,,,,,5883a935c0c9a10001df6345,676192165fb32c2e1fb7aee6,67d15ef658710532218c3bf8,2025-03-12_11h24.30.003,Tarea de decisión léxica,2024.2.5,Win32,178.5714286,,,,,,,,,,,,,,,,,,,,,,,641.9066,642.8394,a,1,0.2768,,0.2768,1,642.8394,643.3394,,,,,,60,FEM,NOWORD,AGR,150,tafa,,la,,643.3394,643.3395,0.024305556,-0.499305619,0,0,0,,0,143,143,59,1,sala,,,,
,,,,,,5883a935c0c9a10001df6345,676192165fb32c2e1fb7aee6,67d15ef658710532218c3bf8,2025-03-12_11h24.30.003,Tarea de decisión léxica,2024.2.5,Win32,178.5714286,,,,,,,,,,,,,,,,,,,,,,,643.34,644.3727,l,1,0.3765,,0.3765,1,644.3728,644.8727,,,,,,137,MAS,WORD,DIS,150,nene,,la,,644.8727,644.8728,0.024305556,-0.499305619,0,0,0,,0,144,144,136,1,pamo,,,,
,,,,,,5883a935c0c9a10001df6345,676192165fb32c2e1fb7aee6,67d15ef658710532218c3bf8,2025-03-12_11h24.30.003,Tarea de decisión léxica,2024.2.5,Win32,178.5714286,,,,,,,,,,,,,,,,,,,,,,,644.8732,645.8393,l,1,0.3084,,0.3084,1,645.8393,646.3393,,,,,,471,FEM,WORD,DIS,150,grasa,,el,,646.3394,646.3395,0.024305556,-0.499305619,0,0,0,,0,145,145,470,1,prana,,,,
,,,,,,5883a935c0c9a10001df6345,676192165fb32c2e1fb7aee6,67d15ef658710532218c3bf8,2025-03-12_11h24.30.003,Tarea de decisión léxica,2024.2.5,Win32,178.5714286,,,,,,,,,,,,,,,,,,,,,,,646.3399,647.3227,a,1,0.325,,0.325,1,647.3227,647.8227,,,,,,356,FEM,NOWORD,AGR,150,bepla,,la,,647.8233,647.8238,0.024305556,-0.499305619,0,0,0,,0,146,146,355,1,regla,,,,
,,,,,,5883a935c0c9a10001df6345,676192165fb32c2e1fb7aee6,67d15ef658710532218c3bf8,2025-03-12_11h24.30.003,Tarea de decisión léxica,2024.2.5,Win32,178.5714286,,,,,,,,,,,,,,,,,,,,,,,647.8241,648.8171,l,1,0.3378,,0.3378,1,648.8171,649.3171,,,,,,285,MAS,WORD,DIS,150,error,,la,,649.3171,649.3172,0.024305556,-0.499305619,0,0,0,,0,147,147,284,1,echor,,,,
,,,,,,5883a935c0c9a10001df6345,676192165fb32c2e1fb7aee6,67d15ef658710532218c3bf8,2025-03-12_11h24.30.003,Tarea de decisión léxica,2024.2.5,Win32,178.5714286,,,,,,,,,,,,,,,,,,,,,,,649.3176,650.2837,l,1,0.3081,,0.3081,1,650.2838,650.7838,,,,,,295,MAS,WORD,DIS,150,dolor,,la,,650.7838,650.7839,0.024305556,-0.499305619,0,0,0,,0,148,148,294,1,goler,,,,
,,,,,,5883a935c0c9a10001df6345,676192165fb32c2e1fb7aee6,67d15ef658710532218c3bf8,2025-03-12_11h24.30.003,Tarea de decisión léxica,2024.2.5,Win32,178.5714286,,,,,,,,,,,,,,,,,,,,,,,650.7844,651.8337,a,1,0.3889,,0.3889,1,651.8337,652.3337,,,,,,358,FEM,NOWORD,DIS,150,gruba,,el,,652.3338,652.3338,0.024305556,-0.499305619,0,0,0,,0,149,149,357,1,bruja,,,,
,,,,,,5883a935c0c9a10001df6345,676192165fb32c2e1fb7aee6,67d15ef658710532218c3bf8,2025-03-12_11h24.30.003,Tarea de decisión léxica,2024.2.5,Win32,178.5714286,,,,,,,,,,,,,,,,,,,,,,,652.3344,653.3003,a,1,0.3091,,0.3091,1,653.3004,653.8003,,,,,,192,FEM,NOWORD,AGR,150,bila,,la,,653.8004,653.8005,0.024305556,-0.499305619,0,0,0,,0,150,150,191,1,pila,,,,
,,,,,,5883a935c0c9a10001df6345,676192165fb32c2e1fb7aee6,67d15ef658710532218c3bf8,2025-03-12_11h24.30.003,Tarea de decisión léxica,2024.2.5,Win32,178.5714286,,,,,,,,,,,,,,,,,,,,,,,653.8009,654.767,a,1,0.3064,,0.3064,1,654.7671,655.267,,,,,,298,MAS,NOWORD,DIS,150,brubo,,la,,655.2675,655.268,0.024305556,-0.499305619,0,0,0,,0,151,151,297,1,grupo,,,,
,,,,,,5883a935c0c9a10001df6345,676192165fb32c2e1fb7aee6,67d15ef658710532218c3bf8,2025-03-12_11h24.30.003,Tarea de decisión léxica,2024.2.5,Win32,178.5714286,,,,,,,,,,,,,,,,,,,,,,,655.2683,656.2337,l,1,0.3101,,0.3101,1,656.2337,656.7336,,,,,,37,MAS,WORD,AGR,150,rato,,el,,656.7336,656.7337,0.024305556,-0.499305619,0,0,0,,0,152,152,36,1,gaco,,,,
,,,,,,5883a935c0c9a10001df6345,676192165fb32c2e1fb7aee6,67d15ef658710532218c3bf8,2025-03-12_11h24.30.003,Tarea de decisión léxica,2024.2.5,Win32,178.5714286,,,,,,,,,,,,,,,,,,,,,,,656.7342,657.8003,a,1,0.4074,,0.4074,1,657.8004,658.3003,,,,,,218,MAS,NOWORD,DIS,150,budo,,la,,658.3003,658.3003,0.024305556,-0.499305619,0,0,0,,0,153,153,217,1,luto,,,,
,,,,,,5883a935c0c9a10001df6345,676192165fb32c2e1fb7aee6,67d15ef658710532218c3bf8,2025-03-12_11h24.30.003,Tarea de decisión léxica,2024.2.5,Win32,178.5714286,,,,,,,,,,,,,,,,,,,,,,,658.3008,659.2447,a,1,0.2877,,0.2877,1,659.2448,659.7447,,,,,,282,MAS,NOWORD,DIS,150,cauro,,la,,659.7447,659.7448,0.024305556,-0.499305619,0,0,0,,0,154,154,281,1,cielo,,,,
,,,,,,5883a935c0c9a10001df6345,676192165fb32c2e1fb7aee6,67d15ef658710532218c3bf8,2025-03-12_11h24.30.003,Tarea de decisión léxica,2024.2.5,Win32,178.5714286,,,,,,,,,,,,,,,,,,,,,,,659.7452,660.778,l,1,0.3767,,0.3767,1,660.778,661.278,,,,,,333,FEM,WORD,DIS,150,tarea,,el,,661.2785,661.2788,0.024305556,-0.499305619,0,0,0,,0,155,155,332,1,dalea,,,,
,,,,,,5883a935c0c9a10001df6345,676192165fb32c2e1fb7aee6,67d15ef658710532218c3bf8,2025-03-12_11h24.30.003,Tarea de decisión léxica,2024.2.5,Win32,178.5714286,,,,,,,,,,,,,,,,,,,,,,,661.2791,662.2447,a,1,0.3089,,0.3089,1,662.2447,662.7447,,,,,,472,FEM,NOWORD,AGR,150,prana,,la,,662.7447,662.7447,0.024305556,-0.499305619,0,0,0,,0,156,156,471,1,grasa,,,,
,,,,,,5883a935c0c9a10001df6345,676192165fb32c2e1fb7aee6,67d15ef658710532218c3bf8,2025-03-12_11h24.30.003,Tarea de decisión léxica,2024.2.5,Win32,178.5714286,,,,,,,,,,,,,,,,,,,,,,,662.7451,663.8447,l,1,0.4432,,0.4432,1,663.8447,664.3447,,,,,,187,MAS,WORD,AGR,150,mito,,el,,664.3447,664.3447,0.024305556,-0.499305619,0,0,0,,0,157,157,186,1,suto,,,,
,,,,,,5883a935c0c9a10001df6345,676192165fb32c2e1fb7aee6,67d15ef658710532218c3bf8,2025-03-12_11h24.30.003,Tarea de decisión léxica,2024.2.5,Win32,178.5714286,,,,,,,,,,,,,,,,,,,,,,,664.3452,665.2946,a,1,0.2903,,0.2903,1,665.2947,665.7946,,,,,,478,MAS,NOWORD,DIS,150,hocon,,la,,665.7947,665.7948,0.024305556,-0.499305619,0,0,0,,0,158,158,477,1,botón,,,,
,,,,,,5883a935c0c9a10001df6345,676192165fb32c2e1fb7aee6,67d15ef658710532218c3bf8,2025-03-12_11h24.30.003,Tarea de decisión léxica,2024.2.5,Win32,178.5714286,,,,,,,,,,,,,,,,,,,,,,,665.7951,666.7835,l,1,0.3278,,0.3278,1,666.7835,667.2835,,,,,,327,MAS,WORD,AGR,150,fondo,,el,,667.2835,667.2835,0.024305556,-0.499305619,0,0,0,,0,159,159,326,1,lendo,,,,
,,,,,,5883a935c0c9a10001df6345,676192165fb32c2e1fb7aee6,67d15ef658710532218c3bf8,2025-03-12_11h24.30.003,Tarea de decisión léxica,2024.2.5,Win32,178.5714286,,,,,,,,,,,,,,,,,,,,,,,667.2841,668.2668,a,1,0.322,,0.322,1,668.2668,668.7669,,,,,,390,MAS,NOWORD,DIS,150,cenco,,la,,668.7673,761.9379,0.024305556,-0.499305619,0,0,0,space,0,160,160,389,1,cerdo,93.1574,,,
,,,,,,5883a935c0c9a10001df6345,676192165fb32c2e1fb7aee6,67d15ef658710532218c3bf8,2025-03-12_11h24.30.003,Tarea de decisión léxica,2024.2.5,Win32,178.5714286,,,,,,,,,,,,,,,,,,,,,,,761.9385,763.0379,l,1,0.4433,,0.4433,1,763.0379,763.5378,,,,,,15,FEM,WORD,AGR,150,idea,,la,,763.5378,763.5379,0.024305556,-0.499305619,0,0,0,,0,161,161,14,1,odea,,,,
,,,,,,5883a935c0c9a10001df6345,676192165fb32c2e1fb7aee6,67d15ef658710532218c3bf8,2025-03-12_11h24.30.003,Tarea de decisión léxica,2024.2.5,Win32,178.5714286,,,,,,,,,,,,,,,,,,,,,,,763.5384,764.4323,l,0,0.2345,,0.2345,0,764.4326,764.9322,,,,,,134,FEM,NOWORD,DIS,150,vesa,,el,,764.9322,764.9323,0.024305556,-0.499305619,0,0,0,,0,162,162,133,1,vaca,,,,
,,,,,,5883a935c0c9a10001df6345,676192165fb32c2e1fb7aee6,67d15ef658710532218c3bf8,2025-03-12_11h24.30.003,Tarea de decisión léxica,2024.2.5,Win32,178.5714286,,,,,,,,,,,,,,,,,,,,,,,764.9329,765.8156,l,1,0.226,,0.226,1,765.8159,766.3156,,,,,,269,MAS,WORD,AGR,150,perro,,el,,766.3156,766.3157,0.024305556,-0.499305619,0,0,0,,0,163,163,268,1,mello,,,,
,,,,,,5883a935c0c9a10001df6345,676192165fb32c2e1fb7aee6,67d15ef658710532218c3bf8,2025-03-12_11h24.30.003,Tarea de decisión léxica,2024.2.5,Win32,178.5714286,,,,,,,,,,,,,,,,,,,,,,,766.3161,767.2156,l,1,0.2428,,0.2428,1,767.2156,767.7155,,,,,,325,FEM,WORD,AGR,150,magia,,la,,767.7155,767.7156,0.024305556,-0.499305619,0,0,0,,0,164,164,324,1,mabia,,,,
,,,,,,5883a935c0c9a10001df6345,676192165fb32c2e1fb7aee6,67d15ef658710532218c3bf8,2025-03-12_11h24.30.003,Tarea de decisión léxica,2024.2.5,Win32,178.5714286,,,,,,,,,,,,,,,,,,,,,,,767.716,768.81,l,1,0.4348,,0.4348,1,768.8101,769.31,,,,,,3,FEM,WORD,DIS,150,vida,,el,,769.3105,769.3109,0.024305556,-0.499305619,0,0,0,,0,165,165,2,1,dica,,,,
,,,,,,5883a935c0c9a10001df6345,676192165fb32c2e1fb7aee6,67d15ef658710532218c3bf8,2025-03-12_11h24.30.003,Tarea de decisión léxica,2024.2.5,Win32,178.5714286,,,,,,,,,,,,,,,,,,,,,,,769.3111,770.3044,a,1,0.3356,,0.3356,1,770.3045,770.8044,,,,,,32,FEM,NOWORD,AGR,150,bova,,la,,770.8045,770.8045,0.024305556,-0.499305619,0,0,0,,0,166,166,31,1,ropa,,,,
,,,,,,5883a935c0c9a10001df6345,676192165fb32c2e1fb7aee6,67d15ef658710532218c3bf8,2025-03-12_11h24.30.003,Tarea de decisión léxica,2024.2.5,Win32,178.5714286,,,,,,,,,,,,,,,,,,,,,,,770.805,771.8378,a,0,0.375,,0.375,0,771.8381,772.3377,,,,,,231,FEM,WORD,DIS,150,bota,,el,,772.3377,772.3378,0.024305556,-0.499305619,0,0,0,,0,167,167,230,1,heta,,,,
,,,,,,5883a935c0c9a10001df6345,676192165fb32c2e1fb7aee6,67d15ef658710532218c3bf8,2025-03-12_11h24.30.003,Tarea de decisión léxica,2024.2.5,Win32,178.5714286,,,,,,,,,,,,,,,,,,,,,,,772.3383,773.5488,a,1,0.5517,,0.5517,1,773.5492,774.0487,,,,,,400,MAS,NOWORD,AGR,150,serro,,el,,774.0488,774.0489,0.024305556,-0.499305619,0,0,0,,0,168,168,399,1,techo,,,,
,,,,,,5883a935c0c9a10001df6345,676192165fb32c2e1fb7aee6,67d15ef658710532218c3bf8,2025-03-12_11h24.30.003,Tarea de decisión léxica,2024.2.5,Win32,178.5714286,,,,,,,,,,,,,,,,,,,,,,,774.0493,775.2933,l,1,0.5865,,0.5865,1,775.2933,775.7932,,,,,,303,MAS,WORD,DIS,150,barco,,la,,775.7932,775.7933,0.024305556,-0.499305619,0,0,0,,0,169,169,302,1,lanco,,,,
,,,,,,5883a935c0c9a10001df6345,676192165fb32c2e1fb7aee6,67d15ef658710532218c3bf8,2025-03-12_11h24.30.003,Tarea de decisión léxica,2024.2.5,Win32,178.5714286,,,,,,,,,,,,,,,,,,,,,,,775.7939,776.7654,a,1,0.3113,,0.3113,1,776.7655,777.2655,,,,,,314,MAS,NOWORD,DIS,150,govio,,la,,777.2659,777.2663,0.024305556,-0.499305619,0,0,0,,0,170,170,313,1,novio,,,,
,,,,,,5883a935c0c9a10001df6345,676192165fb32c2e1fb7aee6,67d15ef658710532218c3bf8,2025-03-12_11h24.30.003,Tarea de decisión léxica,2024.2.5,Win32,178.5714286,,,,,,,,,,,,,,,,,,,,,,,777.2666,778.2432,l,0,0.3171,,0.3171,0,778.2435,778.7432,,,,,,48,MAS,NOWORD,AGR,150,chub,,el,,778.7433,778.7433,0.024305556,-0.499305619,0,0,0,,0,171,171,47,1,club,,,,
,,,,,,5883a935c0c9a10001df6345,676192165fb32c2e1fb7aee6,67d15ef658710532218c3bf8,2025-03-12_11h24.30.003,Tarea de decisión léxica,2024.2.5,Win32,178.5714286,,,,,,,,,,,,,,,,,,,,,,,778.7438,779.6988,l,1,0.2986,,0.2986,1,779.699,780.1987,,,,,,153,MAS,WORD,DIS,150,pato,,la,,780.1987,780.1988,0.024305556,-0.499305619,0,0,0,,0,172,172,152,1,tado,,,,
,,,,,,5883a935c0c9a10001df6345,676192165fb32c2e1fb7aee6,67d15ef658710532218c3bf8,2025-03-12_11h24.30.003,Tarea de decisión léxica,2024.2.5,Win32,178.5714286,,,,,,,,,,,,,,,,,,,,,,,780.1993,781.2154,a,1,0.3574,,0.3574,1,781.2155,781.7154,,,,,,220,FEM,NOWORD,AGR,150,miva,,la,,781.7154,781.7155,0.024305556,-0.499305619,0,0,0,,0,173,173,219,1,pipa,,,,
,,,,,,5883a935c0c9a10001df6345,676192165fb32c2e1fb7aee6,67d15ef658710532218c3bf8,2025-03-12_11h24.30.003,Tarea de decisión léxica,2024.2.5,Win32,178.5714286,,,,,,,,,,,,,,,,,,,,,,,781.7159,782.6821,l,1,0.3098,,0.3098,1,782.6822,783.1821,,,,,,381,MAS,WORD,DIS,150,humor,,la,,783.1821,783.1821,0.024305556,-0.499305619,0,0,0,,0,174,174,380,1,nusor,,,,
,,,,,,5883a935c0c9a10001df6345,676192165fb32c2e1fb7aee6,67d15ef658710532218c3bf8,2025-03-12_11h24.30.003,Tarea de decisión léxica,2024.2.5,Win32,178.5714286,,,,,,,,,,,,,,,,,,,,,,,783.1825,784.2153,a,1,0.3752,,0.3752,1,784.2154,784.7154,,,,,,274,FEM,NOWORD,DIS,150,frosa,,el,,784.7161,784.7163,0.024305556,-0.499305619,0,0,0,,0,175,175,273,1,broma,,,,
,,,,,,5883a935c0c9a10001df6345,676192165fb32c2e1fb7aee6,67d15ef658710532218c3bf8,2025-03-12_11h24.30.003,Tarea de decisión léxica,2024.2.5,Win32,178.5714286,,,,,,,,,,,,,,,,,,,,,,,784.7167,785.7264,a,1,0.3521,,0.3521,1,785.7265,786.2264,,,,,,398,FEM,NOWORD,DIS,150,trigi,,el,,786.2264,786.2266,0.024305556,-0.499305619,0,0,0,,0,176,176,397,1,tribu,,,,
,,,,,,5883a935c0c9a10001df6345,676192165fb32c2e1fb7aee6,67d15ef658710532218c3bf8,2025-03-12_11h24.30.003,Tarea de decisión léxica,2024.2.5,Win32,178.5714286,,,,,,,,,,,,,,,,,,,,,,,786.2271,787.2931,l,1,0.4093,,0.4093,1,787.2931,787.793,,,,,,197,MAS,WORD,AGR,150,bate,,el,,787.7931,787.7931,0.024305556,-0.499305619,0,0,0,,0,177,177,196,1,dade,,,,
,,,,,,5883a935c0c9a10001df6345,676192165fb32c2e1fb7aee6,67d15ef658710532218c3bf8,2025-03-12_11h24.30.003,Tarea de decisión léxica,2024.2.5,Win32,178.5714286,,,,,,,,,,,,,,,,,,,,,,,787.7935,788.7931,a,1,0.3391,,0.3391,1,788.7931,789.2931,,,,,,202,FEM,NOWORD,DIS,150,cusa,,el,,789.2931,789.2931,0.024305556,-0.499305619,0,0,0,,0,178,178,201,1,cuna,,,,
,,,,,,5883a935c0c9a10001df6345,676192165fb32c2e1fb7aee6,67d15ef658710532218c3bf8,2025-03-12_11h24.30.003,Tarea de decisión léxica,2024.2.5,Win32,178.5714286,,,,,,,,,,,,,,,,,,,,,,,789.2936,790.2486,a,1,0.2991,,0.2991,1,790.2487,790.7486,,,,,,172,MAS,NOWORD,AGR,150,niro,,el,,790.7492,790.7497,0.024305556,-0.499305619,0,0,0,,0,179,179,171,1,hilo,,,,
,,,,,,5883a935c0c9a10001df6345,676192165fb32c2e1fb7aee6,67d15ef658710532218c3bf8,2025-03-12_11h24.30.003,Tarea de decisión léxica,2024.2.5,Win32,178.5714286,,,,,,,,,,,,,,,,,,,,,,,790.7499,791.6986,l,1,0.2895,,0.2895,1,791.6986,792.1986,,,,,,1,FEM,WORD,AGR,150,casa,,la,,792.1986,792.1987,0.024305556,-0.499305619,0,0,0,,0,180,180,0,1,mada,,,,
,,,,,,5883a935c0c9a10001df6345,676192165fb32c2e1fb7aee6,67d15ef658710532218c3bf8,2025-03-12_11h24.30.003,Tarea de decisión léxica,2024.2.5,Win32,178.5714286,,,,,,,,,,,,,,,,,,,,,,,792.1991,793.182,l,1,0.3267,,0.3267,1,793.182,793.6818,,,,,,123,FEM,WORD,AGR,150,flor,,la,,793.6819,793.682,0.024305556,-0.499305619,0,0,0,,0,181,181,122,1,maba,,,,
,,,,,,5883a935c0c9a10001df6345,676192165fb32c2e1fb7aee6,67d15ef658710532218c3bf8,2025-03-12_11h24.30.003,Tarea de decisión léxica,2024.2.5,Win32,178.5714286,,,,,,,,,,,,,,,,,,,,,,,793.6825,794.6707,a,1,0.3307,,0.3307,1,794.6708,795.1707,,,,,,480,MAS,NOWORD,AGR,150,rimpo,,el,,795.1708,795.1709,0.024305556,-0.499305619,0,0,0,,0,182,182,479,1,rumbo,,,,
,,,,,,5883a935c0c9a10001df6345,676192165fb32c2e1fb7aee6,67d15ef658710532218c3bf8,2025-03-12_11h24.30.003,Tarea de decisión léxica,2024.2.5,Win32,178.5714286,,,,,,,,,,,,,,,,,,,,,,,795.1713,796.5097,l,1,0.6811,,0.6811,1,796.5097,797.0097,,,,,,29,MAS,WORD,AGR,150,modo,,el,,797.0097,797.0097,0.024305556,-0.499305619,0,0,0,,0,183,183,28,1,pono,,,,
,,,,,,5883a935c0c9a10001df6345,676192165fb32c2e1fb7aee6,67d15ef658710532218c3bf8,2025-03-12_11h24.30.003,Tarea de decisión léxica,2024.2.5,Win32,178.5714286,,,,,,,,,,,,,,,,,,,,,,,797.0101,797.9874,l,1,0.3168,,0.3168,1,797.9874,798.4874,,,,,,11,MAS,WORD,AGR,150,lado,,el,,798.4879,798.4883,0.024305556,-0.499305619,0,0,0,,0,184,184,10,1,bapo,,,,
,,,,,,5883a935c0c9a10001df6345,676192165fb32c2e1fb7aee6,67d15ef658710532218c3bf8,2025-03-12_11h24.30.003,Tarea de decisión léxica,2024.2.5,Win32,178.5714286,,,,,,,,,,,,,,,,,,,,,,,798.4885,799.5263,a,1,0.3818,,0.3818,1,799.5263,800.0263,,,,,,238,MAS,NOWORD,DIS,150,huco,,la,,800.0263,800.0263,0.024305556,-0.499305619,0,0,0,,0,185,185,237,1,nudo,,,,
,,,,,,5883a935c0c9a10001df6345,676192165fb32c2e1fb7aee6,67d15ef658710532218c3bf8,2025-03-12_11h24.30.003,Tarea de decisión léxica,2024.2.5,Win32,178.5714286,,,,,,,,,,,,,,,,,,,,,,,800.0268,801.0374,a,1,0.3532,,0.3532,1,801.0374,801.5373,,,,,,94,FEM,NOWORD,DIS,150,rona,,el,,801.5374,801.5374,0.024305556,-0.499305619,0,0,0,,0,186,186,93,1,bola,,,,
,,,,,,5883a935c0c9a10001df6345,676192165fb32c2e1fb7aee6,67d15ef658710532218c3bf8,2025-03-12_11h24.30.003,Tarea de decisión léxica,2024.2.5,Win32,178.5714286,,,,,,,,,,,,,,,,,,,,,,,801.5378,802.6318,l,0,0.4334,,0.4334,0,802.6321,803.1318,,,,,,292,FEM,NOWORD,AGR,150,mesta,,la,,803.1318,803.1319,0.024305556,-0.499305619,0,0,0,,0,187,187,291,1,pista,,,,
,,,,,,5883a935c0c9a10001df6345,676192165fb32c2e1fb7aee6,67d15ef658710532218c3bf8,2025-03-12_11h24.30.003,Tarea de decisión léxica,2024.2.5,Win32,178.5714286,,,,,,,,,,,,,,,,,,,,,,,803.1323,804.1096,a,1,0.317,,0.317,1,804.11,804.6095,,,,,,8,MAS,NOWORD,AGR,150,nivo,,el,,804.6095,804.6096,0.024305556,-0.499305619,0,0,0,,0,188,188,7,1,hijo,,,,
,,,,,,5883a935c0c9a10001df6345,676192165fb32c2e1fb7aee6,67d15ef658710532218c3bf8,2025-03-12_11h24.30.003,Tarea de decisión léxica,2024.2.5,Win32,178.5714286,,,,,,,,,,,,,,,,,,,,,,,804.6102,805.8761,a,1,0.6092,,0.6092,1,805.8763,806.3762,,,,,,100,MAS,NOWORD,AGR,150,soro,,el,,806.3766,806.3769,0.024305556,-0.499305619,0,0,0,,0,189,189,99,1,lobo,,,,
,,,,,,5883a935c0c9a10001df6345,676192165fb32c2e1fb7aee6,67d15ef658710532218c3bf8,2025-03-12_11h24.30.003,Tarea de decisión léxica,2024.2.5,Win32,178.5714286,,,,,,,,,,,,,,,,,,,,,,,806.3772,807.5373,l,1,0.503,,0.503,1,807.5374,808.0373,,,,,,283,MAS,WORD,AGR,150,sueño,,el,,808.0374,808.0374,0.024305556,-0.499305619,0,0,0,,0,190,190,282,1,tuevo,,,,
,,,,,,5883a935c0c9a10001df6345,676192165fb32c2e1fb7aee6,67d15ef658710532218c3bf8,2025-03-12_11h24.30.003,Tarea de decisión léxica,2024.2.5,Win32,178.5714286,,,,,,,,,,,,,,,,,,,,,,,808.0378,809.0372,l,1,0.343,,0.343,1,809.0374,809.5372,,,,,,445,MAS,WORD,DIS,150,actor,,la,,809.5373,809.5373,0.024305556,-0.499305619,0,0,0,,0,191,191,444,1,ascor,,,,
,,,,,,5883a935c0c9a10001df6345,676192165fb32c2e1fb7aee6,67d15ef658710532218c3bf8,2025-03-12_11h24.30.003,Tarea de decisión léxica,2024.2.5,Win32,178.5714286,,,,,,,,,,,,,,,,,,,,,,,809.5378,810.6595,l,1,0.4634,,0.4634,1,810.6595,811.1594,,,,,,51,FEM,WORD,AGR,150,caja,,la,,811.1595,811.1596,0.024305556,-0.499305619,0,0,0,,0,192,192,50,1,mava,,,,
,,,,,,5883a935c0c9a10001df6345,676192165fb32c2e1fb7aee6,67d15ef658710532218c3bf8,2025-03-12_11h24.30.003,Tarea de decisión léxica,2024.2.5,Win32,178.5714286,,,,,,,,,,,,,,,,,,,,,,,811.1601,812.1038,l,1,0.2869,,0.2869,1,812.1039,812.6039,,,,,,75,MAS,WORD,DIS,150,olor,,la,,812.6039,812.604,0.024305556,-0.499305619,0,0,0,,0,193,193,74,1,ocer,,,,
,,,,,,5883a935c0c9a10001df6345,676192165fb32c2e1fb7aee6,67d15ef658710532218c3bf8,2025-03-12_11h24.30.003,Tarea de decisión léxica,2024.2.5,Win32,178.5714286,,,,,,,,,,,,,,,,,,,,,,,812.6044,813.615,a,1,0.354,,0.354,1,813.615,814.115,,,,,,170,MAS,NOWORD,DIS,150,mibo,,la,,814.1154,814.1157,0.024305556,-0.499305619,0,0,0,,0,194,194,169,1,cubo,,,,
,,,,,,5883a935c0c9a10001df6345,676192165fb32c2e1fb7aee6,67d15ef658710532218c3bf8,2025-03-12_11h24.30.003,Tarea de decisión léxica,2024.2.5,Win32,178.5714286,,,,,,,,,,,,,,,,,,,,,,,814.116,815.2317,l,1,0.4581,,0.4581,1,815.2317,815.7316,,,,,,19,MAS,WORD,DIS,150,niño,,la,,815.7316,815.7317,0.024305556,-0.499305619,0,0,0,,0,195,195,18,1,himo,,,,
,,,,,,5883a935c0c9a10001df6345,676192165fb32c2e1fb7aee6,67d15ef658710532218c3bf8,2025-03-12_11h24.30.003,Tarea de decisión léxica,2024.2.5,Win32,178.5714286,,,,,,,,,,,,,,,,,,,,,,,815.7321,816.8261,a,1,0.4334,,0.4334,1,816.8262,817.326,,,,,,176,FEM,NOWORD,AGR,150,hosa,,la,,817.3261,817.3261,0.024305556,-0.499305619,0,0,0,,0,196,196,175,1,goma,,,,
,,,,,,5883a935c0c9a10001df6345,676192165fb32c2e1fb7aee6,67d15ef658710532218c3bf8,2025-03-12_11h24.30.003,Tarea de decisión léxica,2024.2.5,Win32,178.5714286,,,,,,,,,,,,,,,,,,,,,,,817.3266,818.4817,a,1,0.4992,,0.4992,1,818.4818,818.9816,,,,,,174,FEM,NOWORD,DIS,150,boma,,el,,818.9816,818.9816,0.024305556,-0.499305619,0,0,0,,0,197,197,173,1,rosa,,,,
,,,,,,5883a935c0c9a10001df6345,676192165fb32c2e1fb7aee6,67d15ef658710532218c3bf8,2025-03-12_11h24.30.003,Tarea de decisión léxica,2024.2.5,Win32,178.5714286,,,,,,,,,,,,,,,,,,,,,,,818.9823,820.0149,l,1,0.3759,,0.3759,1,820.0149,820.5149,,,,,,185,MAS,WORD,DIS,150,baúl,,la,,820.5149,820.515,0.024305556,-0.499305619,0,0,0,,0,198,198,184,1,raol,,,,
,,,,,,5883a935c0c9a10001df6345,676192165fb32c2e1fb7aee6,67d15ef658710532218c3bf8,2025-03-12_11h24.30.003,Tarea de decisión léxica,2024.2.5,Win32,178.5714286,,,,,,,,,,,,,,,,,,,,,,,820.5154,821.5593,l,1,0.3846,,0.3846,1,821.5593,822.0593,,,,,,363,FEM,WORD,AGR,150,deuda,,la,,822.0599,822.0604,0.024305556,-0.499305619,0,0,0,,0,199,199,362,1,veida,,,,
,,,,,,5883a935c0c9a10001df6345,676192165fb32c2e1fb7aee6,67d15ef658710532218c3bf8,2025-03-12_11h24.30.003,Tarea de decisión léxica,2024.2.5,Win32,178.5714286,,,,,,,,,,,,,,,,,,,,,,,822.0607,822.9926,l,1,0.2765,,0.2765,1,822.9927,823.4926,,,,,,281,MAS,WORD,DIS,150,cielo,,la,,823.4927,823.4928,0.024305556,-0.499305619,0,0,0,,0,200,200,280,1,cauro,,,,
,,,,,,5883a935c0c9a10001df6345,676192165fb32c2e1fb7aee6,67d15ef658710532218c3bf8,2025-03-12_11h24.30.003,Tarea de decisión léxica,2024.2.5,Win32,178.5714286,,,,,,,,,,,,,,,,,,,,,,,823.4932,824.4982,l,1,0.3444,,0.3444,1,824.4982,824.9982,,,,,,205,FEM,WORD,AGR,150,rana,,la,,824.9982,824.9982,0.024305556,-0.499305619,0,0,0,,0,201,201,204,1,bara,,,,
,,,,,,5883a935c0c9a10001df6345,676192165fb32c2e1fb7aee6,67d15ef658710532218c3bf8,2025-03-12_11h24.30.003,Tarea de decisión léxica,2024.2.5,Win32,178.5714286,,,,,,,,,,,,,,,,,,,,,,,824.9986,825.8648,l,1,0.2079,,0.2079,1,825.8649,826.3648,,,,,,253,MAS,WORD,DIS,150,chico,,la,,826.3648,826.365,0.024305556,-0.499305619,0,0,0,,0,202,202,252,1,trido,,,,
,,,,,,5883a935c0c9a10001df6345,676192165fb32c2e1fb7aee6,67d15ef658710532218c3bf8,2025-03-12_11h24.30.003,Tarea de decisión léxica,2024.2.5,Win32,178.5714286,,,,,,,,,,,,,,,,,,,,,,,826.3655,827.2481,l,0,0.2233,,0.2233,0,827.2484,827.7481,,,,,,338,MAS,NOWORD,DIS,150,nuejo,,la,,827.7485,827.7488,0.024305556,-0.499305619,0,0,0,,0,203,203,337,1,huevo,,,,
,,,,,,5883a935c0c9a10001df6345,676192165fb32c2e1fb7aee6,67d15ef658710532218c3bf8,2025-03-12_11h24.30.003,Tarea de decisión léxica,2024.2.5,Win32,178.5714286,,,,,,,,,,,,,,,,,,,,,,,827.7491,828.7259,l,1,0.3182,,0.3182,1,828.7263,829.2259,,,,,,267,MAS,WORD,DIS,150,libro,,la,,829.226,829.226,0.024305556,-0.499305619,0,0,0,,0,204,204,266,1,figro,,,,
,,,,,,5883a935c0c9a10001df6345,676192165fb32c2e1fb7aee6,67d15ef658710532218c3bf8,2025-03-12_11h24.30.003,Tarea de decisión léxica,2024.2.5,Win32,178.5714286,,,,,,,,,,,,,,,,,,,,,,,829.2265,830.2371,a,1,0.3546,,0.3546,1,830.2372,830.7369,,,,,,270,MAS,NOWORD,DIS,150,mello,,la,,830.7369,830.737,0.024305556,-0.499305619,0,0,0,,0,205,205,269,1,perro,,,,
,,,,,,5883a935c0c9a10001df6345,676192165fb32c2e1fb7aee6,67d15ef658710532218c3bf8,2025-03-12_11h24.30.003,Tarea de decisión léxica,2024.2.5,Win32,178.5714286,,,,,,,,,,,,,,,,,,,,,,,830.7376,831.8037,l,1,0.408,,0.408,1,831.8037,832.3036,,,,,,241,MAS,WORD,AGR,150,mundo,,el,,832.3037,832.3037,0.024305556,-0.499305619,0,0,0,,0,206,206,240,1,mirdo,,,,
,,,,,,5883a935c0c9a10001df6345,676192165fb32c2e1fb7aee6,67d15ef658710532218c3bf8,2025-03-12_11h24.30.003,Tarea de decisión léxica,2024.2.5,Win32,178.5714286,,,,,,,,,,,,,,,,,,,,,,,832.3042,833.3704,l,1,0.4106,,0.4106,1,833.3705,833.8702,,,,,,83,FEM,WORD,AGR,150,bala,,la,,833.8703,833.8704,0.024305556,-0.499305619,0,0,0,,0,207,207,82,1,taga,,,,
,,,,,,5883a935c0c9a10001df6345,676192165fb32c2e1fb7aee6,67d15ef658710532218c3bf8,2025-03-12_11h24.30.003,Tarea de decisión léxica,2024.2.5,Win32,178.5714286,,,,,,,,,,,,,,,,,,,,,,,833.871,834.8647,a,1,0.3359,,0.3359,1,834.8647,835.3647,,,,,,208,MAS,NOWORD,AGR,150,kedo,,el,,835.3652,835.3655,0.024305556,-0.499305619,0,0,0,,0,208,208,207,1,kilo,,,,
,,,,,,5883a935c0c9a10001df6345,676192165fb32c2e1fb7aee6,67d15ef658710532218c3bf8,2025-03-12_11h24.30.003,Tarea de decisión léxica,2024.2.5,Win32,178.5714286,,,,,,,,,,,,,,,,,,,,,,,835.3657,836.3925,a,1,0.3705,,0.3705,1,836.3925,836.8924,,,,,,354,FEM,NOWORD,DIS,150,cezca,,el,,836.8924,836.8925,0.024305556,-0.499305619,0,0,0,,0,209,209,353,1,celda,,,,
,,,,,,5883a935c0c9a10001df6345,676192165fb32c2e1fb7aee6,67d15ef658710532218c3bf8,2025-03-12_11h24.30.003,Tarea de decisión léxica,2024.2.5,Win32,178.5714286,,,,,,,,,,,,,,,,,,,,,,,836.8931,837.8424,l,1,0.293,,0.293,1,837.8425,838.3424,,,,,,55,MAS,WORD,DIS,150,gato,,la,,838.3425,838.3426,0.024305556,-0.499305619,0,0,0,,0,210,210,54,1,jado,,,,
,,,,,,5883a935c0c9a10001df6345,676192165fb32c2e1fb7aee6,67d15ef658710532218c3bf8,2025-03-12_11h24.30.003,Tarea de decisión léxica,2024.2.5,Win32,178.5714286,,,,,,,,,,,,,,,,,,,,,,,838.343,839.3535,a,1,0.3544,,0.3544,1,839.3536,839.8535,,,,,,144,MAS,NOWORD,AGR,150,pezo,,el,,839.8535,839.8536,0.024305556,-0.499305619,0,0,0,,0,211,211,143,1,pavo,,,,
,,,,,,5883a935c0c9a10001df6345,676192165fb32c2e1fb7aee6,67d15ef658710532218c3bf8,2025-03-12_11h24.30.003,Tarea de decisión léxica,2024.2.5,Win32,178.5714286,,,,,,,,,,,,,,,,,,,,,,,839.8542,840.8091,l,1,0.2983,,0.2983,1,840.8092,841.3091,,,,,,259,MAS,WORD,DIS,150,juego,,la,,841.3091,841.3092,0.024305556,-0.499305619,0,0,0,,0,212,212,258,1,jaumo,,,,
,,,,,,5883a935c0c9a10001df6345,676192165fb32c2e1fb7aee6,67d15ef658710532218c3bf8,2025-03-12_11h24.30.003,Tarea de decisión léxica,2024.2.5,Win32,178.5714286,,,,,,,,,,,,,,,,,,,,,,,841.3097,842.259,l,1,0.2891,,0.2891,1,842.2592,842.759,,,,,,13,FEM,WORD,DIS,150,hora,,el,,842.7598,842.7603,0.024305556,-0.499305619,0,0,0,,0,213,213,12,1,nola,,,,
,,,,,,5883a935c0c9a10001df6345,676192165fb32c2e1fb7aee6,67d15ef658710532218c3bf8,2025-03-12_11h24.30.003,Tarea de decisión léxica,2024.2.5,Win32,178.5714286,,,,,,,,,,,,,,,,,,,,,,,842.7606,843.6424,l,0,0.2259,,0.2259,0,843.6428,844.1425,,,,,,360,MAS,NOWORD,AGR,150,cacer,,el,,844.1425,844.1425,0.024305556,-0.499305619,0,0,0,,0,214,214,359,1,calor,,,,
,,,,,,5883a935c0c9a10001df6345,676192165fb32c2e1fb7aee6,67d15ef658710532218c3bf8,2025-03-12_11h24.30.003,Tarea de decisión léxica,2024.2.5,Win32,178.5714286,,,,,,,,,,,,,,,,,,,,,,,844.143,845.1591,l,1,0.3569,,0.3569,1,845.1595,845.6589,,,,,,429,FEM,WORD,DIS,150,tarta,,el,,845.659,845.6591,0.024305556,-0.499305619,0,0,0,,0,215,215,428,1,tenta,,,,
,,,,,,5883a935c0c9a10001df6345,676192165fb32c2e1fb7aee6,67d15ef658710532218c3bf8,2025-03-12_11h24.30.003,Tarea de decisión léxica,2024.2.5,Win32,178.5714286,,,,,,,,,,,,,,,,,,,,,,,845.6595,846.6701,l,1,0.3506,,0.3506,1,846.6702,847.1701,,,,,,389,MAS,WORD,AGR,150,cerdo,,el,,847.1701,847.1702,0.024305556,-0.499305619,0,0,0,,0,216,216,388,1,cenco,,,,
,,,,,,5883a935c0c9a10001df6345,676192165fb32c2e1fb7aee6,67d15ef658710532218c3bf8,2025-03-12_11h24.30.003,Tarea de decisión léxica,2024.2.5,Win32,178.5714286,,,,,,,,,,,,,,,,,,,,,,,847.1706,848.109,a,1,0.2815,,0.2815,1,848.109,848.609,,,,,,160,MAS,NOWORD,AGR,150,bilo,,el,,848.609,848.6091,0.024305556,-0.499305619,0,0,0,,0,217,217,159,1,giro,,,,
,,,,,,5883a935c0c9a10001df6345,676192165fb32c2e1fb7aee6,67d15ef658710532218c3bf8,2025-03-12_11h24.30.003,Tarea de decisión léxica,2024.2.5,Win32,178.5714286,,,,,,,,,,,,,,,,,,,,,,,848.6095,849.5756,l,1,0.3067,,0.3067,1,849.5756,850.0756,,,,,,297,MAS,WORD,AGR,150,grupo,,el,,850.0762,850.0767,0.024305556,-0.499305619,0,0,0,,0,218,218,296,1,brubo,,,,
,,,,,,5883a935c0c9a10001df6345,676192165fb32c2e1fb7aee6,67d15ef658710532218c3bf8,2025-03-12_11h24.30.003,Tarea de decisión léxica,2024.2.5,Win32,178.5714286,,,,,,,,,,,,,,,,,,,,,,,850.0769,851.1645,l,1,0.4323,,0.4323,1,851.1645,851.6645,,,,,,189,MAS,WORD,DIS,150,puño,,la,,851.6645,851.6646,0.024305556,-0.499305619,0,0,0,,0,219,219,188,1,muvo,,,,
,,,,,,5883a935c0c9a10001df6345,676192165fb32c2e1fb7aee6,67d15ef658710532218c3bf8,2025-03-12_11h24.30.003,Tarea de decisión léxica,2024.2.5,Win32,178.5714286,,,,,,,,,,,,,,,,,,,,,,,851.6651,852.6867,l,1,0.3627,,0.3627,1,852.6868,853.1866,,,,,,277,MAS,WORD,AGR,150,fuego,,el,,853.1867,853.1868,0.024305556,-0.499305619,0,0,0,,0,220,220,276,1,vuemo,,,,
,,,,,,5883a935c0c9a10001df6345,676192165fb32c2e1fb7aee6,67d15ef658710532218c3bf8,2025-03-12_11h24.30.003,Tarea de decisión léxica,2024.2.5,Win32,178.5714286,,,,,,,,,,,,,,,,,,,,,,,853.1872,854.3922,l,1,0.5467,,0.5467,1,854.3922,854.8922,,,,,,77,MAS,WORD,AGR,150,loco,,el,,854.8922,854.8922,0.024305556,-0.499305619,0,0,0,,0,221,221,76,1,fodo,,,,
,,,,,,5883a935c0c9a10001df6345,676192165fb32c2e1fb7aee6,67d15ef658710532218c3bf8,2025-03-12_11h24.30.003,Tarea de decisión léxica,2024.2.5,Win32,178.5714286,,,,,,,,,,,,,,,,,,,,,,,854.8928,855.9922,a,1,0.4422,,0.4422,1,855.9923,856.4922,,,,,,376,FEM,NOWORD,AGR,150,sasna,,la,,856.4923,856.4923,0.024305556,-0.499305619,0,0,0,,0,222,222,375,1,salsa,,,,
,,,,,,5883a935c0c9a10001df6345,676192165fb32c2e1fb7aee6,67d15ef658710532218c3bf8,2025-03-12_11h24.30.003,Tarea de decisión léxica,2024.2.5,Win32,178.5714286,,,,,,,,,,,,,,,,,,,,,,,856.493,857.5422,a,1,0.3935,,0.3935,1,857.5423,858.0421,,,,,,74,MAS,NOWORD,DIS,150,omio,,la,,858.0426,858.043,0.024305556,-0.499305619,0,0,0,,0,223,223,73,1,odio,,,,
,,,,,,5883a935c0c9a10001df6345,676192165fb32c2e1fb7aee6,67d15ef658710532218c3bf8,2025-03-12_11h24.30.003,Tarea de decisión léxica,2024.2.5,Win32,178.5714286,,,,,,,,,,,,,,,,,,,,,,,858.0432,859.0756,a,1,0.3756,,0.3756,1,859.0756,859.5755,,,,,,378,MAS,NOWORD,DIS,150,gaulo,,la,,859.5756,859.5756,0.024305556,-0.499305619,0,0,0,,0,224,224,377,1,hielo,,,,
,,,,,,5883a935c0c9a10001df6345,676192165fb32c2e1fb7aee6,67d15ef658710532218c3bf8,2025-03-12_11h24.30.003,Tarea de decisión léxica,2024.2.5,Win32,178.5714286,,,,,,,,,,,,,,,,,,,,,,,859.5764,860.7199,l,1,0.4845,,0.4845,1,860.72,861.2199,,,,,,165,FEM,WORD,DIS,150,vela,,el,,861.2199,861.22,0.024305556,-0.499305619,0,0,0,,0,225,225,164,1,dera,,,,
,,,,,,5883a935c0c9a10001df6345,676192165fb32c2e1fb7aee6,67d15ef658710532218c3bf8,2025-03-12_11h24.30.003,Tarea de decisión léxica,2024.2.5,Win32,178.5714286,,,,,,,,,,,,,,,,,,,,,,,861.2204,862.2977,l,1,0.4183,,0.4183,1,862.2977,862.7976,,,,,,31,FEM,WORD,AGR,150,ropa,,la,,862.7978,862.7978,0.024305556,-0.499305619,0,0,0,,0,226,226,30,1,bova,,,,
,,,,,,5883a935c0c9a10001df6345,676192165fb32c2e1fb7aee6,67d15ef658710532218c3bf8,2025-03-12_11h24.30.003,Tarea de decisión léxica,2024.2.5,Win32,178.5714286,,,,,,,,,,,,,,,,,,,,,,,862.7983,863.7921,l,1,0.3367,,0.3367,1,863.7922,864.2921,,,,,,255,MAS,WORD,AGR,150,miedo,,el,,864.2927,864.293,0.024305556,-0.499305619,0,0,0,,0,227,227,254,1,mauco,,,,
,,,,,,5883a935c0c9a10001df6345,676192165fb32c2e1fb7aee6,67d15ef658710532218c3bf8,2025-03-12_11h24.30.003,Tarea de decisión léxica,2024.2.5,Win32,178.5714286,,,,,,,,,,,,,,,,,,,,,,,864.2933,865.3533,l,1,0.4022,,0.4022,1,865.3533,865.8533,,,,,,99,MAS,WORD,DIS,150,lobo,,la,,865.8533,865.8534,0.024305556,-0.499305619,0,0,0,,0,228,228,98,1,soro,,,,
,,,,,,5883a935c0c9a10001df6345,676192165fb32c2e1fb7aee6,67d15ef658710532218c3bf8,2025-03-12_11h24.30.003,Tarea de decisión léxica,2024.2.5,Win32,178.5714286,,,,,,,,,,,,,,,,,,,,,,,865.854,866.8698,l,1,0.356,,0.356,1,866.8699,867.3698,,,,,,167,FEM,WORD,AGR,150,jefa,,la,,867.3699,867.3699,0.024305556,-0.499305619,0,0,0,,0,229,229,166,1,zifa,,,,
,,,,,,5883a935c0c9a10001df6345,676192165fb32c2e1fb7aee6,67d15ef658710532218c3bf8,2025-03-12_11h24.30.003,Tarea de decisión léxica,2024.2.5,Win32,178.5714286,,,,,,,,,,,,,,,,,,,,,,,867.3704,868.4086,l,1,0.3813,,0.3813,1,868.4087,868.9086,,,,,,199,MAS,WORD,DIS,150,lazo,,la,,868.9087,868.9088,0.024305556,-0.499305619,0,0,0,,0,230,230,198,1,fano,,,,
,,,,,,5883a935c0c9a10001df6345,676192165fb32c2e1fb7aee6,67d15ef658710532218c3bf8,2025-03-12_11h24.30.003,Tarea de decisión léxica,2024.2.5,Win32,178.5714286,,,,,,,,,,,,,,,,,,,,,,,868.9096,869.9865,a,1,0.4167,,0.4167,1,869.9865,870.4864,,,,,,16,FEM,NOWORD,AGR,150,odea,,la,,870.4864,870.4865,0.024305556,-0.499305619,0,0,0,,0,231,231,15,1,idea,,,,
,,,,,,5883a935c0c9a10001df6345,676192165fb32c2e1fb7aee6,67d15ef658710532218c3bf8,2025-03-12_11h24.30.003,Tarea de decisión léxica,2024.2.5,Win32,178.5714286,,,,,,,,,,,,,,,,,,,,,,,870.4869,871.4643,a,1,0.3169,,0.3169,1,871.4643,871.9642,,,,,,448,MAS,NOWORD,AGR,150,buaso,,el,,871.9647,871.9651,0.024305556,-0.499305619,0,0,0,,0,232,232,447,1,bolso,,,,
,,,,,,5883a935c0c9a10001df6345,676192165fb32c2e1fb7aee6,67d15ef658710532218c3bf8,2025-03-12_11h24.30.003,Tarea de decisión léxica,2024.2.5,Win32,178.5714286,,,,,,,,,,,,,,,,,,,,,,,871.9653,873.0754,l,1,0.4541,,0.4541,1,873.0754,873.5753,,,,,,97,MAS,WORD,AGR,150,mono,,el,,873.5753,873.5755,0.024305556,-0.499305619,0,0,0,,0,233,233,96,1,fopo,,,,
,,,,,,5883a935c0c9a10001df6345,676192165fb32c2e1fb7aee6,67d15ef658710532218c3bf8,2025-03-12_11h24.30.003,Tarea de decisión léxica,2024.2.5,Win32,178.5714286,,,,,,,,,,,,,,,,,,,,,,,873.5759,874.6641,l,1,0.4313,,0.4313,1,874.6641,875.1642,,,,,,409,MAS,WORD,AGR,150,carro,,el,,875.1642,875.1642,0.024305556,-0.499305619,0,0,0,,0,234,234,408,1,pafro,,,,
,,,,,,5883a935c0c9a10001df6345,676192165fb32c2e1fb7aee6,67d15ef658710532218c3bf8,2025-03-12_11h24.30.003,Tarea de decisión léxica,2024.2.5,Win32,178.5714286,,,,,,,,,,,,,,,,,,,,,,,875.1647,876.1919,l,1,0.3705,,0.3705,1,876.192,876.6919,,,,,,157,MAS,WORD,AGR,150,nido,,el,,876.692,876.692,0.024305556,-0.499305619,0,0,0,,0,235,235,156,1,hico,,,,
,,,,,,5883a935c0c9a10001df6345,676192165fb32c2e1fb7aee6,67d15ef658710532218c3bf8,2025-03-12_11h24.30.003,Tarea de decisión léxica,2024.2.5,Win32,178.5714286,,,,,,,,,,,,,,,,,,,,,,,876.6924,877.9086,a,1,0.5555,,0.5555,1,877.9086,878.4086,,,,,,204,FEM,NOWORD,AGR,150,beja,,la,,878.4086,878.4088,0.024305556,-0.499305619,0,0,0,,0,236,236,203,1,leña,,,,
,,,,,,5883a935c0c9a10001df6345,676192165fb32c2e1fb7aee6,67d15ef658710532218c3bf8,2025-03-12_11h24.30.003,Tarea de decisión léxica,2024.2.5,Win32,178.5714286,,,,,,,,,,,,,,,,,,,,,,,878.4092,879.4252,l,1,0.3575,,0.3575,1,879.4253,879.9253,,,,,,329,MAS,WORD,DIS,150,hueso,,la,,879.9259,879.9263,0.024305556,-0.499305619,0,0,0,,0,237,237,328,1,nueno,,,,
,,,,,,5883a935c0c9a10001df6345,676192165fb32c2e1fb7aee6,67d15ef658710532218c3bf8,2025-03-12_11h24.30.003,Tarea de decisión léxica,2024.2.5,Win32,178.5714286,,,,,,,,,,,,,,,,,,,,,,,879.9266,880.9363,a,1,0.3512,,0.3512,1,880.9363,881.4363,,,,,,254,MAS,NOWORD,DIS,150,trido,,la,,881.4364,881.4364,0.024305556,-0.499305619,0,0,0,,0,238,238,253,1,chico,,,,
,,,,,,5883a935c0c9a10001df6345,676192165fb32c2e1fb7aee6,67d15ef658710532218c3bf8,2025-03-12_11h24.30.003,Tarea de decisión léxica,2024.2.5,Win32,178.5714286,,,,,,,,,,,,,,,,,,,,,,,881.4368,882.4918,l,0,0.3962,,0.3962,0,882.4922,882.9919,,,,,,320,MAS,NOWORD,AGR,150,tuero,,el,,882.9919,882.992,0.024305556,-0.499305619,0,0,0,,0,239,239,319,1,suelo,,,,
,,,,,,5883a935c0c9a10001df6345,676192165fb32c2e1fb7aee6,67d15ef658710532218c3bf8,2025-03-12_11h24.30.003,Tarea de decisión léxica,2024.2.5,Win32,178.5714286,,,,,,,,,,,,,,,,,,,,,,,882.9924,883.9752,l,1,0.3234,,0.3234,1,883.9755,884.4751,,,,,,129,MAS,WORD,DIS,150,oído,,la,,884.4751,884.4752,0.024305556,-0.499305619,0,0,0,,0,240,240,128,1,pima,,,,
,,,,,,5883a935c0c9a10001df6345,676192165fb32c2e1fb7aee6,67d15ef658710532218c3bf8,2025-03-12_11h24.30.003,Tarea de decisión léxica,2024.2.5,Win32,178.5714286,,,,,,,,,,,,,,,,,,,,,,,884.4758,885.5362,l,1,0.4005,,0.4005,1,885.5363,886.0362,,,,,,407,FEM,WORD,DIS,150,cueva,,el,,886.0363,886.0364,0.024305556,-0.499305619,0,0,0,,0,241,241,406,1,cauba,,,,
,,,,,,5883a935c0c9a10001df6345,676192165fb32c2e1fb7aee6,67d15ef658710532218c3bf8,2025-03-12_11h24.30.003,Tarea de decisión léxica,2024.2.5,Win32,178.5714286,,,,,,,,,,,,,,,,,,,,,,,886.0367,887.0975,a,1,0.4048,,0.4048,1,887.0975,887.5974,,,,,,328,MAS,NOWORD,AGR,150,lendo,,el,,887.5978,887.5982,0.024305556,-0.499305619,0,0,0,,0,242,242,327,1,fondo,,,,
,,,,,,5883a935c0c9a10001df6345,676192165fb32c2e1fb7aee6,67d15ef658710532218c3bf8,2025-03-12_11h24.30.003,Tarea de decisión léxica,2024.2.5,Win32,178.5714286,,,,,,,,,,,,,,,,,,,,,,,887.5984,888.6419,a,1,0.3856,,0.3856,1,888.6419,889.1417,,,,,,468,MAS,NOWORD,AGR,150,peiso,,el,,889.1417,889.1418,0.024305556,-0.499305619,0,0,0,,0,243,243,467,1,piano,,,,
,,,,,,5883a935c0c9a10001df6345,676192165fb32c2e1fb7aee6,67d15ef658710532218c3bf8,2025-03-12_11h24.30.003,Tarea de decisión léxica,2024.2.5,Win32,178.5714286,,,,,,,,,,,,,,,,,,,,,,,889.1422,890.1585,a,1,0.3559,,0.3559,1,890.1585,890.6584,,,,,,340,MAS,NOWORD,AGR,150,plajo,,el,,890.6585,890.6586,0.024305556,-0.499305619,0,0,0,,0,244,244,339,1,brazo,,,,
,,,,,,5883a935c0c9a10001df6345,676192165fb32c2e1fb7aee6,67d15ef658710532218c3bf8,2025-03-12_11h24.30.003,Tarea de decisión léxica,2024.2.5,Win32,178.5714286,,,,,,,,,,,,,,,,,,,,,,,890.659,891.564,l,1,0.2444,,0.2444,1,891.564,892.0639,,,,,,365,FEM,WORD,DIS,150,ducha,,el,,892.064,892.0641,0.024305556,-0.499305619,0,0,0,,0,245,245,364,1,gulla,,,,
,,,,,,5883a935c0c9a10001df6345,676192165fb32c2e1fb7aee6,67d15ef658710532218c3bf8,2025-03-12_11h24.30.003,Tarea de decisión léxica,2024.2.5,Win32,178.5714286,,,,,,,,,,,,,,,,,,,,,,,892.0645,893.0917,l,1,0.3707,,0.3707,1,893.0918,893.5918,,,,,,33,FEM,WORD,DIS,150,boca,,el,,893.5918,893.5918,0.024305556,-0.499305619,0,0,0,,0,246,246,32,1,loda,,,,
,,,,,,5883a935c0c9a10001df6345,676192165fb32c2e1fb7aee6,67d15ef658710532218c3bf8,2025-03-12_11h24.30.003,Tarea de decisión léxica,2024.2.5,Win32,178.5714286,,,,,,,,,,,,,,,,,,,,,,,893.5924,894.5861,l,1,0.335,,0.335,1,894.5862,895.0862,,,,,,273,FEM,WORD,DIS,150,broma,,el,,895.0867,895.087,0.024305556,-0.499305619,0,0,0,,0,247,247,272,1,frosa,,,,
,,,,,,5883a935c0c9a10001df6345,676192165fb32c2e1fb7aee6,67d15ef658710532218c3bf8,2025-03-12_11h24.30.003,Tarea de decisión léxica,2024.2.5,Win32,178.5714286,,,,,,,,,,,,,,,,,,,,,,,895.0873,896.1585,l,1,0.4149,,0.4149,1,896.1585,896.6583,,,,,,307,MAS,WORD,DIS,150,hotel,,la,,896.6583,896.6584,0.024305556,-0.499305619,0,0,0,,0,248,248,306,1,holol,,,,
,,,,,,5883a935c0c9a10001df6345,676192165fb32c2e1fb7aee6,67d15ef658710532218c3bf8,2025-03-12_11h24.30.003,Tarea de decisión léxica,2024.2.5,Win32,178.5714286,,,,,,,,,,,,,,,,,,,,,,,896.6588,897.7917,a,1,0.4757,,0.4757,1,897.7917,898.2916,,,,,,296,MAS,NOWORD,AGR,150,goler,,el,,898.2916,898.2917,0.024305556,-0.499305619,0,0,0,,0,249,249,295,1,dolor,,,,
,,,,,,5883a935c0c9a10001df6345,676192165fb32c2e1fb7aee6,67d15ef658710532218c3bf8,2025-03-12_11h24.30.003,Tarea de decisión léxica,2024.2.5,Win32,178.5714286,,,,,,,,,,,,,,,,,,,,,,,898.2923,899.3916,a,1,0.4389,,0.4389,1,899.3917,899.8916,,,,,,388,FEM,NOWORD,AGR,150,bresa,,la,,899.8916,899.8918,0.024305556,-0.499305619,0,0,0,,0,250,250,387,1,crema,,,,
,,,,,,5883a935c0c9a10001df6345,676192165fb32c2e1fb7aee6,67d15ef658710532218c3bf8,2025-03-12_11h24.30.003,Tarea de decisión léxica,2024.2.5,Win32,178.5714286,,,,,,,,,,,,,,,,,,,,,,,899.8922,900.9583,l,1,0.408,,0.408,1,900.9583,901.4583,,,,,,119,MAS,WORD,DIS,150,pozo,,la,,901.4589,901.4592,0.024305556,-0.499305619,0,0,0,,0,251,251,118,1,hooy,,,,
,,,,,,5883a935c0c9a10001df6345,676192165fb32c2e1fb7aee6,67d15ef658710532218c3bf8,2025-03-12_11h24.30.003,Tarea de decisión léxica,2024.2.5,Win32,178.5714286,,,,,,,,,,,,,,,,,,,,,,,901.4595,902.525,a,1,0.4063,,0.4063,1,902.5251,903.025,,,,,,312,MAS,NOWORD,AGR,150,nosor,,el,,903.025,903.025,0.024305556,-0.499305619,0,0,0,,0,252,252,311,1,honor,,,,
,,,,,,5883a935c0c9a10001df6345,676192165fb32c2e1fb7aee6,67d15ef658710532218c3bf8,2025-03-12_11h24.30.003,Tarea de decisión léxica,2024.2.5,Win32,178.5714286,,,,,,,,,,,,,,,,,,,,,,,903.0255,904.0804,l,1,0.396,,0.396,1,904.0805,904.5805,,,,,,315,FEM,WORD,DIS,150,reina,,el,,904.5805,904.5805,0.024305556,-0.499305619,0,0,0,,0,253,253,314,1,riosa,,,,
,,,,,,5883a935c0c9a10001df6345,676192165fb32c2e1fb7aee6,67d15ef658710532218c3bf8,2025-03-12_11h24.30.003,Tarea de decisión léxica,2024.2.5,Win32,178.5714286,,,,,,,,,,,,,,,,,,,,,,,904.581,905.6027,l,1,0.3635,,0.3635,1,905.6027,906.1027,,,,,,311,MAS,WORD,AGR,150,honor,,el,,906.1027,906.1028,0.024305556,-0.499305619,0,0,0,,0,254,254,310,1,nosor,,,,
,,,,,,5883a935c0c9a10001df6345,676192165fb32c2e1fb7aee6,67d15ef658710532218c3bf8,2025-03-12_11h24.30.003,Tarea de decisión léxica,2024.2.5,Win32,178.5714286,,,,,,,,,,,,,,,,,,,,,,,906.1033,907.1749,l,1,0.4113,,0.4113,1,907.175,907.6749,,,,,,221,FEM,WORD,DIS,150,mula,,el,,907.6749,907.675,0.024305556,-0.499305619,0,0,0,,0,255,255,220,1,puca,,,,
,,,,,,5883a935c0c9a10001df6345,676192165fb32c2e1fb7aee6,67d15ef658710532218c3bf8,2025-03-12_11h24.30.003,Tarea de decisión léxica,2024.2.5,Win32,178.5714286,,,,,,,,,,,,,,,,,,,,,,,907.6755,908.9138,a,1,0.5804,,0.5804,1,908.9138,909.4137,,,,,,322,MAS,NOWORD,DIS,150,rarco,,la,,909.4142,909.4145,0.024305556,-0.499305619,0,0,0,,0,256,256,321,1,banco,,,,
,,,,,,5883a935c0c9a10001df6345,676192165fb32c2e1fb7aee6,67d15ef658710532218c3bf8,2025-03-12_11h24.30.003,Tarea de decisión léxica,2024.2.5,Win32,178.5714286,,,,,,,,,,,,,,,,,,,,,,,909.4148,910.5305,a,0,0.4569,,0.4569,0,910.5308,911.0304,,,,,,139,MAS,WORD,AGR,150,mago,,el,,911.0304,911.0305,0.024305556,-0.499305619,0,0,0,,0,257,257,138,1,nila,,,,
,,,,,,5883a935c0c9a10001df6345,676192165fb32c2e1fb7aee6,67d15ef658710532218c3bf8,2025-03-12_11h24.30.003,Tarea de decisión léxica,2024.2.5,Win32,178.5714286,,,,,,,,,,,,,,,,,,,,,,,911.0309,911.8971,l,1,0.2093,,0.2093,1,911.8974,912.397,,,,,,237,MAS,WORD,AGR,150,nudo,,el,,912.397,912.3971,0.024305556,-0.499305619,0,0,0,,0,258,258,236,1,huco,,,,
,,,,,,5883a935c0c9a10001df6345,676192165fb32c2e1fb7aee6,67d15ef658710532218c3bf8,2025-03-12_11h24.30.003,Tarea de decisión léxica,2024.2.5,Win32,178.5714286,,,,,,,,,,,,,,,,,,,,,,,912.3975,913.5081,l,1,0.4528,,0.4528,1,913.5082,914.0082,,,,,,439,FEM,WORD,DIS,150,presa,,el,,914.0082,914.0082,0.024305556,-0.499305619,0,0,0,,0,259,259,438,1,prema,,,,
,,,,,,5883a935c0c9a10001df6345,676192165fb32c2e1fb7aee6,67d15ef658710532218c3bf8,2025-03-12_11h24.30.003,Tarea de decisión léxica,2024.2.5,Win32,178.5714286,,,,,,,,,,,,,,,,,,,,,,,914.0088,914.9805,l,1,0.3161,,0.3161,1,914.9806,915.4803,,,,,,91,FEM,WORD,DIS,150,taza,,el,,915.4803,915.4805,0.024305556,-0.499305619,0,0,0,,0,260,260,90,1,sava,,,,
,,,,,,5883a935c0c9a10001df6345,676192165fb32c2e1fb7aee6,67d15ef658710532218c3bf8,2025-03-12_11h24.30.003,Tarea de decisión léxica,2024.2.5,Win32,178.5714286,,,,,,,,,,,,,,,,,,,,,,,915.4808,916.3359,l,1,0.1978,,0.1978,1,916.3359,916.8359,,,,,,203,FEM,WORD,DIS,150,leña,,el,,916.8365,916.837,0.024305556,-0.499305619,0,0,0,,0,261,261,202,1,beja,,,,
,,,,,,5883a935c0c9a10001df6345,676192165fb32c2e1fb7aee6,67d15ef658710532218c3bf8,2025-03-12_11h24.30.003,Tarea de decisión léxica,2024.2.5,Win32,178.5714286,,,,,,,,,,,,,,,,,,,,,,,916.8373,917.8359,a,1,0.3397,,0.3397,1,917.836,918.3359,,,,,,408,FEM,NOWORD,AGR,150,cauba,,la,,918.3359,918.3359,0.024305556,-0.499305619,0,0,0,,0,262,262,407,1,cueva,,,,
,,,,,,5883a935c0c9a10001df6345,676192165fb32c2e1fb7aee6,67d15ef658710532218c3bf8,2025-03-12_11h24.30.003,Tarea de decisión léxica,2024.2.5,Win32,178.5714286,,,,,,,,,,,,,,,,,,,,,,,918.3364,919.3969,l,1,0.4,,0.4,1,919.3969,919.897,,,,,,69,FEM,WORD,AGR,150,zona,,la,,919.897,919.8971,0.024305556,-0.499305619,0,0,0,,0,263,263,68,1,ñola,,,,
