counterbalancing_condition,consent_prescreening.block_1/declare_consent,consent_prescreening.block_1/age_years,consent_prescreening.block_1/gender,consent_prescreening.block_1/language_disorder,consent_prescreening.block_1/first_language,PROLIFIC_PID,STUDY_ID,SESSION_ID,date,expName,psychopyVersion,OS,frameRate,check_prescreening_answers.started,check_prescreening_answers.stopped,Instructions.started,Instructions.stopped,instr_done_keyboard.keys,instr_done_keyboard.rt,instr_done_keyboard.duration,instr_done_touch.x,instr_done_touch.y,instr_done_touch.leftButton,instr_done_touch.midButton,instr_done_touch.rightButton,instruction_pages.thisRepN,instruction_pages.thisTrialN,instruction_pages.thisN,instruction_pages.thisIndex,instruction_pages.ran,pageN,phase,instruct_text,has_image,instruct_image,presentTrial.started,presentTrial.stopped,response.keys,response.corr,response.rt,response.duration,rt,corr,feedback.started,feedback.stopped,practice_trials.thisRepN,practice_trials.thisTrialN,practice_trials.thisN,practice_trials.thisIndex,practice_trials.ran,TrialID,Gender,StimulusType,Condition,PrimeDuration,Prime,len,Flanker,corrAns,Break.started,Break.stopped,break_done_touch.x,break_done_touch.y,break_done_touch.leftButton,break_done_touch.midButton,break_done_touch.rightButton,break_done_keyboard.keys,experiment_trials.thisRepN,experiment_trials.thisTrialN,experiment_trials.thisN,experiment_trials.thisIndex,experiment_trials.ran,PairedWith,break_done_keyboard.rt,break_done_keyboard.duration,End.started,End.stopped
2,"[""over_18"",""comfortable"",""read_info"",""consent_given""]",28,F,"[""none""]","[""spanish""]",5b5fdd52b36c3400014718b9,676192165fb32c2e1fb7aee6,67d1e7f51d375456c164ad6b,2025-03-12_14h00.51.308,Tarea de decisión léxica,2024.2.5,Win32,59.88023952,,,,,,,,,,,,,,,,,,,,,,,,,,,,,,,,,,,,,,,,,,,,,,,,,,,,,,,,,,,,,,,,
,,,,,,5b5fdd52b36c3400014718b9,676192165fb32c2e1fb7aee6,67d1e7f51d375456c164ad6b,2025-03-12_14h00.51.308,Tarea de decisión léxica,2024.2.5,Win32,59.88023952,35.4883,35.4885,,,,,,,,,,,,,,,,,,,,,,,,,,,,,,,,,,,,,,,,,,,,,,,,,,,,,,,,,,,,,,
,,,,,,5b5fdd52b36c3400014718b9,676192165fb32c2e1fb7aee6,67d1e7f51d375456c164ad6b,2025-03-12_14h00.51.308,Tarea de decisión léxica,2024.2.5,Win32,59.88023952,,,35.5251,46.6753,space,11.0899,,-0.033333333,-0.388888889,0,0,0,0,0,0,0,1,1,instructions,"INSTRUCCIONES
Va a realizar una prueba de decisión léxica. Desde el comienzo de la prueba mire siempre al centro de la pantalla. Se presentará una serie de cadenas de letras, una a la vez, en la pantalla. Su tarea consiste en determinar si cada cadena de letras constituye una palabra real en español o una no-palabra (una secuencia de letras que no constituye una palabra real). 

Pulse la tecla ESPACIO para continuar.",0,keyboardresponseNW.png,,,,,,,,,,,,,,,,,,,,,,,,,,,,,,,,,,,,,,,,,,
,,,,,,5b5fdd52b36c3400014718b9,676192165fb32c2e1fb7aee6,67d1e7f51d375456c164ad6b,2025-03-12_14h00.51.308,Tarea de decisión léxica,2024.2.5,Win32,59.88023952,,,46.6821,54.0764,space,7.3703,,0.074074074,-0.181481481,0,0,0,0,1,1,1,1,2,instructions,"El procedimiento es el siguiente: Aparecerán dos barras verticales posicionadas en el centro de la pantalla, separadas por un pequeño espacio.Por favor, enfoque su atención en el espacio entre las barras. Esto preparará sus ojos para la siguiente cadena de letras, que aparecerá entre las dos barras durante un instante.

Pulse la tecla ESPACIO para continuar.",0,keyboardresponseNW.png,,,,,,,,,,,,,,,,,,,,,,,,,,,,,,,,,,,,,,,,,,
,,,,,,5b5fdd52b36c3400014718b9,676192165fb32c2e1fb7aee6,67d1e7f51d375456c164ad6b,2025-03-12_14h00.51.308,Tarea de decisión léxica,2024.2.5,Win32,59.88023952,,,54.0791,59.0568,space,4.9152,,0.074074074,-0.181481481,0,0,0,0,2,2,2,1,3,instructions,"En el teclado de su dispositivo, pulse la tecla ""L"" si la cadena de letras es una palabra real en español (por ejemplo: ""mano"") y la tecla ""A"" si la cadena de letras es una no-palabra (por ejemplo: ""minu"").
Pulse la tecla ESPACIO para continuar.",1,keyboardresponseNW.png,,,,,,,,,,,,,,,,,,,,,,,,,,,,,,,,,,,,,,,,,,
,,,,,,5b5fdd52b36c3400014718b9,676192165fb32c2e1fb7aee6,67d1e7f51d375456c164ad6b,2025-03-12_14h00.51.308,Tarea de decisión léxica,2024.2.5,Win32,59.88023952,,,59.0676,67.4468,space,8.3479,,0.074074074,-0.181481481,0,0,0,0,3,3,3,1,4,instructions,"Es muy importante que responda con la mayor rapidez y precisión posibles. Si no responde dentro de 2 segundos, aparecerá el mensaje ""Muy lento"" y el experimento pasará a la siguiente palabra. Inmediatamente después de su respuesta se indicará si fue correcta o no. Los primeros 15 intentos serán de práctica y habrá dos descansos durante la prueba.

Pulse la tecla ESPACIO  para iniciar la parte de práctica.",0,keyboardresponseNW.png,,,,,,,,,,,,,,,,,,,,,,,,,,,,,,,,,,,,,,,,,,
,,,,,,5b5fdd52b36c3400014718b9,676192165fb32c2e1fb7aee6,67d1e7f51d375456c164ad6b,2025-03-12_14h00.51.308,Tarea de decisión léxica,2024.2.5,Win32,59.88023952,,,,,,,,,,,,,,,,,,,,,,,67.4664,70.0367,a,1,1.8924,,1.8924,1,70.038,70.5341,0,0,0,0,1,1001,FEM,NOWORD,AGR,150,croz,4,la,a,,,,,,,,,,,,,,,,,,
,,,,,,5b5fdd52b36c3400014718b9,676192165fb32c2e1fb7aee6,67d1e7f51d375456c164ad6b,2025-03-12_14h00.51.308,Tarea de decisión léxica,2024.2.5,Win32,59.88023952,,,,,,,,,,,,,,,,,,,,,,,70.5397,71.9691,l,0,0.7671,,0.7671,0,71.9738,72.4692,0,1,1,2,1,1003,FEM,NOWORD,DIS,150,muvor,5,el,a,,,,,,,,,,,,,,,,,,
,,,,,,5b5fdd52b36c3400014718b9,676192165fb32c2e1fb7aee6,67d1e7f51d375456c164ad6b,2025-03-12_14h00.51.308,Tarea de decisión léxica,2024.2.5,Win32,59.88023952,,,,,,,,,,,,,,,,,,,,,,,72.4727,73.5148,a,0,0.3685,,0.3685,0,73.5149,74.0085,0,2,2,5,1,1006,FEM,WORD,AGR,150,cara,4,la,l,,,,,,,,,,,,,,,,,,
,,,,,,5b5fdd52b36c3400014718b9,676192165fb32c2e1fb7aee6,67d1e7f51d375456c164ad6b,2025-03-12_14h00.51.308,Tarea de decisión léxica,2024.2.5,Win32,59.88023952,,,,,,,,,,,,,,,,,,,,,,,74.0106,75.6568,a,1,0.9699,,0.9699,1,75.6606,76.1571,0,3,3,1,1,1002,FEM,NOWORD,DIS,150,mabo,4,el,a,,,,,,,,,,,,,,,,,,
,,,,,,5b5fdd52b36c3400014718b9,676192165fb32c2e1fb7aee6,67d1e7f51d375456c164ad6b,2025-03-12_14h00.51.308,Tarea de decisión léxica,2024.2.5,Win32,59.88023952,,,,,,,,,,,,,,,,,,,,,,,76.1614,77.476,l,1,0.6412,,0.6412,1,77.4767,77.9753,0,4,4,7,1,1008,MAS,WORD,DIS,150,frío,4,la,l,,,,,,,,,,,,,,,,,,
,,,,,,5b5fdd52b36c3400014718b9,676192165fb32c2e1fb7aee6,67d1e7f51d375456c164ad6b,2025-03-12_14h00.51.308,Tarea de decisión léxica,2024.2.5,Win32,59.88023952,,,,,,,,,,,,,,,,,,,,,,,77.9789,79.1597,l,1,0.5008,,0.5008,1,79.1597,79.6599,0,5,5,6,1,1007,MAS,WORD,DIS,150,masa,4,la,l,,,,,,,,,,,,,,,,,,
,,,,,,5b5fdd52b36c3400014718b9,676192165fb32c2e1fb7aee6,67d1e7f51d375456c164ad6b,2025-03-12_14h00.51.308,Tarea de decisión léxica,2024.2.5,Win32,59.88023952,,,,,,,,,,,,,,,,,,,,,,,79.662,80.8785,l,1,0.5564,,0.5564,1,80.8787,81.3788,0,6,6,9,1,1010,MAS,WORD,DIS,150,video,5,la,l,,,,,,,,,,,,,,,,,,
,,,,,,5b5fdd52b36c3400014718b9,676192165fb32c2e1fb7aee6,67d1e7f51d375456c164ad6b,2025-03-12_14h00.51.308,Tarea de decisión léxica,2024.2.5,Win32,59.88023952,,,,,,,,,,,,,,,,,,,,,,,81.3812,82.5144,a,1,0.4735,,0.4735,1,82.5153,83.0138,0,7,7,4,1,1005,MAS,NOWORD,DIS,150,nobad,5,la,a,,,,,,,,,,,,,,,,,,
,,,,,,5b5fdd52b36c3400014718b9,676192165fb32c2e1fb7aee6,67d1e7f51d375456c164ad6b,2025-03-12_14h00.51.308,Tarea de decisión léxica,2024.2.5,Win32,59.88023952,,,,,,,,,,,,,,,,,,,,,,,83.0153,84.4103,l,1,0.7351,,0.7351,1,84.4108,84.8991,0,8,8,8,1,1009,FEM,WORD,AGR,150,viejo,5,la,l,,,,,,,,,,,,,,,,,,
,,,,,,5b5fdd52b36c3400014718b9,676192165fb32c2e1fb7aee6,67d1e7f51d375456c164ad6b,2025-03-12_14h00.51.308,Tarea de decisión léxica,2024.2.5,Win32,59.88023952,,,,,,,,,,,,,,,,,,,,,,,84.9004,86.1344,a,1,0.5709,,0.5709,1,86.1347,86.6345,0,9,9,3,1,1004,FEM,NOWORD,AGR,150,bireo,5,la,a,,,,,,,,,,,,,,,,,,
,,,,,,5b5fdd52b36c3400014718b9,676192165fb32c2e1fb7aee6,67d1e7f51d375456c164ad6b,2025-03-12_14h00.51.308,Tarea de decisión léxica,2024.2.5,Win32,59.88023952,,,91.9114,97.1481,space,5.2203,,0.074074074,-0.181481481,0,0,0,,,,,,,,,,,97.2349,98.611,l,1,0.703,,0.703,1,98.6114,99.1149,,,,,,375,FEM,WORD,AGR,150,salsa,,la,,99.1154,99.1209,0.074074074,-0.181481481,0,0,0,,0,0,0,374,1,sasna,,,,
,,,,,,5b5fdd52b36c3400014718b9,676192165fb32c2e1fb7aee6,67d1e7f51d375456c164ad6b,2025-03-12_14h00.51.308,Tarea de decisión léxica,2024.2.5,Win32,59.88023952,,,,,,,,,,,,,,,,,,,,,,,99.1218,100.1994,l,1,0.3944,,0.3944,1,100.1996,100.7,,,,,,311,MAS,WORD,AGR,150,honor,,el,,100.7002,100.7005,0.074074074,-0.181481481,0,0,0,,0,1,1,310,1,nosor,,,,
,,,,,,5b5fdd52b36c3400014718b9,676192165fb32c2e1fb7aee6,67d1e7f51d375456c164ad6b,2025-03-12_14h00.51.308,Tarea de decisión léxica,2024.2.5,Win32,59.88023952,,,,,,,,,,,,,,,,,,,,,,,100.7028,101.6539,l,0,0.2763,,0.2763,0,101.6561,102.1516,,,,,,86,MAS,NOWORD,DIS,150,babo,,la,,102.1539,102.1553,0.074074074,-0.181481481,0,0,0,,0,2,2,85,1,lago,,,,
,,,,,,5b5fdd52b36c3400014718b9,676192165fb32c2e1fb7aee6,67d1e7f51d375456c164ad6b,2025-03-12_14h00.51.308,Tarea de decisión léxica,2024.2.5,Win32,59.88023952,,,,,,,,,,,,,,,,,,,,,,,102.1575,103.1863,l,1,0.3516,,0.3516,1,103.1882,103.687,,,,,,419,MAS,WORD,AGR,150,truco,,el,,103.6871,103.6874,0.074074074,-0.181481481,0,0,0,,0,3,3,418,1,chudo,,,,
,,,,,,5b5fdd52b36c3400014718b9,676192165fb32c2e1fb7aee6,67d1e7f51d375456c164ad6b,2025-03-12_14h00.51.308,Tarea de decisión léxica,2024.2.5,Win32,59.88023952,,,,,,,,,,,,,,,,,,,,,,,103.6902,104.9216,a,1,0.5564,,0.5564,1,104.9219,105.4221,,,,,,248,FEM,NOWORD,AGR,150,trida,,la,,105.4223,105.4227,0.074074074,-0.181481481,0,0,0,,0,4,4,247,1,chica,,,,
,,,,,,5b5fdd52b36c3400014718b9,676192165fb32c2e1fb7aee6,67d1e7f51d375456c164ad6b,2025-03-12_14h00.51.308,Tarea de decisión léxica,2024.2.5,Win32,59.88023952,,,,,,,,,,,,,,,,,,,,,,,105.4262,106.5409,a,1,0.4322,,0.4322,1,106.5411,107.0295,,,,,,228,MAS,NOWORD,AGR,150,laro,,el,,107.0297,107.0301,0.074074074,-0.181481481,0,0,0,,0,5,5,227,1,faro,,,,
,,,,,,5b5fdd52b36c3400014718b9,676192165fb32c2e1fb7aee6,67d1e7f51d375456c164ad6b,2025-03-12_14h00.51.308,Tarea de decisión léxica,2024.2.5,Win32,59.88023952,,,,,,,,,,,,,,,,,,,,,,,107.033,108.1259,a,1,0.419,,0.419,1,108.1261,108.6257,,,,,,258,FEM,NOWORD,DIS,150,asama,,el,,108.6259,108.6264,0.074074074,-0.181481481,0,0,0,,0,6,6,257,1,amiga,,,,
,,,,,,5b5fdd52b36c3400014718b9,676192165fb32c2e1fb7aee6,67d1e7f51d375456c164ad6b,2025-03-12_14h00.51.308,Tarea de decisión léxica,2024.2.5,Win32,59.88023952,,,,,,,,,,,,,,,,,,,,,,,108.6301,109.7446,l,1,0.4354,,0.4354,1,109.745,110.2439,,,,,,51,FEM,WORD,AGR,150,caja,,la,,110.2465,110.2478,0.074074074,-0.181481481,0,0,0,,0,7,7,50,1,mava,,,,
,,,,,,5b5fdd52b36c3400014718b9,676192165fb32c2e1fb7aee6,67d1e7f51d375456c164ad6b,2025-03-12_14h00.51.308,Tarea de decisión léxica,2024.2.5,Win32,59.88023952,,,,,,,,,,,,,,,,,,,,,,,110.2487,111.3293,a,1,0.4022,,0.4022,1,111.3318,111.8287,,,,,,408,FEM,NOWORD,AGR,150,cauba,,la,,111.8287,111.8289,0.074074074,-0.181481481,0,0,0,,0,8,8,407,1,cueva,,,,
,,,,,,5b5fdd52b36c3400014718b9,676192165fb32c2e1fb7aee6,67d1e7f51d375456c164ad6b,2025-03-12_14h00.51.308,Tarea de decisión léxica,2024.2.5,Win32,59.88023952,,,,,,,,,,,,,,,,,,,,,,,111.83,112.8808,a,1,0.3887,,0.3887,1,112.8808,113.3804,,,,,,448,MAS,NOWORD,AGR,150,buaso,,el,,113.3805,113.3806,0.074074074,-0.181481481,0,0,0,,0,9,9,447,1,bolso,,,,
,,,,,,5b5fdd52b36c3400014718b9,676192165fb32c2e1fb7aee6,67d1e7f51d375456c164ad6b,2025-03-12_14h00.51.308,Tarea de decisión léxica,2024.2.5,Win32,59.88023952,,,,,,,,,,,,,,,,,,,,,,,113.3817,114.4485,l,1,0.4011,,0.4011,1,114.4486,114.9502,,,,,,395,FEM,WORD,AGR,150,caída,,la,,114.9503,114.9507,0.074074074,-0.181481481,0,0,0,,0,10,10,394,1,paeda,,,,
,,,,,,5b5fdd52b36c3400014718b9,676192165fb32c2e1fb7aee6,67d1e7f51d375456c164ad6b,2025-03-12_14h00.51.308,Tarea de decisión léxica,2024.2.5,Win32,59.88023952,,,,,,,,,,,,,,,,,,,,,,,114.9528,116.051,a,1,0.4196,,0.4196,1,116.0512,116.551,,,,,,354,FEM,NOWORD,DIS,150,cezca,,el,,116.553,116.5544,0.074074074,-0.181481481,0,0,0,,0,11,11,353,1,celda,,,,
,,,,,,5b5fdd52b36c3400014718b9,676192165fb32c2e1fb7aee6,67d1e7f51d375456c164ad6b,2025-03-12_14h00.51.308,Tarea de decisión léxica,2024.2.5,Win32,59.88023952,,,,,,,,,,,,,,,,,,,,,,,116.5563,117.5858,l,1,0.3556,,0.3556,1,117.586,118.0865,,,,,,277,MAS,WORD,DIS,150,fuego,,la,,118.0866,118.087,0.074074074,-0.181481481,0,0,0,,0,12,12,276,1,vuemo,,,,
,,,,,,5b5fdd52b36c3400014718b9,676192165fb32c2e1fb7aee6,67d1e7f51d375456c164ad6b,2025-03-12_14h00.51.308,Tarea de decisión léxica,2024.2.5,Win32,59.88023952,,,,,,,,,,,,,,,,,,,,,,,118.0895,119.2056,a,1,0.4352,,0.4352,1,119.206,119.7048,,,,,,272,FEM,NOWORD,AGR,150,refal,,la,,119.7049,119.7053,0.074074074,-0.181481481,0,0,0,,0,13,13,271,1,señal,,,,
,,,,,,5b5fdd52b36c3400014718b9,676192165fb32c2e1fb7aee6,67d1e7f51d375456c164ad6b,2025-03-12_14h00.51.308,Tarea de decisión léxica,2024.2.5,Win32,59.88023952,,,,,,,,,,,,,,,,,,,,,,,119.708,120.757,a,0,0.3701,,0.3701,0,120.76,121.2566,,,,,,197,MAS,WORD,DIS,150,bate,,la,,121.2567,121.257,0.074074074,-0.181481481,0,0,0,,0,14,14,196,1,dade,,,,
,,,,,,5b5fdd52b36c3400014718b9,676192165fb32c2e1fb7aee6,67d1e7f51d375456c164ad6b,2025-03-12_14h00.51.308,Tarea de decisión léxica,2024.2.5,Win32,59.88023952,,,,,,,,,,,,,,,,,,,,,,,121.2593,122.4072,a,1,0.4667,,0.4667,1,122.4078,122.9084,,,,,,126,MAS,NOWORD,DIS,150,vudo,,la,,122.9086,122.9089,0.074074074,-0.181481481,0,0,0,,0,15,15,125,1,lujo,,,,
,,,,,,5b5fdd52b36c3400014718b9,676192165fb32c2e1fb7aee6,67d1e7f51d375456c164ad6b,2025-03-12_14h00.51.308,Tarea de decisión léxica,2024.2.5,Win32,59.88023952,,,,,,,,,,,,,,,,,,,,,,,122.9117,124.026,a,1,0.4387,,0.4387,1,124.0263,124.526,,,,,,154,MAS,NOWORD,DIS,150,tado,,la,,124.5274,124.528,0.074074074,-0.181481481,0,0,0,,0,16,16,153,1,pato,,,,
,,,,,,5b5fdd52b36c3400014718b9,676192165fb32c2e1fb7aee6,67d1e7f51d375456c164ad6b,2025-03-12_14h00.51.308,Tarea de decisión léxica,2024.2.5,Win32,59.88023952,,,,,,,,,,,,,,,,,,,,,,,124.5291,125.6441,a,1,0.4344,,0.4344,1,125.6442,126.1445,,,,,,440,FEM,NOWORD,AGR,150,prema,,la,,126.1445,126.1446,0.074074074,-0.181481481,0,0,0,,0,17,17,439,1,presa,,,,
,,,,,,5b5fdd52b36c3400014718b9,676192165fb32c2e1fb7aee6,67d1e7f51d375456c164ad6b,2025-03-12_14h00.51.308,Tarea de decisión léxica,2024.2.5,Win32,59.88023952,,,,,,,,,,,,,,,,,,,,,,,126.1454,127.1961,l,1,0.3865,,0.3865,1,127.1962,127.6974,,,,,,409,MAS,WORD,DIS,150,carro,,la,,127.6974,127.6977,0.074074074,-0.181481481,0,0,0,,0,18,18,408,1,pafro,,,,
,,,,,,5b5fdd52b36c3400014718b9,676192165fb32c2e1fb7aee6,67d1e7f51d375456c164ad6b,2025-03-12_14h00.51.308,Tarea de decisión léxica,2024.2.5,Win32,59.88023952,,,,,,,,,,,,,,,,,,,,,,,127.7001,128.8652,a,1,0.4884,,0.4884,1,128.8654,129.3646,,,,,,226,MAS,NOWORD,DIS,150,boco,,la,,129.3647,129.3647,0.074074074,-0.181481481,0,0,0,,0,19,19,225,1,lodo,,,,
,,,,,,5b5fdd52b36c3400014718b9,676192165fb32c2e1fb7aee6,67d1e7f51d375456c164ad6b,2025-03-12_14h00.51.308,Tarea de decisión léxica,2024.2.5,Win32,59.88023952,,,,,,,,,,,,,,,,,,,,,,,129.3656,130.4659,a,1,0.4375,,0.4375,1,130.4659,130.9672,,,,,,218,MAS,NOWORD,DIS,150,budo,,la,,130.9674,130.9677,0.074074074,-0.181481481,0,0,0,,0,20,20,217,1,luto,,,,
,,,,,,5b5fdd52b36c3400014718b9,676192165fb32c2e1fb7aee6,67d1e7f51d375456c164ad6b,2025-03-12_14h00.51.308,Tarea de decisión léxica,2024.2.5,Win32,59.88023952,,,,,,,,,,,,,,,,,,,,,,,130.9702,132.0532,l,1,0.402,,0.402,1,132.0534,132.5524,,,,,,455,MAS,WORD,AGR,150,reino,,el,,132.5561,132.5579,0.074074074,-0.181481481,0,0,0,,0,21,21,454,1,riaso,,,,
,,,,,,5b5fdd52b36c3400014718b9,676192165fb32c2e1fb7aee6,67d1e7f51d375456c164ad6b,2025-03-12_14h00.51.308,Tarea de decisión léxica,2024.2.5,Win32,59.88023952,,,,,,,,,,,,,,,,,,,,,,,132.5599,133.6394,a,1,0.4018,,0.4018,1,133.6406,134.1376,,,,,,90,MAS,NOWORD,DIS,150,guso,,la,,134.1377,134.1381,0.074074074,-0.181481481,0,0,0,,0,22,22,89,1,humo,,,,
,,,,,,5b5fdd52b36c3400014718b9,676192165fb32c2e1fb7aee6,67d1e7f51d375456c164ad6b,2025-03-12_14h00.51.308,Tarea de decisión léxica,2024.2.5,Win32,59.88023952,,,,,,,,,,,,,,,,,,,,,,,134.1407,135.1904,a,1,0.3847,,0.3847,1,135.1908,135.6882,,,,,,156,FEM,NOWORD,AGR,150,luma,,la,,135.6883,135.6884,0.074074074,-0.181481481,0,0,0,,0,23,23,155,1,fuga,,,,
,,,,,,5b5fdd52b36c3400014718b9,676192165fb32c2e1fb7aee6,67d1e7f51d375456c164ad6b,2025-03-12_14h00.51.308,Tarea de decisión léxica,2024.2.5,Win32,59.88023952,,,,,,,,,,,,,,,,,,,,,,,135.6894,136.8254,l,1,0.4689,,0.4689,1,136.8256,137.3238,,,,,,23,FEM,WORD,AGR,150,hija,,la,,137.3239,137.324,0.074074074,-0.181481481,0,0,0,,0,24,24,22,1,giva,,,,
,,,,,,5b5fdd52b36c3400014718b9,676192165fb32c2e1fb7aee6,67d1e7f51d375456c164ad6b,2025-03-12_14h00.51.308,Tarea de decisión léxica,2024.2.5,Win32,59.88023952,,,,,,,,,,,,,,,,,,,,,,,137.3259,138.4247,a,1,0.4172,,0.4172,1,138.4248,138.9256,,,,,,114,FEM,NOWORD,DIS,150,tada,,el,,138.9256,138.9257,0.074074074,-0.181481481,0,0,0,,0,25,25,113,1,miel,,,,
,,,,,,5b5fdd52b36c3400014718b9,676192165fb32c2e1fb7aee6,67d1e7f51d375456c164ad6b,2025-03-12_14h00.51.308,Tarea de decisión léxica,2024.2.5,Win32,59.88023952,,,,,,,,,,,,,,,,,,,,,,,138.9269,140.0105,a,1,0.4042,,0.4042,1,140.0107,140.5113,,,,,,284,MAS,NOWORD,AGR,150,tuevo,,el,,140.515,140.5169,0.074074074,-0.181481481,0,0,0,,0,26,26,283,1,sueño,,,,
,,,,,,5b5fdd52b36c3400014718b9,676192165fb32c2e1fb7aee6,67d1e7f51d375456c164ad6b,2025-03-12_14h00.51.308,Tarea de decisión léxica,2024.2.5,Win32,59.88023952,,,,,,,,,,,,,,,,,,,,,,,140.5191,141.4879,l,1,0.3013,,0.3013,1,141.4882,141.9879,,,,,,147,FEM,WORD,AGR,150,hoja,,la,,141.988,141.9881,0.074074074,-0.181481481,0,0,0,,0,27,27,146,1,pama,,,,
,,,,,,5b5fdd52b36c3400014718b9,676192165fb32c2e1fb7aee6,67d1e7f51d375456c164ad6b,2025-03-12_14h00.51.308,Tarea de decisión léxica,2024.2.5,Win32,59.88023952,,,,,,,,,,,,,,,,,,,,,,,141.9887,143.0411,a,1,0.3855,,0.3855,1,143.0413,143.5405,,,,,,42,FEM,NOWORD,DIS,150,haje,,el,,143.5407,143.5408,0.074074074,-0.181481481,0,0,0,,0,28,28,41,1,nave,,,,
,,,,,,5b5fdd52b36c3400014718b9,676192165fb32c2e1fb7aee6,67d1e7f51d375456c164ad6b,2025-03-12_14h00.51.308,Tarea de decisión léxica,2024.2.5,Win32,59.88023952,,,,,,,,,,,,,,,,,,,,,,,143.5427,144.6327,a,1,0.4187,,0.4187,1,144.633,145.1332,,,,,,294,MAS,NOWORD,DIS,150,cacso,,la,,145.1332,145.1334,0.074074074,-0.181481481,0,0,0,,0,29,29,293,1,campo,,,,
,,,,,,5b5fdd52b36c3400014718b9,676192165fb32c2e1fb7aee6,67d1e7f51d375456c164ad6b,2025-03-12_14h00.51.308,Tarea de decisión léxica,2024.2.5,Win32,59.88023952,,,,,,,,,,,,,,,,,,,,,,,145.1359,146.2006,a,1,0.3905,,0.3905,1,146.2013,146.7007,,,,,,110,MAS,NOWORD,DIS,150,suno,,la,,146.7009,146.7012,0.074074074,-0.181481481,0,0,0,,0,30,30,109,1,rayo,,,,
,,,,,,5b5fdd52b36c3400014718b9,676192165fb32c2e1fb7aee6,67d1e7f51d375456c164ad6b,2025-03-12_14h00.51.308,Tarea de decisión léxica,2024.2.5,Win32,59.88023952,,,,,,,,,,,,,,,,,,,,,,,146.7044,147.8531,a,0,0.4792,,0.4792,0,147.8574,148.3526,,,,,,203,FEM,WORD,AGR,150,leña,,la,,148.3586,148.361,0.074074074,-0.181481481,0,0,0,,0,31,31,202,1,beja,,,,
,,,,,,5b5fdd52b36c3400014718b9,676192165fb32c2e1fb7aee6,67d1e7f51d375456c164ad6b,2025-03-12_14h00.51.308,Tarea de decisión léxica,2024.2.5,Win32,59.88023952,,,,,,,,,,,,,,,,,,,,,,,148.3634,149.5204,l,1,0.4856,,0.4856,1,149.5223,150.0211,,,,,,151,MAS,WORD,AGR,150,tomo,,el,,150.0213,150.0217,0.074074074,-0.181481481,0,0,0,,0,32,32,150,1,sogo,,,,
,,,,,,5b5fdd52b36c3400014718b9,676192165fb32c2e1fb7aee6,67d1e7f51d375456c164ad6b,2025-03-12_14h00.51.308,Tarea de decisión léxica,2024.2.5,Win32,59.88023952,,,,,,,,,,,,,,,,,,,,,,,150.0253,151.3223,l,1,0.6221,,0.6221,1,151.3223,151.8226,,,,,,109,MAS,WORD,DIS,150,rayo,,la,,151.8227,151.8227,0.074074074,-0.181481481,0,0,0,,0,33,33,108,1,suno,,,,
,,,,,,5b5fdd52b36c3400014718b9,676192165fb32c2e1fb7aee6,67d1e7f51d375456c164ad6b,2025-03-12_14h00.51.308,Tarea de decisión léxica,2024.2.5,Win32,59.88023952,,,,,,,,,,,,,,,,,,,,,,,151.8236,152.9081,a,1,0.4246,,0.4246,1,152.9083,153.4086,,,,,,288,FEM,NOWORD,AGR,150,fosta,,la,,153.4086,153.4087,0.074074074,-0.181481481,0,0,0,,0,34,34,287,1,lista,,,,
,,,,,,5b5fdd52b36c3400014718b9,676192165fb32c2e1fb7aee6,67d1e7f51d375456c164ad6b,2025-03-12_14h00.51.308,Tarea de decisión léxica,2024.2.5,Win32,59.88023952,,,,,,,,,,,,,,,,,,,,,,,153.4101,154.5432,a,1,0.4614,,0.4614,1,154.5434,155.0432,,,,,,298,MAS,NOWORD,DIS,150,brubo,,la,,155.0472,155.05,0.074074074,-0.181481481,0,0,0,,0,35,35,297,1,grupo,,,,
,,,,,,5b5fdd52b36c3400014718b9,676192165fb32c2e1fb7aee6,67d1e7f51d375456c164ad6b,2025-03-12_14h00.51.308,Tarea de decisión léxica,2024.2.5,Win32,59.88023952,,,,,,,,,,,,,,,,,,,,,,,155.0524,156.1067,l,1,0.3854,,0.3854,1,156.1072,156.5994,,,,,,91,FEM,WORD,AGR,150,taza,,la,,156.5995,156.5998,0.074074074,-0.181481481,0,0,0,,0,36,36,90,1,sava,,,,
,,,,,,5b5fdd52b36c3400014718b9,676192165fb32c2e1fb7aee6,67d1e7f51d375456c164ad6b,2025-03-12_14h00.51.308,Tarea de decisión léxica,2024.2.5,Win32,59.88023952,,,,,,,,,,,,,,,,,,,,,,,156.6051,157.7297,l,1,0.4555,,0.4555,1,157.73,158.2303,,,,,,179,MAS,WORD,AGR,150,toro,,el,,158.2305,158.2307,0.074074074,-0.181481481,0,0,0,,0,37,37,178,1,sono,,,,
,,,,,,5b5fdd52b36c3400014718b9,676192165fb32c2e1fb7aee6,67d1e7f51d375456c164ad6b,2025-03-12_14h00.51.308,Tarea de decisión léxica,2024.2.5,Win32,59.88023952,,,,,,,,,,,,,,,,,,,,,,,158.2343,159.249,l,1,0.3351,,0.3351,1,159.2492,159.7486,,,,,,427,FEM,WORD,AGR,150,oreja,,la,,159.7488,159.7491,0.074074074,-0.181481481,0,0,0,,0,38,38,426,1,oseva,,,,
,,,,,,5b5fdd52b36c3400014718b9,676192165fb32c2e1fb7aee6,67d1e7f51d375456c164ad6b,2025-03-12_14h00.51.308,Tarea de decisión léxica,2024.2.5,Win32,59.88023952,,,,,,,,,,,,,,,,,,,,,,,159.7522,160.9015,a,1,0.4771,,0.4771,1,160.902,161.4003,,,,,,62,FEM,NOWORD,DIS,150,efla,,el,,161.4005,161.4008,0.074074074,-0.181481481,0,0,0,,0,39,39,61,1,obra,,,,
,,,,,,5b5fdd52b36c3400014718b9,676192165fb32c2e1fb7aee6,67d1e7f51d375456c164ad6b,2025-03-12_14h00.51.308,Tarea de decisión léxica,2024.2.5,Win32,59.88023952,,,,,,,,,,,,,,,,,,,,,,,161.4036,162.468,l,1,0.3852,,0.3852,1,162.4682,162.9686,,,,,,471,FEM,WORD,AGR,150,grasa,,la,,162.9732,162.975,0.074074074,-0.181481481,0,0,0,,0,40,40,470,1,prana,,,,
,,,,,,5b5fdd52b36c3400014718b9,676192165fb32c2e1fb7aee6,67d1e7f51d375456c164ad6b,2025-03-12_14h00.51.308,Tarea de decisión léxica,2024.2.5,Win32,59.88023952,,,,,,,,,,,,,,,,,,,,,,,162.9772,164.1699,a,1,0.5186,,0.5186,1,164.17,164.6706,,,,,,194,FEM,NOWORD,DIS,150,foda,,el,,164.6708,164.6709,0.074074074,-0.181481481,0,0,0,,0,41,41,193,1,loca,,,,
,,,,,,5b5fdd52b36c3400014718b9,676192165fb32c2e1fb7aee6,67d1e7f51d375456c164ad6b,2025-03-12_14h00.51.308,Tarea de decisión léxica,2024.2.5,Win32,59.88023952,,,,,,,,,,,,,,,,,,,,,,,164.6725,165.9054,a,1,0.5704,,0.5704,1,165.9056,166.4057,,,,,,274,FEM,NOWORD,DIS,150,frosa,,el,,166.4057,166.4058,0.074074074,-0.181481481,0,0,0,,0,42,42,273,1,broma,,,,
,,,,,,5b5fdd52b36c3400014718b9,676192165fb32c2e1fb7aee6,67d1e7f51d375456c164ad6b,2025-03-12_14h00.51.308,Tarea de decisión léxica,2024.2.5,Win32,59.88023952,,,,,,,,,,,,,,,,,,,,,,,166.4075,167.5756,a,1,0.4858,,0.4858,1,167.5759,168.0747,,,,,,260,MAS,NOWORD,AGR,150,jaumo,,el,,168.0749,168.0751,0.074074074,-0.181481481,0,0,0,,0,43,43,259,1,juego,,,,
,,,,,,5b5fdd52b36c3400014718b9,676192165fb32c2e1fb7aee6,67d1e7f51d375456c164ad6b,2025-03-12_14h00.51.308,Tarea de decisión léxica,2024.2.5,Win32,59.88023952,,,,,,,,,,,,,,,,,,,,,,,168.0778,169.1585,l,1,0.3993,,0.3993,1,169.1587,169.66,,,,,,105,FEM,WORD,DIS,150,sopa,,el,,169.6602,169.6605,0.074074074,-0.181481481,0,0,0,,0,44,44,104,1,vina,,,,
,,,,,,5b5fdd52b36c3400014718b9,676192165fb32c2e1fb7aee6,67d1e7f51d375456c164ad6b,2025-03-12_14h00.51.308,Tarea de decisión léxica,2024.2.5,Win32,59.88023952,,,,,,,,,,,,,,,,,,,,,,,169.6636,170.8117,l,1,0.4688,,0.4688,1,170.8125,171.3116,,,,,,93,FEM,WORD,DIS,150,bola,,el,,171.3148,171.3167,0.074074074,-0.181481481,0,0,0,,0,45,45,92,1,rona,,,,
,,,,,,5b5fdd52b36c3400014718b9,676192165fb32c2e1fb7aee6,67d1e7f51d375456c164ad6b,2025-03-12_14h00.51.308,Tarea de decisión léxica,2024.2.5,Win32,59.88023952,,,,,,,,,,,,,,,,,,,,,,,171.3186,172.5291,l,1,0.5337,,0.5337,1,172.5293,173.0304,,,,,,333,FEM,WORD,DIS,150,tarea,,el,,173.0306,173.0309,0.074074074,-0.181481481,0,0,0,,0,46,46,332,1,dalea,,,,
,,,,,,5b5fdd52b36c3400014718b9,676192165fb32c2e1fb7aee6,67d1e7f51d375456c164ad6b,2025-03-12_14h00.51.308,Tarea de decisión léxica,2024.2.5,Win32,59.88023952,,,,,,,,,,,,,,,,,,,,,,,173.033,174.2994,a,1,0.5857,,0.5857,1,174.2996,174.7988,,,,,,478,MAS,NOWORD,DIS,150,hocon,,la,,174.799,174.7993,0.074074074,-0.181481481,0,0,0,,0,47,47,477,1,botón,,,,
,,,,,,5b5fdd52b36c3400014718b9,676192165fb32c2e1fb7aee6,67d1e7f51d375456c164ad6b,2025-03-12_14h00.51.308,Tarea de decisión léxica,2024.2.5,Win32,59.88023952,,,,,,,,,,,,,,,,,,,,,,,174.8019,175.9859,a,1,0.5091,,0.5091,1,175.9862,176.4838,,,,,,198,MAS,NOWORD,DIS,150,dade,,la,,176.4841,176.4844,0.074074074,-0.181481481,0,0,0,,0,48,48,197,1,bate,,,,
,,,,,,5b5fdd52b36c3400014718b9,676192165fb32c2e1fb7aee6,67d1e7f51d375456c164ad6b,2025-03-12_14h00.51.308,Tarea de decisión léxica,2024.2.5,Win32,59.88023952,,,,,,,,,,,,,,,,,,,,,,,176.4864,177.9351,a,1,0.774,,0.774,1,177.9353,178.4359,,,,,,120,MAS,NOWORD,AGR,150,hooy,,el,,178.4359,178.436,0.074074074,-0.181481481,0,0,0,,0,49,49,119,1,pozo,,,,
,,,,,,5b5fdd52b36c3400014718b9,676192165fb32c2e1fb7aee6,67d1e7f51d375456c164ad6b,2025-03-12_14h00.51.308,Tarea de decisión léxica,2024.2.5,Win32,59.88023952,,,,,,,,,,,,,,,,,,,,,,,178.4376,179.6035,a,1,0.4852,,0.4852,1,179.6035,180.1046,,,,,,44,FEM,NOWORD,AGR,150,meda,,la,,180.107,180.1089,0.074074074,-0.181481481,0,0,0,,0,50,50,43,1,pena,,,,
,,,,,,5b5fdd52b36c3400014718b9,676192165fb32c2e1fb7aee6,67d1e7f51d375456c164ad6b,2025-03-12_14h00.51.308,Tarea de decisión léxica,2024.2.5,Win32,59.88023952,,,,,,,,,,,,,,,,,,,,,,,180.111,181.3522,a,1,0.569,,0.569,1,181.3524,181.8562,,,,,,54,FEM,NOWORD,DIS,150,rora,,el,,181.8563,181.8567,0.074074074,-0.181481481,0,0,0,,0,51,51,53,1,boda,,,,
,,,,,,5b5fdd52b36c3400014718b9,676192165fb32c2e1fb7aee6,67d1e7f51d375456c164ad6b,2025-03-12_14h00.51.308,Tarea de decisión léxica,2024.2.5,Win32,59.88023952,,,,,,,,,,,,,,,,,,,,,,,181.8598,183.0036,a,1,0.469,,0.469,1,183.0038,183.5077,,,,,,268,MAS,NOWORD,AGR,150,figro,,el,,183.5078,183.5081,0.074074074,-0.181481481,0,0,0,,0,52,52,267,1,libro,,,,
,,,,,,5b5fdd52b36c3400014718b9,676192165fb32c2e1fb7aee6,67d1e7f51d375456c164ad6b,2025-03-12_14h00.51.308,Tarea de decisión léxica,2024.2.5,Win32,59.88023952,,,,,,,,,,,,,,,,,,,,,,,183.5104,184.76,l,1,0.569,,0.569,1,184.7602,185.2596,,,,,,205,FEM,WORD,DIS,150,rana,,el,,185.2598,185.26,0.074074074,-0.181481481,0,0,0,,0,53,53,204,1,bara,,,,
,,,,,,5b5fdd52b36c3400014718b9,676192165fb32c2e1fb7aee6,67d1e7f51d375456c164ad6b,2025-03-12_14h00.51.308,Tarea de decisión léxica,2024.2.5,Win32,59.88023952,,,,,,,,,,,,,,,,,,,,,,,185.2622,186.5149,a,1,0.5761,,0.5761,1,186.5151,187.0118,,,,,,430,FEM,NOWORD,DIS,150,tenta,,el,,187.012,187.0123,0.074074074,-0.181481481,0,0,0,,0,54,54,429,1,tarta,,,,
,,,,,,5b5fdd52b36c3400014718b9,676192165fb32c2e1fb7aee6,67d1e7f51d375456c164ad6b,2025-03-12_14h00.51.308,Tarea de decisión léxica,2024.2.5,Win32,59.88023952,,,,,,,,,,,,,,,,,,,,,,,187.0155,188.1634,a,1,0.4714,,0.4714,1,188.1637,188.6634,,,,,,394,FEM,NOWORD,DIS,150,ashea,,el,,188.6653,188.6665,0.074074074,-0.181481481,0,0,0,,0,55,55,393,1,aldea,,,,
,,,,,,5b5fdd52b36c3400014718b9,676192165fb32c2e1fb7aee6,67d1e7f51d375456c164ad6b,2025-03-12_14h00.51.308,Tarea de decisión léxica,2024.2.5,Win32,59.88023952,,,,,,,,,,,,,,,,,,,,,,,188.6678,189.86,a,1,0.5025,,0.5025,1,189.8601,190.3485,,,,,,208,MAS,NOWORD,AGR,150,kedo,,el,,190.3486,190.349,0.074074074,-0.181481481,0,0,0,,0,56,56,207,1,kilo,,,,
,,,,,,5b5fdd52b36c3400014718b9,676192165fb32c2e1fb7aee6,67d1e7f51d375456c164ad6b,2025-03-12_14h00.51.308,Tarea de decisión léxica,2024.2.5,Win32,59.88023952,,,,,,,,,,,,,,,,,,,,,,,190.3508,191.3996,l,1,0.3773,,0.3773,1,191.3997,191.9008,,,,,,297,MAS,WORD,DIS,150,grupo,,la,,191.9009,191.9012,0.074074074,-0.181481481,0,0,0,,0,57,57,296,1,brubo,,,,
,,,,,,5b5fdd52b36c3400014718b9,676192165fb32c2e1fb7aee6,67d1e7f51d375456c164ad6b,2025-03-12_14h00.51.308,Tarea de decisión léxica,2024.2.5,Win32,59.88023952,,,,,,,,,,,,,,,,,,,,,,,191.9044,193.1552,a,0,0.5755,,0.5755,0,193.1577,193.6526,,,,,,29,MAS,WORD,DIS,150,modo,,la,,193.6528,193.6532,0.074074074,-0.181481481,0,0,0,,0,58,58,28,1,pono,,,,
,,,,,,5b5fdd52b36c3400014718b9,676192165fb32c2e1fb7aee6,67d1e7f51d375456c164ad6b,2025-03-12_14h00.51.308,Tarea de decisión léxica,2024.2.5,Win32,59.88023952,,,,,,,,,,,,,,,,,,,,,,,193.6558,194.7379,l,1,0.4082,,0.4082,1,194.7413,195.2377,,,,,,207,MAS,WORD,AGR,150,kilo,,el,,195.2412,195.2436,0.074074074,-0.181481481,0,0,0,,0,59,59,206,1,kedo,,,,
,,,,,,5b5fdd52b36c3400014718b9,676192165fb32c2e1fb7aee6,67d1e7f51d375456c164ad6b,2025-03-12_14h00.51.308,Tarea de decisión léxica,2024.2.5,Win32,59.88023952,,,,,,,,,,,,,,,,,,,,,,,195.2455,196.4053,a,1,0.4853,,0.4853,1,196.4055,196.9058,,,,,,304,MAS,NOWORD,AGR,150,lanco,,el,,196.9059,196.906,0.074074074,-0.181481481,0,0,0,,0,60,60,303,1,barco,,,,
,,,,,,5b5fdd52b36c3400014718b9,676192165fb32c2e1fb7aee6,67d1e7f51d375456c164ad6b,2025-03-12_14h00.51.308,Tarea de decisión léxica,2024.2.5,Win32,59.88023952,,,,,,,,,,,,,,,,,,,,,,,196.908,198.0583,a,1,0.4693,,0.4693,1,198.0587,198.5579,,,,,,256,MAS,NOWORD,AGR,150,mauco,,el,,198.558,198.5585,0.074074074,-0.181481481,0,0,0,,0,61,61,255,1,miedo,,,,
,,,,,,5b5fdd52b36c3400014718b9,676192165fb32c2e1fb7aee6,67d1e7f51d375456c164ad6b,2025-03-12_14h00.51.308,Tarea de decisión léxica,2024.2.5,Win32,59.88023952,,,,,,,,,,,,,,,,,,,,,,,198.5611,199.6432,l,1,0.4025,,0.4025,1,199.6436,200.1427,,,,,,451,FEM,WORD,AGR,150,fruta,,la,,200.1429,200.1431,0.074074074,-0.181481481,0,0,0,,0,62,62,450,1,clita,,,,
,,,,,,5b5fdd52b36c3400014718b9,676192165fb32c2e1fb7aee6,67d1e7f51d375456c164ad6b,2025-03-12_14h00.51.308,Tarea de decisión léxica,2024.2.5,Win32,59.88023952,,,,,,,,,,,,,,,,,,,,,,,200.1451,201.2457,a,1,0.4231,,0.4231,1,201.246,201.7451,,,,,,238,MAS,NOWORD,DIS,150,huco,,la,,201.7453,201.7455,0.074074074,-0.181481481,0,0,0,,0,63,63,237,1,nudo,,,,
,,,,,,5b5fdd52b36c3400014718b9,676192165fb32c2e1fb7aee6,67d1e7f51d375456c164ad6b,2025-03-12_14h00.51.308,Tarea de decisión léxica,2024.2.5,Win32,59.88023952,,,,,,,,,,,,,,,,,,,,,,,201.748,202.8555,a,1,0.4339,,0.4339,1,202.8556,203.3464,,,,,,358,FEM,NOWORD,DIS,150,gruba,,el,,203.3489,203.3505,0.074074074,-0.181481481,0,0,0,,0,64,64,357,1,bruja,,,,
,,,,,,5b5fdd52b36c3400014718b9,676192165fb32c2e1fb7aee6,67d1e7f51d375456c164ad6b,2025-03-12_14h00.51.308,Tarea de decisión léxica,2024.2.5,Win32,59.88023952,,,,,,,,,,,,,,,,,,,,,,,203.3516,204.3971,a,1,0.3676,,0.3676,1,204.3972,204.8978,,,,,,466,FEM,NOWORD,DIS,150,asuba,,el,,204.8979,204.8981,0.074074074,-0.181481481,0,0,0,,0,65,65,465,1,aguja,,,,
,,,,,,5b5fdd52b36c3400014718b9,676192165fb32c2e1fb7aee6,67d1e7f51d375456c164ad6b,2025-03-12_14h00.51.308,Tarea de decisión léxica,2024.2.5,Win32,59.88023952,,,,,,,,,,,,,,,,,,,,,,,204.8998,206.1327,l,1,0.5538,,0.5538,1,206.1328,206.6334,,,,,,301,FEM,WORD,DIS,150,banda,,el,,206.6336,206.6339,0.074074074,-0.181481481,0,0,0,,0,66,66,300,1,ranga,,,,
,,,,,,5b5fdd52b36c3400014718b9,676192165fb32c2e1fb7aee6,67d1e7f51d375456c164ad6b,2025-03-12_14h00.51.308,Tarea de decisión léxica,2024.2.5,Win32,59.88023952,,,,,,,,,,,,,,,,,,,,,,,206.6366,207.7522,l,1,0.4361,,0.4361,1,207.7524,208.2521,,,,,,167,FEM,WORD,AGR,150,jefa,,la,,208.2523,208.2527,0.074074074,-0.181481481,0,0,0,,0,67,67,166,1,zifa,,,,
,,,,,,5b5fdd52b36c3400014718b9,676192165fb32c2e1fb7aee6,67d1e7f51d375456c164ad6b,2025-03-12_14h00.51.308,Tarea de decisión léxica,2024.2.5,Win32,59.88023952,,,,,,,,,,,,,,,,,,,,,,,208.2555,209.3863,a,1,0.4515,,0.4515,1,209.3865,209.8869,,,,,,106,FEM,NOWORD,DIS,150,vina,,el,,209.8871,209.8875,0.074074074,-0.181481481,0,0,0,,0,68,68,105,1,sopa,,,,
,,,,,,5b5fdd52b36c3400014718b9,676192165fb32c2e1fb7aee6,67d1e7f51d375456c164ad6b,2025-03-12_14h00.51.308,Tarea de decisión léxica,2024.2.5,Win32,59.88023952,,,,,,,,,,,,,,,,,,,,,,,209.8907,211.0294,a,1,0.4645,,0.4645,1,211.0299,211.5221,,,,,,412,MAS,NOWORD,AGR,150,mobro,,el,,211.5263,211.5281,0.074074074,-0.181481481,0,0,0,,0,69,69,411,1,pollo,,,,
,,,,,,5b5fdd52b36c3400014718b9,676192165fb32c2e1fb7aee6,67d1e7f51d375456c164ad6b,2025-03-12_14h00.51.308,Tarea de decisión léxica,2024.2.5,Win32,59.88023952,,,,,,,,,,,,,,,,,,,,,,,211.5301,212.9417,a,1,0.7393,,0.7393,1,212.942,213.441,,,,,,336,FEM,NOWORD,AGR,150,pesta,,la,,213.4412,213.4416,0.074074074,-0.181481481,0,0,0,,0,70,70,335,1,costa,,,,
,,,,,,5b5fdd52b36c3400014718b9,676192165fb32c2e1fb7aee6,67d1e7f51d375456c164ad6b,2025-03-12_14h00.51.308,Tarea de decisión léxica,2024.2.5,Win32,59.88023952,,,,,,,,,,,,,,,,,,,,,,,213.4441,214.6101,a,1,0.4919,,0.4919,1,214.6105,215.1095,,,,,,464,FEM,NOWORD,AGR,150,matla,,la,,215.1097,215.11,0.074074074,-0.181481481,0,0,0,,0,71,71,463,1,cabra,,,,
,,,,,,5b5fdd52b36c3400014718b9,676192165fb32c2e1fb7aee6,67d1e7f51d375456c164ad6b,2025-03-12_14h00.51.308,Tarea de decisión léxica,2024.2.5,Win32,59.88023952,,,,,,,,,,,,,,,,,,,,,,,215.1127,216.2103,a,1,0.4173,,0.4173,1,216.2103,216.711,,,,,,242,MAS,NOWORD,DIS,150,mirdo,,la,,216.711,216.7111,0.074074074,-0.181481481,0,0,0,,0,72,72,241,1,mundo,,,,
,,,,,,5b5fdd52b36c3400014718b9,676192165fb32c2e1fb7aee6,67d1e7f51d375456c164ad6b,2025-03-12_14h00.51.308,Tarea de decisión léxica,2024.2.5,Win32,59.88023952,,,,,,,,,,,,,,,,,,,,,,,216.7128,217.8454,l,1,0.4686,,0.4686,1,217.8456,218.3463,,,,,,443,MAS,WORD,AGR,150,salón,,el,,218.3464,218.3468,0.074074074,-0.181481481,0,0,0,,0,73,73,442,1,taron,,,,
,,,,,,5b5fdd52b36c3400014718b9,676192165fb32c2e1fb7aee6,67d1e7f51d375456c164ad6b,2025-03-12_14h00.51.308,Tarea de decisión léxica,2024.2.5,Win32,59.88023952,,,,,,,,,,,,,,,,,,,,,,,218.3501,219.4661,l,1,0.4359,,0.4359,1,219.4666,219.9658,,,,,,83,FEM,WORD,AGR,150,bala,,la,,219.969,219.9708,0.074074074,-0.181481481,0,0,0,,0,74,74,82,1,taga,,,,
,,,,,,5b5fdd52b36c3400014718b9,676192165fb32c2e1fb7aee6,67d1e7f51d375456c164ad6b,2025-03-12_14h00.51.308,Tarea de decisión léxica,2024.2.5,Win32,59.88023952,,,,,,,,,,,,,,,,,,,,,,,219.9726,221.2667,l,1,0.6216,,0.6216,1,221.2671,221.776,,,,,,21,MAS,WORD,DIS,150,plan,,la,,221.7761,221.7765,0.074074074,-0.181481481,0,0,0,,0,75,75,20,1,blan,,,,
,,,,,,5b5fdd52b36c3400014718b9,676192165fb32c2e1fb7aee6,67d1e7f51d375456c164ad6b,2025-03-12_14h00.51.308,Tarea de decisión léxica,2024.2.5,Win32,59.88023952,,,,,,,,,,,,,,,,,,,,,,,221.7793,222.9546,a,1,0.503,,0.503,1,222.9554,223.4521,,,,,,104,FEM,NOWORD,AGR,150,rova,,la,,223.4523,223.4527,0.074074074,-0.181481481,0,0,0,,0,76,76,103,1,ruta,,,,
,,,,,,5b5fdd52b36c3400014718b9,676192165fb32c2e1fb7aee6,67d1e7f51d375456c164ad6b,2025-03-12_14h00.51.308,Tarea de decisión léxica,2024.2.5,Win32,59.88023952,,,,,,,,,,,,,,,,,,,,,,,223.4561,224.7068,l,1,0.5678,,0.5678,1,224.7071,225.2039,,,,,,159,MAS,WORD,AGR,150,giro,,el,,225.204,225.2042,0.074074074,-0.181481481,0,0,0,,0,77,77,158,1,bilo,,,,
,,,,,,5b5fdd52b36c3400014718b9,676192165fb32c2e1fb7aee6,67d1e7f51d375456c164ad6b,2025-03-12_14h00.51.308,Tarea de decisión léxica,2024.2.5,Win32,59.88023952,,,,,,,,,,,,,,,,,,,,,,,225.2076,226.2907,l,1,0.4028,,0.4028,1,226.2911,226.7889,,,,,,325,FEM,WORD,DIS,150,magia,,el,,226.7891,226.7894,0.074074074,-0.181481481,0,0,0,,0,78,78,324,1,mabia,,,,
,,,,,,5b5fdd52b36c3400014718b9,676192165fb32c2e1fb7aee6,67d1e7f51d375456c164ad6b,2025-03-12_14h00.51.308,Tarea de decisión léxica,2024.2.5,Win32,59.88023952,,,,,,,,,,,,,,,,,,,,,,,226.7926,227.9672,l,1,0.5014,,0.5014,1,227.9673,228.457,,,,,,139,MAS,WORD,AGR,150,mago,,el,,228.4593,228.4608,0.074074074,-0.181481481,0,0,0,,0,79,79,138,1,nila,,,,
,,,,,,5b5fdd52b36c3400014718b9,676192165fb32c2e1fb7aee6,67d1e7f51d375456c164ad6b,2025-03-12_14h00.51.308,Tarea de decisión léxica,2024.2.5,Win32,59.88023952,,,,,,,,,,,,,,,,,,,,,,,228.4619,229.5248,l,1,0.3829,,0.3829,1,229.5249,230.0257,,,,,,259,MAS,WORD,AGR,150,juego,,el,,230.0258,230.026,0.074074074,-0.181481481,0,0,0,,0,80,80,258,1,jaumo,,,,
,,,,,,5b5fdd52b36c3400014718b9,676192165fb32c2e1fb7aee6,67d1e7f51d375456c164ad6b,2025-03-12_14h00.51.308,Tarea de decisión léxica,2024.2.5,Win32,59.88023952,,,,,,,,,,,,,,,,,,,,,,,230.0274,231.11,a,1,0.4033,,0.4033,1,231.1103,231.6107,,,,,,70,FEM,NOWORD,DIS,150,ñola,,el,,231.6107,231.611,0.074074074,-0.181481481,0,0,0,,0,81,81,69,1,zona,,,,
,,,,,,5b5fdd52b36c3400014718b9,676192165fb32c2e1fb7aee6,67d1e7f51d375456c164ad6b,2025-03-12_14h00.51.308,Tarea de decisión léxica,2024.2.5,Win32,59.88023952,,,,,,,,,,,,,,,,,,,,,,,231.613,232.8292,a,1,0.5388,,0.5388,1,232.8293,233.3292,,,,,,130,MAS,NOWORD,DIS,150,pima,,la,,233.3293,233.3294,0.074074074,-0.181481481,0,0,0,,0,82,82,129,1,oído,,,,
,,,,,,5b5fdd52b36c3400014718b9,676192165fb32c2e1fb7aee6,67d1e7f51d375456c164ad6b,2025-03-12_14h00.51.308,Tarea de decisión léxica,2024.2.5,Win32,59.88023952,,,,,,,,,,,,,,,,,,,,,,,233.3315,234.4647,l,1,0.4573,,0.4573,1,234.4649,234.9554,,,,,,161,MAS,WORD,DIS,150,coro,,la,,234.9576,234.9593,0.074074074,-0.181481481,0,0,0,,0,83,83,160,1,bopo,,,,
,,,,,,5b5fdd52b36c3400014718b9,676192165fb32c2e1fb7aee6,67d1e7f51d375456c164ad6b,2025-03-12_14h00.51.308,Tarea de decisión léxica,2024.2.5,Win32,59.88023952,,,,,,,,,,,,,,,,,,,,,,,234.9612,236.0997,a,1,0.4748,,0.4748,1,236.1001,236.5997,,,,,,270,MAS,NOWORD,DIS,150,mello,,la,,236.5998,236.6002,0.074074074,-0.181481481,0,0,0,,0,84,84,269,1,perro,,,,
,,,,,,5b5fdd52b36c3400014718b9,676192165fb32c2e1fb7aee6,67d1e7f51d375456c164ad6b,2025-03-12_14h00.51.308,Tarea de decisión léxica,2024.2.5,Win32,59.88023952,,,,,,,,,,,,,,,,,,,,,,,236.6031,237.5861,l,1,0.3095,,0.3095,1,237.5864,238.0846,,,,,,233,FEM,WORD,DIS,150,lana,,el,,238.0846,238.085,0.074074074,-0.181481481,0,0,0,,0,85,85,232,1,fasa,,,,
,,,,,,5b5fdd52b36c3400014718b9,676192165fb32c2e1fb7aee6,67d1e7f51d375456c164ad6b,2025-03-12_14h00.51.308,Tarea de decisión léxica,2024.2.5,Win32,59.88023952,,,,,,,,,,,,,,,,,,,,,,,238.0877,239.202,a,1,0.4396,,0.4396,1,239.202,239.7029,,,,,,290,FEM,NOWORD,DIS,150,bumpa,,el,,239.7031,239.7035,0.074074074,-0.181481481,0,0,0,,0,86,86,289,1,bomba,,,,
,,,,,,5b5fdd52b36c3400014718b9,676192165fb32c2e1fb7aee6,67d1e7f51d375456c164ad6b,2025-03-12_14h00.51.308,Tarea de decisión léxica,2024.2.5,Win32,59.88023952,,,,,,,,,,,,,,,,,,,,,,,239.7061,240.9208,l,1,0.5417,,0.5417,1,240.9208,241.4219,,,,,,239,MAS,WORD,AGR,150,mozo,,el,,241.4221,241.4223,0.074074074,-0.181481481,0,0,0,,0,87,87,238,1,poño,,,,
,,,,,,5b5fdd52b36c3400014718b9,676192165fb32c2e1fb7aee6,67d1e7f51d375456c164ad6b,2025-03-12_14h00.51.308,Tarea de decisión léxica,2024.2.5,Win32,59.88023952,,,,,,,,,,,,,,,,,,,,,,,241.4241,242.4071,l,1,0.3109,,0.3109,1,242.4073,242.9061,,,,,,183,FEM,WORD,AGR,150,raya,,la,,242.9079,242.9098,0.074074074,-0.181481481,0,0,0,,0,88,88,182,1,raad,,,,
,,,,,,5b5fdd52b36c3400014718b9,676192165fb32c2e1fb7aee6,67d1e7f51d375456c164ad6b,2025-03-12_14h00.51.308,Tarea de decisión léxica,2024.2.5,Win32,59.88023952,,,,,,,,,,,,,,,,,,,,,,,242.9114,244.0411,a,1,0.4583,,0.4583,1,244.0413,244.5414,,,,,,378,MAS,NOWORD,DIS,150,gaulo,,la,,244.5415,244.5417,0.074074074,-0.181481481,0,0,0,,0,89,89,377,1,hielo,,,,
,,,,,,5b5fdd52b36c3400014718b9,676192165fb32c2e1fb7aee6,67d1e7f51d375456c164ad6b,2025-03-12_14h00.51.308,Tarea de decisión léxica,2024.2.5,Win32,59.88023952,,,,,,,,,,,,,,,,,,,,,,,244.5436,245.779,a,1,0.5588,,0.5588,1,245.7794,246.277,,,,,,422,MAS,NOWORD,DIS,150,griso,,la,,246.2771,246.2775,0.074074074,-0.181481481,0,0,0,,0,90,90,421,1,primo,,,,
,,,,,,5b5fdd52b36c3400014718b9,676192165fb32c2e1fb7aee6,67d1e7f51d375456c164ad6b,2025-03-12_14h00.51.308,Tarea de decisión léxica,2024.2.5,Win32,59.88023952,,,,,,,,,,,,,,,,,,,,,,,246.2801,247.3948,a,1,0.4349,,0.4349,1,247.395,247.9053,,,,,,206,FEM,NOWORD,DIS,150,bara,,el,,247.9055,247.9058,0.074074074,-0.181481481,0,0,0,,0,91,91,205,1,rana,,,,
,,,,,,5b5fdd52b36c3400014718b9,676192165fb32c2e1fb7aee6,67d1e7f51d375456c164ad6b,2025-03-12_14h00.51.308,Tarea de decisión léxica,2024.2.5,Win32,59.88023952,,,,,,,,,,,,,,,,,,,,,,,247.9084,248.9805,a,0,0.4019,,0.4019,0,248.9844,249.4801,,,,,,157,MAS,WORD,DIS,150,nido,,la,,249.4802,249.4803,0.074074074,-0.181481481,0,0,0,,0,92,92,156,1,hico,,,,
,,,,,,5b5fdd52b36c3400014718b9,676192165fb32c2e1fb7aee6,67d1e7f51d375456c164ad6b,2025-03-12_14h00.51.308,Tarea de decisión léxica,2024.2.5,Win32,59.88023952,,,,,,,,,,,,,,,,,,,,,,,249.4818,250.4813,l,1,0.3366,,0.3366,1,250.4826,250.9821,,,,,,323,FEM,WORD,AGR,150,cinta,,la,,250.986,250.9877,0.074074074,-0.181481481,0,0,0,,0,93,93,322,1,certa,,,,
,,,,,,5b5fdd52b36c3400014718b9,676192165fb32c2e1fb7aee6,67d1e7f51d375456c164ad6b,2025-03-12_14h00.51.308,Tarea de decisión léxica,2024.2.5,Win32,59.88023952,,,,,,,,,,,,,,,,,,,,,,,250.9896,252.1513,a,1,0.4859,,0.4859,1,252.1515,252.6503,,,,,,452,FEM,NOWORD,AGR,150,clita,,la,,252.6505,252.6507,0.074074074,-0.181481481,0,0,0,,0,94,94,451,1,fruta,,,,
,,,,,,5b5fdd52b36c3400014718b9,676192165fb32c2e1fb7aee6,67d1e7f51d375456c164ad6b,2025-03-12_14h00.51.308,Tarea de decisión léxica,2024.2.5,Win32,59.88023952,,,,,,,,,,,,,,,,,,,,,,,252.6519,253.685,l,1,0.352,,0.352,1,253.6852,254.1857,,,,,,431,MAS,WORD,AGR,150,motor,,el,,254.186,254.1862,0.074074074,-0.181481481,0,0,0,,0,95,95,430,1,tetor,,,,
,,,,,,5b5fdd52b36c3400014718b9,676192165fb32c2e1fb7aee6,67d1e7f51d375456c164ad6b,2025-03-12_14h00.51.308,Tarea de decisión léxica,2024.2.5,Win32,59.88023952,,,,,,,,,,,,,,,,,,,,,,,254.1892,255.2796,l,1,0.4168,,0.4168,1,255.2798,255.78,,,,,,373,FEM,WORD,DIS,150,pizza,,el,,255.7801,255.7802,0.074074074,-0.181481481,0,0,0,,0,96,96,372,1,pogza,,,,
,,,,,,5b5fdd52b36c3400014718b9,676192165fb32c2e1fb7aee6,67d1e7f51d375456c164ad6b,2025-03-12_14h00.51.308,Tarea de decisión léxica,2024.2.5,Win32,59.88023952,,,,,,,,,,,,,,,,,,,,,,,255.7813,257.0584,a,1,0.6104,,0.6104,1,257.0587,257.5559,,,,,,144,MAS,NOWORD,AGR,150,pezo,,el,,257.556,257.5562,0.074074074,-0.181481481,0,0,0,,0,97,97,143,1,pavo,,,,
,,,,,,5b5fdd52b36c3400014718b9,676192165fb32c2e1fb7aee6,67d1e7f51d375456c164ad6b,2025-03-12_14h00.51.308,Tarea de decisión léxica,2024.2.5,Win32,59.88023952,,,,,,,,,,,,,,,,,,,,,,,257.5581,258.793,a,1,0.558,,0.558,1,258.7932,259.2914,,,,,,30,MAS,NOWORD,DIS,150,pono,,la,,259.2946,259.2964,0.074074074,-0.181481481,0,0,0,,0,98,98,29,1,modo,,,,
,,,,,,5b5fdd52b36c3400014718b9,676192165fb32c2e1fb7aee6,67d1e7f51d375456c164ad6b,2025-03-12_14h00.51.308,Tarea de decisión léxica,2024.2.5,Win32,59.88023952,,,,,,,,,,,,,,,,,,,,,,,259.2983,260.3929,a,1,0.4251,,0.4251,1,260.3931,260.8932,,,,,,454,FEM,NOWORD,DIS,150,pafia,,el,,260.8934,260.8938,0.074074074,-0.181481481,0,0,0,,0,99,99,453,1,mafia,,,,
,,,,,,5b5fdd52b36c3400014718b9,676192165fb32c2e1fb7aee6,67d1e7f51d375456c164ad6b,2025-03-12_14h00.51.308,Tarea de decisión léxica,2024.2.5,Win32,59.88023952,,,,,,,,,,,,,,,,,,,,,,,260.8965,262.2623,l,1,0.6874,,0.6874,1,262.2626,262.7618,,,,,,79,FEM,WORD,AGR,150,piel,,la,,262.7619,262.7623,0.074074074,-0.181481481,0,0,0,,0,100,100,78,1,ciel,,,,
,,,,,,5b5fdd52b36c3400014718b9,676192165fb32c2e1fb7aee6,67d1e7f51d375456c164ad6b,2025-03-12_14h00.51.308,Tarea de decisión léxica,2024.2.5,Win32,59.88023952,,,,,,,,,,,,,,,,,,,,,,,262.7649,263.8094,l,1,0.3696,,0.3696,1,263.8097,264.3135,,,,,,371,FEM,WORD,AGR,150,pasta,,la,,264.3136,264.3139,0.074074074,-0.181481481,0,0,0,,0,101,101,370,1,mosta,,,,
,,,,,,5b5fdd52b36c3400014718b9,676192165fb32c2e1fb7aee6,67d1e7f51d375456c164ad6b,2025-03-12_14h00.51.308,Tarea de decisión léxica,2024.2.5,Win32,59.88023952,,,,,,,,,,,,,,,,,,,,,,,264.3174,265.4644,a,1,0.4823,,0.4823,1,265.4646,265.9651,,,,,,136,MAS,NOWORD,AGR,150,geso,,el,,265.9651,265.9654,0.074074074,-0.181481481,0,0,0,,0,102,102,135,1,tubo,,,,
,,,,,,5b5fdd52b36c3400014718b9,676192165fb32c2e1fb7aee6,67d1e7f51d375456c164ad6b,2025-03-12_14h00.51.308,Tarea de decisión léxica,2024.2.5,Win32,59.88023952,,,,,,,,,,,,,,,,,,,,,,,265.9679,267.1504,l,1,0.5047,,0.5047,1,267.1508,267.6506,,,,,,1,FEM,WORD,DIS,150,casa,,el,,267.6587,267.6604,0.074074074,-0.181481481,0,0,0,,0,103,103,0,1,mada,,,,
,,,,,,5b5fdd52b36c3400014718b9,676192165fb32c2e1fb7aee6,67d1e7f51d375456c164ad6b,2025-03-12_14h00.51.308,Tarea de decisión léxica,2024.2.5,Win32,59.88023952,,,,,,,,,,,,,,,,,,,,,,,267.6626,268.8013,a,1,0.4747,,0.4747,1,268.8016,269.302,,,,,,420,MAS,NOWORD,AGR,150,chudo,,el,,269.302,269.3022,0.074074074,-0.181481481,0,0,0,,0,104,104,419,1,truco,,,,
,,,,,,5b5fdd52b36c3400014718b9,676192165fb32c2e1fb7aee6,67d1e7f51d375456c164ad6b,2025-03-12_14h00.51.308,Tarea de decisión léxica,2024.2.5,Win32,59.88023952,,,,,,,,,,,,,,,,,,,,,,,269.304,270.4708,a,1,0.4905,,0.4905,1,270.471,270.971,,,,,,340,MAS,NOWORD,AGR,150,plajo,,el,,270.9711,270.9714,0.074074074,-0.181481481,0,0,0,,0,105,105,339,1,brazo,,,,
,,,,,,5b5fdd52b36c3400014718b9,676192165fb32c2e1fb7aee6,67d1e7f51d375456c164ad6b,2025-03-12_14h00.51.308,Tarea de decisión léxica,2024.2.5,Win32,59.88023952,,,,,,,,,,,,,,,,,,,,,,,270.9741,272.0406,l,1,0.3943,,0.3943,1,272.0407,272.5392,,,,,,357,FEM,WORD,DIS,150,bruja,,el,,272.5394,272.5399,0.074074074,-0.181481481,0,0,0,,0,106,106,356,1,gruba,,,,
,,,,,,5b5fdd52b36c3400014718b9,676192165fb32c2e1fb7aee6,67d1e7f51d375456c164ad6b,2025-03-12_14h00.51.308,Tarea de decisión léxica,2024.2.5,Win32,59.88023952,,,,,,,,,,,,,,,,,,,,,,,272.5424,273.6109,l,1,0.3759,,0.3759,1,273.6111,274.1076,,,,,,463,FEM,WORD,AGR,150,cabra,,la,,274.1116,274.1133,0.074074074,-0.181481481,0,0,0,,0,107,107,462,1,matla,,,,
,,,,,,5b5fdd52b36c3400014718b9,676192165fb32c2e1fb7aee6,67d1e7f51d375456c164ad6b,2025-03-12_14h00.51.308,Tarea de decisión léxica,2024.2.5,Win32,59.88023952,,,,,,,,,,,,,,,,,,,,,,,274.1151,275.3767,a,0,0.5859,,0.5859,0,275.3803,275.8762,,,,,,149,MAS,WORD,DIS,150,cabo,,la,,275.8763,275.8767,0.074074074,-0.181481481,0,0,0,,0,108,108,148,1,pafo,,,,
,,,,,,5b5fdd52b36c3400014718b9,676192165fb32c2e1fb7aee6,67d1e7f51d375456c164ad6b,2025-03-12_14h00.51.308,Tarea de decisión léxica,2024.2.5,Win32,59.88023952,,,,,,,,,,,,,,,,,,,,,,,275.8809,276.9282,a,0,0.3693,,0.3693,0,276.9284,277.4277,,,,,,331,MAS,WORD,AGR,150,éxito,,el,,277.4277,277.4278,0.074074074,-0.181481481,0,0,0,,0,109,109,330,1,erato,,,,
,,,,,,5b5fdd52b36c3400014718b9,676192165fb32c2e1fb7aee6,67d1e7f51d375456c164ad6b,2025-03-12_14h00.51.308,Tarea de decisión léxica,2024.2.5,Win32,59.88023952,,,,,,,,,,,,,,,,,,,,,,,277.4294,278.6807,a,1,0.5698,,0.5698,1,278.6831,279.1799,,,,,,472,FEM,NOWORD,AGR,150,prana,,la,,279.1801,279.1804,0.074074074,-0.181481481,0,0,0,,0,110,110,471,1,grasa,,,,
,,,,,,5b5fdd52b36c3400014718b9,676192165fb32c2e1fb7aee6,67d1e7f51d375456c164ad6b,2025-03-12_14h00.51.308,Tarea de decisión léxica,2024.2.5,Win32,59.88023952,,,,,,,,,,,,,,,,,,,,,,,279.183,280.2331,l,1,0.3762,,0.3762,1,280.2332,280.7317,,,,,,379,MAS,WORD,AGR,150,turno,,el,,280.7317,280.7321,0.074074074,-0.181481481,0,0,0,,0,111,111,378,1,tunso,,,,
,,,,,,5b5fdd52b36c3400014718b9,676192165fb32c2e1fb7aee6,67d1e7f51d375456c164ad6b,2025-03-12_14h00.51.308,Tarea de decisión léxica,2024.2.5,Win32,59.88023952,,,,,,,,,,,,,,,,,,,,,,,280.7357,281.8162,l,1,0.3896,,0.3896,1,281.8162,282.3169,,,,,,57,MAS,WORD,DIS,150,dedo,,la,,282.3205,282.3222,0.074074074,-0.181481481,0,0,0,,0,112,112,56,1,heco,,,,
,,,,,,5b5fdd52b36c3400014718b9,676192165fb32c2e1fb7aee6,67d1e7f51d375456c164ad6b,2025-03-12_14h00.51.308,Tarea de decisión léxica,2024.2.5,Win32,59.88023952,,,,,,,,,,,,,,,,,,,,,,,282.3239,283.4509,a,1,0.4533,,0.4533,1,283.451,283.9522,,,,,,278,MAS,NOWORD,DIS,150,vuemo,,la,,283.9523,283.9527,0.074074074,-0.181481481,0,0,0,,0,113,113,277,1,fuego,,,,
,,,,,,5b5fdd52b36c3400014718b9,676192165fb32c2e1fb7aee6,67d1e7f51d375456c164ad6b,2025-03-12_14h00.51.308,Tarea de decisión léxica,2024.2.5,Win32,59.88023952,,,,,,,,,,,,,,,,,,,,,,,283.9558,285.1367,a,1,0.5063,,0.5063,1,285.1368,285.6367,,,,,,316,FEM,NOWORD,AGR,150,riosa,,la,,285.6368,285.6371,0.074074074,-0.181481481,0,0,0,,0,114,114,315,1,reina,,,,
,,,,,,5b5fdd52b36c3400014718b9,676192165fb32c2e1fb7aee6,67d1e7f51d375456c164ad6b,2025-03-12_14h00.51.308,Tarea de decisión léxica,2024.2.5,Win32,59.88023952,,,,,,,,,,,,,,,,,,,,,,,285.6393,286.7556,l,1,0.4406,,0.4406,1,286.7558,287.2549,,,,,,67,FEM,WORD,AGR,150,nena,,la,,287.2549,287.2551,0.074074074,-0.181481481,0,0,0,,0,115,115,66,1,gesa,,,,
,,,,,,5b5fdd52b36c3400014718b9,676192165fb32c2e1fb7aee6,67d1e7f51d375456c164ad6b,2025-03-12_14h00.51.308,Tarea de decisión léxica,2024.2.5,Win32,59.88023952,,,,,,,,,,,,,,,,,,,,,,,287.2561,288.374,l,1,0.4533,,0.4533,1,288.3743,288.8741,,,,,,347,FEM,WORD,AGR,150,pieza,,la,,288.8742,288.8745,0.074074074,-0.181481481,0,0,0,,0,116,116,346,1,mueza,,,,
,,,,,,5b5fdd52b36c3400014718b9,676192165fb32c2e1fb7aee6,67d1e7f51d375456c164ad6b,2025-03-12_14h00.51.308,Tarea de decisión léxica,2024.2.5,Win32,59.88023952,,,,,,,,,,,,,,,,,,,,,,,288.8773,290.0361,l,1,0.4676,,0.4676,1,290.0363,290.5252,,,,,,289,FEM,WORD,DIS,150,bomba,,el,,290.5265,290.5275,0.074074074,-0.181481481,0,0,0,,0,117,117,288,1,bumpa,,,,
,,,,,,5b5fdd52b36c3400014718b9,676192165fb32c2e1fb7aee6,67d1e7f51d375456c164ad6b,2025-03-12_14h00.51.308,Tarea de decisión léxica,2024.2.5,Win32,59.88023952,,,,,,,,,,,,,,,,,,,,,,,290.5286,291.6625,l,1,0.4554,,0.4554,1,291.6628,292.1608,,,,,,195,FEM,WORD,AGR,150,tela,,la,,292.1609,292.1613,0.074074074,-0.181481481,0,0,0,,0,118,118,194,1,sira,,,,
,,,,,,5b5fdd52b36c3400014718b9,676192165fb32c2e1fb7aee6,67d1e7f51d375456c164ad6b,2025-03-12_14h00.51.308,Tarea de decisión léxica,2024.2.5,Win32,59.88023952,,,,,,,,,,,,,,,,,,,,,,,292.1643,293.3295,a,1,0.4857,,0.4857,1,293.3296,293.8176,,,,,,4,FEM,NOWORD,AGR,150,dica,,la,,293.8177,293.8179,0.074074074,-0.181481481,0,0,0,,0,119,119,3,1,vida,,,,
,,,,,,5b5fdd52b36c3400014718b9,676192165fb32c2e1fb7aee6,67d1e7f51d375456c164ad6b,2025-03-12_14h00.51.308,Tarea de decisión léxica,2024.2.5,Win32,59.88023952,,,,,,,,,,,,,,,,,,,,,,,293.8196,295.0975,a,1,0.5943,,0.5943,1,295.0978,295.5981,,,,,,102,MAS,NOWORD,DIS,150,gito,,la,,295.5982,295.5984,0.074074074,-0.181481481,0,0,0,,0,120,120,101,1,tono,,,,
,,,,,,5b5fdd52b36c3400014718b9,676192165fb32c2e1fb7aee6,67d1e7f51d375456c164ad6b,2025-03-12_14h00.51.308,Tarea de decisión léxica,2024.2.5,Win32,59.88023952,,,,,,,,,,,,,,,,,,,,,,,295.6017,296.7833,l,1,0.502,,0.502,1,296.7836,297.2883,,,,,,365,FEM,WORD,DIS,150,ducha,,el,,297.2884,297.2885,0.074074074,-0.181481481,0,0,0,,0,121,121,364,1,gulla,,,,
,,,,,,5b5fdd52b36c3400014718b9,676192165fb32c2e1fb7aee6,67d1e7f51d375456c164ad6b,2025-03-12_14h00.51.308,Tarea de decisión léxica,2024.2.5,Win32,59.88023952,,,,,,,,,,,,,,,,,,,,,,,297.2907,298.3296,l,1,0.3597,,0.3597,1,298.3299,298.8182,,,,,,321,MAS,WORD,DIS,150,banco,,la,,298.8222,298.8238,0.074074074,-0.181481481,0,0,0,,0,122,122,320,1,rarco,,,,
,,,,,,5b5fdd52b36c3400014718b9,676192165fb32c2e1fb7aee6,67d1e7f51d375456c164ad6b,2025-03-12_14h00.51.308,Tarea de decisión léxica,2024.2.5,Win32,59.88023952,,,,,,,,,,,,,,,,,,,,,,,298.8256,299.9063,a,1,0.4081,,0.4081,1,299.9065,300.4029,,,,,,342,MAS,NOWORD,DIS,150,daror,,la,,300.403,300.4032,0.074074074,-0.181481481,0,0,0,,0,123,123,341,1,valor,,,,
,,,,,,5b5fdd52b36c3400014718b9,676192165fb32c2e1fb7aee6,67d1e7f51d375456c164ad6b,2025-03-12_14h00.51.308,Tarea de decisión léxica,2024.2.5,Win32,59.88023952,,,,,,,,,,,,,,,,,,,,,,,300.4054,301.4375,l,1,0.3542,,0.3542,1,301.4377,301.9379,,,,,,257,FEM,WORD,DIS,150,amiga,,el,,301.938,301.9382,0.074074074,-0.181481481,0,0,0,,0,124,124,256,1,asama,,,,
,,,,,,5b5fdd52b36c3400014718b9,676192165fb32c2e1fb7aee6,67d1e7f51d375456c164ad6b,2025-03-12_14h00.51.308,Tarea de decisión léxica,2024.2.5,Win32,59.88023952,,,,,,,,,,,,,,,,,,,,,,,301.9399,303.1068,a,1,0.4915,,0.4915,1,303.1069,303.6065,,,,,,334,FEM,NOWORD,DIS,150,dalea,,el,,303.6066,303.6068,0.074074074,-0.181481481,0,0,0,,0,125,125,333,1,tarea,,,,
,,,,,,5b5fdd52b36c3400014718b9,676192165fb32c2e1fb7aee6,67d1e7f51d375456c164ad6b,2025-03-12_14h00.51.308,Tarea de decisión léxica,2024.2.5,Win32,59.88023952,,,,,,,,,,,,,,,,,,,,,,,303.6087,304.5757,a,0,0.3015,,0.3015,0,304.5785,305.0752,,,,,,221,FEM,WORD,DIS,150,mula,,el,,305.0753,305.0756,0.074074074,-0.181481481,0,0,0,,0,126,126,220,1,puca,,,,
,,,,,,5b5fdd52b36c3400014718b9,676192165fb32c2e1fb7aee6,67d1e7f51d375456c164ad6b,2025-03-12_14h00.51.308,Tarea de decisión léxica,2024.2.5,Win32,59.88023952,,,,,,,,,,,,,,,,,,,,,,,305.0786,306.0438,l,1,0.2867,,0.2867,1,306.0465,306.5446,,,,,,101,MAS,WORD,DIS,150,tono,,la,,306.5499,306.553,0.074074074,-0.181481481,0,0,0,,0,127,127,100,1,gito,,,,
,,,,,,5b5fdd52b36c3400014718b9,676192165fb32c2e1fb7aee6,67d1e7f51d375456c164ad6b,2025-03-12_14h00.51.308,Tarea de decisión léxica,2024.2.5,Win32,59.88023952,,,,,,,,,,,,,,,,,,,,,,,306.5558,307.6778,a,1,0.4558,,0.4558,1,307.6779,308.1781,,,,,,352,MAS,NOWORD,AGR,150,duepo,,el,,308.1782,308.1784,0.074074074,-0.181481481,0,0,0,,0,128,128,351,1,vuelo,,,,
,,,,,,5b5fdd52b36c3400014718b9,676192165fb32c2e1fb7aee6,67d1e7f51d375456c164ad6b,2025-03-12_14h00.51.308,Tarea de decisión léxica,2024.2.5,Win32,59.88023952,,,,,,,,,,,,,,,,,,,,,,,308.1811,309.1793,l,1,0.3183,,0.3183,1,309.1794,309.6799,,,,,,415,FEM,WORD,AGR,150,jaula,,la,,309.68,309.6804,0.074074074,-0.181481481,0,0,0,,0,129,129,414,1,juira,,,,
,,,,,,5b5fdd52b36c3400014718b9,676192165fb32c2e1fb7aee6,67d1e7f51d375456c164ad6b,2025-03-12_14h00.51.308,Tarea de decisión léxica,2024.2.5,Win32,59.88023952,,,,,,,,,,,,,,,,,,,,,,,309.6821,310.7492,l,1,0.3871,,0.3871,1,310.7496,311.2487,,,,,,31,FEM,WORD,AGR,150,ropa,,la,,311.2489,311.2492,0.074074074,-0.181481481,0,0,0,,0,130,130,30,1,bova,,,,
,,,,,,5b5fdd52b36c3400014718b9,676192165fb32c2e1fb7aee6,67d1e7f51d375456c164ad6b,2025-03-12_14h00.51.308,Tarea de decisión léxica,2024.2.5,Win32,59.88023952,,,,,,,,,,,,,,,,,,,,,,,311.2522,312.3162,a,1,0.3855,,0.3855,1,312.3164,312.8171,,,,,,146,MAS,NOWORD,DIS,150,nobo,,la,,312.8214,312.8238,0.074074074,-0.181481481,0,0,0,,0,131,131,145,1,león,,,,
,,,,,,5b5fdd52b36c3400014718b9,676192165fb32c2e1fb7aee6,67d1e7f51d375456c164ad6b,2025-03-12_14h00.51.308,Tarea de decisión léxica,2024.2.5,Win32,59.88023952,,,,,,,,,,,,,,,,,,,,,,,312.8265,314.0193,a,1,0.519,,0.519,1,314.0195,314.5127,,,,,,200,MAS,NOWORD,AGR,150,fano,,el,,314.5127,314.5128,0.074074074,-0.181481481,0,0,0,,0,132,132,199,1,lazo,,,,
,,,,,,5b5fdd52b36c3400014718b9,676192165fb32c2e1fb7aee6,67d1e7f51d375456c164ad6b,2025-03-12_14h00.51.308,Tarea de decisión léxica,2024.2.5,Win32,59.88023952,,,,,,,,,,,,,,,,,,,,,,,314.514,315.69,a,1,0.51,,0.51,1,315.6904,316.187,,,,,,406,FEM,NOWORD,DIS,150,rarra,,el,,316.1871,316.1874,0.074074074,-0.181481481,0,0,0,,0,133,133,405,1,barra,,,,
,,,,,,5b5fdd52b36c3400014718b9,676192165fb32c2e1fb7aee6,67d1e7f51d375456c164ad6b,2025-03-12_14h00.51.308,Tarea de decisión léxica,2024.2.5,Win32,59.88023952,,,,,,,,,,,,,,,,,,,,,,,316.1897,318.1398,l,1,1.2746,,1.2746,1,318.1401,318.6405,,,,,,131,FEM,WORD,AGR,150,mina,,la,,318.6407,318.641,0.074074074,-0.181481481,0,0,0,,0,134,134,130,1,fada,,,,
,,,,,,5b5fdd52b36c3400014718b9,676192165fb32c2e1fb7aee6,67d1e7f51d375456c164ad6b,2025-03-12_14h00.51.308,Tarea de decisión léxica,2024.2.5,Win32,59.88023952,,,,,,,,,,,,,,,,,,,,,,,318.6436,319.6586,l,1,0.3386,,0.3386,1,319.6586,320.158,,,,,,273,FEM,WORD,DIS,150,broma,,el,,320.1581,320.1581,0.074074074,-0.181481481,0,0,0,,0,135,135,272,1,frosa,,,,
,,,,,,5b5fdd52b36c3400014718b9,676192165fb32c2e1fb7aee6,67d1e7f51d375456c164ad6b,2025-03-12_14h00.51.308,Tarea de decisión léxica,2024.2.5,Win32,59.88023952,,,,,,,,,,,,,,,,,,,,,,,320.1592,321.1441,l,1,0.3243,,0.3243,1,321.1442,321.6431,,,,,,343,FEM,WORD,AGR,150,plata,,la,,321.6449,321.646,0.074074074,-0.181481481,0,0,0,,0,136,136,342,1,trada,,,,
,,,,,,5b5fdd52b36c3400014718b9,676192165fb32c2e1fb7aee6,67d1e7f51d375456c164ad6b,2025-03-12_14h00.51.308,Tarea de decisión léxica,2024.2.5,Win32,59.88023952,,,,,,,,,,,,,,,,,,,,,,,321.6474,322.8276,a,1,0.5058,,0.5058,1,322.8278,323.328,,,,,,174,FEM,NOWORD,DIS,150,boma,,el,,323.328,323.3282,0.074074074,-0.181481481,0,0,0,,0,137,137,173,1,rosa,,,,
,,,,,,5b5fdd52b36c3400014718b9,676192165fb32c2e1fb7aee6,67d1e7f51d375456c164ad6b,2025-03-12_14h00.51.308,Tarea de decisión léxica,2024.2.5,Win32,59.88023952,,,,,,,,,,,,,,,,,,,,,,,323.3293,324.4127,a,1,0.4219,,0.4219,1,324.4129,324.9135,,,,,,410,MAS,NOWORD,DIS,150,pafro,,la,,324.9137,324.914,0.074074074,-0.181481481,0,0,0,,0,138,138,409,1,carro,,,,
,,,,,,5b5fdd52b36c3400014718b9,676192165fb32c2e1fb7aee6,67d1e7f51d375456c164ad6b,2025-03-12_14h00.51.308,Tarea de decisión léxica,2024.2.5,Win32,59.88023952,,,,,,,,,,,,,,,,,,,,,,,324.9167,325.9986,a,1,0.406,,0.406,1,325.9989,326.4992,,,,,,426,FEM,NOWORD,DIS,150,virca,,el,,326.4993,326.4995,0.074074074,-0.181481481,0,0,0,,0,139,139,425,1,viuda,,,,
,,,,,,5b5fdd52b36c3400014718b9,676192165fb32c2e1fb7aee6,67d1e7f51d375456c164ad6b,2025-03-12_14h00.51.308,Tarea de decisión léxica,2024.2.5,Win32,59.88023952,,,,,,,,,,,,,,,,,,,,,,,326.5021,327.5492,l,1,0.3615,,0.3615,1,327.5494,328.0501,,,,,,213,FEM,WORD,DIS,150,rama,,el,,328.0502,328.0503,0.074074074,-0.181481481,0,0,0,,0,140,140,212,1,bana,,,,
,,,,,,5b5fdd52b36c3400014718b9,676192165fb32c2e1fb7aee6,67d1e7f51d375456c164ad6b,2025-03-12_14h00.51.308,Tarea de decisión léxica,2024.2.5,Win32,59.88023952,,,,,,,,,,,,,,,,,,,,,,,328.0522,329.1688,l,1,0.4353,,0.4353,1,329.1689,329.6686,,,,,,477,MAS,WORD,DIS,150,botón,,la,,329.6707,329.6719,0.074074074,-0.181481481,0,0,0,,0,141,141,476,1,hocon,,,,
,,,,,,5b5fdd52b36c3400014718b9,676192165fb32c2e1fb7aee6,67d1e7f51d375456c164ad6b,2025-03-12_14h00.51.308,Tarea de decisión léxica,2024.2.5,Win32,59.88023952,,,,,,,,,,,,,,,,,,,,,,,329.6736,330.8905,l,1,0.5428,,0.5428,1,330.8906,331.3873,,,,,,453,FEM,WORD,DIS,150,mafia,,el,,331.3874,331.3878,0.074074074,-0.181481481,0,0,0,,0,142,142,452,1,pafia,,,,
,,,,,,5b5fdd52b36c3400014718b9,676192165fb32c2e1fb7aee6,67d1e7f51d375456c164ad6b,2025-03-12_14h00.51.308,Tarea de decisión léxica,2024.2.5,Win32,59.88023952,,,,,,,,,,,,,,,,,,,,,,,331.3915,332.4463,l,1,0.3724,,0.3724,1,332.4467,332.9483,,,,,,413,FEM,WORD,DIS,150,rueda,,el,,332.9483,332.9485,0.074074074,-0.181481481,0,0,0,,0,143,143,412,1,bieda,,,,
,,,,,,5b5fdd52b36c3400014718b9,676192165fb32c2e1fb7aee6,67d1e7f51d375456c164ad6b,2025-03-12_14h00.51.308,Tarea de decisión léxica,2024.2.5,Win32,59.88023952,,,,,,,,,,,,,,,,,,,,,,,332.9495,334.1073,a,1,0.4908,,0.4908,1,334.1075,334.607,,,,,,22,MAS,NOWORD,DIS,150,blan,,la,,334.6071,334.6073,0.074074074,-0.181481481,0,0,0,,0,144,144,21,1,plan,,,,
,,,,,,5b5fdd52b36c3400014718b9,676192165fb32c2e1fb7aee6,67d1e7f51d375456c164ad6b,2025-03-12_14h00.51.308,Tarea de decisión léxica,2024.2.5,Win32,59.88023952,,,,,,,,,,,,,,,,,,,,,,,334.6084,335.8938,a,1,0.6224,,0.6224,1,335.894,336.3926,,,,,,460,MAS,NOWORD,AGR,150,fraco,,el,,336.3927,336.3928,0.074074074,-0.181481481,0,0,0,,0,145,145,459,1,grado,,,,
,,,,,,5b5fdd52b36c3400014718b9,676192165fb32c2e1fb7aee6,67d1e7f51d375456c164ad6b,2025-03-12_14h00.51.308,Tarea de decisión léxica,2024.2.5,Win32,59.88023952,,,,,,,,,,,,,,,,,,,,,,,336.3937,337.4399,l,1,0.3854,,0.3854,1,337.4404,337.9445,,,,,,385,FEM,WORD,DIS,150,letra,,el,,337.9485,337.9504,0.074074074,-0.181481481,0,0,0,,0,146,146,384,1,febra,,,,
,,,,,,5b5fdd52b36c3400014718b9,676192165fb32c2e1fb7aee6,67d1e7f51d375456c164ad6b,2025-03-12_14h00.51.308,Tarea de decisión léxica,2024.2.5,Win32,59.88023952,,,,,,,,,,,,,,,,,,,,,,,337.9522,339.1394,l,1,0.5182,,0.5182,1,339.1397,339.6293,,,,,,117,MAS,WORD,DIS,150,palo,,la,,339.6293,339.6295,0.074074074,-0.181481481,0,0,0,,0,147,147,116,1,movo,,,,
,,,,,,5b5fdd52b36c3400014718b9,676192165fb32c2e1fb7aee6,67d1e7f51d375456c164ad6b,2025-03-12_14h00.51.308,Tarea de decisión léxica,2024.2.5,Win32,59.88023952,,,,,,,,,,,,,,,,,,,,,,,339.6306,340.799,a,1,0.5022,,0.5022,1,340.7994,341.2982,,,,,,404,FEM,NOWORD,AGR,150,grisa,,la,,341.2984,341.2988,0.074074074,-0.181481481,0,0,0,,0,148,148,403,1,prima,,,,
,,,,,,5b5fdd52b36c3400014718b9,676192165fb32c2e1fb7aee6,67d1e7f51d375456c164ad6b,2025-03-12_14h00.51.308,Tarea de decisión léxica,2024.2.5,Win32,59.88023952,,,,,,,,,,,,,,,,,,,,,,,341.3019,342.3676,l,1,0.3856,,0.3856,1,342.3681,342.8666,,,,,,35,MAS,WORD,AGR,150,pelo,,el,,342.8667,342.8671,0.074074074,-0.181481481,0,0,0,,0,149,149,34,1,meno,,,,
,,,,,,5b5fdd52b36c3400014718b9,676192165fb32c2e1fb7aee6,67d1e7f51d375456c164ad6b,2025-03-12_14h00.51.308,Tarea de decisión léxica,2024.2.5,Win32,59.88023952,,,,,,,,,,,,,,,,,,,,,,,342.8702,343.9854,l,1,0.45,,0.45,1,343.9857,344.485,,,,,,199,MAS,WORD,AGR,150,lazo,,el,,344.4852,344.4855,0.074074074,-0.181481481,0,0,0,,0,150,150,198,1,fano,,,,
,,,,,,5b5fdd52b36c3400014718b9,676192165fb32c2e1fb7aee6,67d1e7f51d375456c164ad6b,2025-03-12_14h00.51.308,Tarea de decisión léxica,2024.2.5,Win32,59.88023952,,,,,,,,,,,,,,,,,,,,,,,344.489,345.5692,l,1,0.4009,,0.4009,1,345.5693,346.0797,,,,,,25,FEM,WORD,DIS,150,cama,,el,,346.0819,346.0829,0.074074074,-0.181481481,0,0,0,,0,151,151,24,1,paza,,,,
,,,,,,5b5fdd52b36c3400014718b9,676192165fb32c2e1fb7aee6,67d1e7f51d375456c164ad6b,2025-03-12_14h00.51.308,Tarea de decisión léxica,2024.2.5,Win32,59.88023952,,,,,,,,,,,,,,,,,,,,,,,346.084,347.2212,a,1,0.4697,,0.4697,1,347.2214,347.7222,,,,,,444,MAS,NOWORD,AGR,150,taron,,el,,347.7224,347.7227,0.074074074,-0.181481481,0,0,0,,0,152,152,443,1,salón,,,,
,,,,,,5b5fdd52b36c3400014718b9,676192165fb32c2e1fb7aee6,67d1e7f51d375456c164ad6b,2025-03-12_14h00.51.308,Tarea de decisión léxica,2024.2.5,Win32,59.88023952,,,,,,,,,,,,,,,,,,,,,,,347.7253,348.8898,a,0,0.4876,,0.4876,0,348.8915,349.3905,,,,,,217,MAS,WORD,DIS,150,luto,,la,,349.3906,349.3907,0.074074074,-0.181481481,0,0,0,,0,153,153,216,1,budo,,,,
,,,,,,5b5fdd52b36c3400014718b9,676192165fb32c2e1fb7aee6,67d1e7f51d375456c164ad6b,2025-03-12_14h00.51.308,Tarea de decisión léxica,2024.2.5,Win32,59.88023952,,,,,,,,,,,,,,,,,,,,,,,349.3922,350.5256,a,1,0.456,,0.456,1,350.5292,351.0255,,,,,,446,MAS,NOWORD,DIS,150,ascor,,la,,351.0257,351.0261,0.074074074,-0.181481481,0,0,0,,0,154,154,445,1,actor,,,,
,,,,,,5b5fdd52b36c3400014718b9,676192165fb32c2e1fb7aee6,67d1e7f51d375456c164ad6b,2025-03-12_14h00.51.308,Tarea de decisión léxica,2024.2.5,Win32,59.88023952,,,,,,,,,,,,,,,,,,,,,,,351.0287,352.3098,a,1,0.6001,,0.6001,1,352.3099,352.8113,,,,,,46,FEM,NOWORD,DIS,150,pema,,el,,352.8147,352.8175,0.074074074,-0.181481481,0,0,0,,0,155,155,45,1,mesa,,,,
,,,,,,5b5fdd52b36c3400014718b9,676192165fb32c2e1fb7aee6,67d1e7f51d375456c164ad6b,2025-03-12_14h00.51.308,Tarea de decisión léxica,2024.2.5,Win32,59.88023952,,,,,,,,,,,,,,,,,,,,,,,352.8203,354.1299,l,1,0.6361,,0.6361,1,354.1301,354.6293,,,,,,225,MAS,WORD,DIS,150,lodo,,la,,354.6294,354.6297,0.074074074,-0.181481481,0,0,0,,0,156,156,224,1,boco,,,,
,,,,,,5b5fdd52b36c3400014718b9,676192165fb32c2e1fb7aee6,67d1e7f51d375456c164ad6b,2025-03-12_14h00.51.308,Tarea de decisión léxica,2024.2.5,Win32,59.88023952,,,,,,,,,,,,,,,,,,,,,,,354.6315,355.7976,l,1,0.4886,,0.4886,1,355.7978,356.2977,,,,,,121,MAS,WORD,DIS,150,hoyo,,la,,356.2979,356.2981,0.074074074,-0.181481481,0,0,0,,0,157,157,120,1,bomo,,,,
,,,,,,5b5fdd52b36c3400014718b9,676192165fb32c2e1fb7aee6,67d1e7f51d375456c164ad6b,2025-03-12_14h00.51.308,Tarea de decisión léxica,2024.2.5,Win32,59.88023952,,,,,,,,,,,,,,,,,,,,,,,356.3,357.4001,a,1,0.4187,,0.4187,1,357.4008,357.8999,,,,,,74,MAS,NOWORD,DIS,150,omio,,la,,357.9001,357.9005,0.074074074,-0.181481481,0,0,0,,0,158,158,73,1,odio,,,,
,,,,,,5b5fdd52b36c3400014718b9,676192165fb32c2e1fb7aee6,67d1e7f51d375456c164ad6b,2025-03-12_14h00.51.308,Tarea de decisión léxica,2024.2.5,Win32,59.88023952,,,,,,,,,,,,,,,,,,,,,,,357.9035,358.9511,l,1,0.3573,,0.3573,1,358.9512,359.4509,,,,,,263,FEM,WORD,AGR,150,vista,,la,,359.451,359.4511,0.074074074,-0.181481481,0,0,0,,0,159,159,262,1,dosta,,,,
,,,,,,5b5fdd52b36c3400014718b9,676192165fb32c2e1fb7aee6,67d1e7f51d375456c164ad6b,2025-03-12_14h00.51.308,Tarea de decisión léxica,2024.2.5,Win32,59.88023952,,,,,,,,,,,,,,,,,,,,,,,359.4522,360.9029,a,1,0.7852,,0.7852,1,360.903,361.4032,,,,,,180,MAS,NOWORD,AGR,150,sono,,el,,361.4045,1014.4582,0.074074074,-0.181481481,0,0,0,space,0,160,160,179,1,toro,653.0109,,,
,,,,,,5b5fdd52b36c3400014718b9,676192165fb32c2e1fb7aee6,67d1e7f51d375456c164ad6b,2025-03-12_14h00.51.308,Tarea de decisión léxica,2024.2.5,Win32,59.88023952,,,,,,,,,,,,,,,,,,,,,,,1014.4635,1016.1735,a,1,1.0399,,1.0399,1,1016.1738,1016.6741,,,,,,368,MAS,NOWORD,AGR,150,rerob,,el,,1016.6742,1016.6745,0.074074074,-0.181481481,0,0,0,,0,161,161,367,1,reloj,,,,
,,,,,,5b5fdd52b36c3400014718b9,676192165fb32c2e1fb7aee6,67d1e7f51d375456c164ad6b,2025-03-12_14h00.51.308,Tarea de decisión léxica,2024.2.5,Win32,59.88023952,,,,,,,,,,,,,,,,,,,,,,,1016.6766,1018.0063,a,1,0.653,,0.653,1,1018.0064,1018.5097,,,,,,244,MAS,NOWORD,AGR,150,asamo,,el,,1018.5098,1018.5102,0.074074074,-0.181481481,0,0,0,,0,162,162,243,1,amigo,,,,
,,,,,,5b5fdd52b36c3400014718b9,676192165fb32c2e1fb7aee6,67d1e7f51d375456c164ad6b,2025-03-12_14h00.51.308,Tarea de decisión léxica,2024.2.5,Win32,59.88023952,,,,,,,,,,,,,,,,,,,,,,,1018.5133,1019.5951,a,1,0.3941,,0.3941,1,1019.5953,1020.089,,,,,,398,FEM,NOWORD,DIS,150,trigi,,el,,1020.0892,1020.0892,0.074074074,-0.181481481,0,0,0,,0,163,163,397,1,tribu,,,,
,,,,,,5b5fdd52b36c3400014718b9,676192165fb32c2e1fb7aee6,67d1e7f51d375456c164ad6b,2025-03-12_14h00.51.308,Tarea de decisión léxica,2024.2.5,Win32,59.88023952,,,,,,,,,,,,,,,,,,,,,,,1020.0905,1021.4127,l,1,0.6488,,0.6488,1,1021.4127,1021.9137,,,,,,339,MAS,WORD,AGR,150,brazo,,el,,1021.9139,1021.9142,0.074074074,-0.181481481,0,0,0,,0,164,164,338,1,plajo,,,,
,,,,,,5b5fdd52b36c3400014718b9,676192165fb32c2e1fb7aee6,67d1e7f51d375456c164ad6b,2025-03-12_14h00.51.308,Tarea de decisión léxica,2024.2.5,Win32,59.88023952,,,,,,,,,,,,,,,,,,,,,,,1021.9168,1022.9837,a,1,0.3943,,0.3943,1,1022.9841,1023.4818,,,,,,382,MAS,NOWORD,DIS,150,nusor,,la,,1023.4851,1023.4872,0.074074074,-0.181481481,0,0,0,,0,165,165,381,1,humor,,,,
,,,,,,5b5fdd52b36c3400014718b9,676192165fb32c2e1fb7aee6,67d1e7f51d375456c164ad6b,2025-03-12_14h00.51.308,Tarea de decisión léxica,2024.2.5,Win32,59.88023952,,,,,,,,,,,,,,,,,,,,,,,1023.4893,1024.5847,a,1,0.4229,,0.4229,1,1024.5851,1025.0837,,,,,,282,MAS,NOWORD,DIS,150,cauro,,la,,1025.0838,1025.0841,0.074074074,-0.181481481,0,0,0,,0,166,166,281,1,cielo,,,,
,,,,,,5b5fdd52b36c3400014718b9,676192165fb32c2e1fb7aee6,67d1e7f51d375456c164ad6b,2025-03-12_14h00.51.308,Tarea de decisión léxica,2024.2.5,Win32,59.88023952,,,,,,,,,,,,,,,,,,,,,,,1025.0871,1026.1195,l,1,0.3569,,0.3569,1,1026.1198,1026.6285,,,,,,307,MAS,WORD,AGR,150,hotel,,el,,1026.6286,1026.629,0.074074074,-0.181481481,0,0,0,,0,167,167,306,1,holol,,,,
,,,,,,5b5fdd52b36c3400014718b9,676192165fb32c2e1fb7aee6,67d1e7f51d375456c164ad6b,2025-03-12_14h00.51.308,Tarea de decisión léxica,2024.2.5,Win32,59.88023952,,,,,,,,,,,,,,,,,,,,,,,1026.6316,1027.8561,a,1,0.561,,0.561,1,1027.8564,1028.3539,,,,,,310,FEM,NOWORD,DIS,150,tirra,,el,,1028.3541,1028.3544,0.074074074,-0.181481481,0,0,0,,0,168,168,309,1,silla,,,,
,,,,,,5b5fdd52b36c3400014718b9,676192165fb32c2e1fb7aee6,67d1e7f51d375456c164ad6b,2025-03-12_14h00.51.308,Tarea de decisión léxica,2024.2.5,Win32,59.88023952,,,,,,,,,,,,,,,,,,,,,,,1028.3571,1029.5552,l,1,0.5212,,0.5212,1,1029.5554,1030.0552,,,,,,133,FEM,WORD,DIS,150,vaca,,el,,1030.0553,1030.0554,0.074074074,-0.181481481,0,0,0,,0,169,169,132,1,vesa,,,,
,,,,,,5b5fdd52b36c3400014718b9,676192165fb32c2e1fb7aee6,67d1e7f51d375456c164ad6b,2025-03-12_14h00.51.308,Tarea de decisión léxica,2024.2.5,Win32,59.88023952,,,,,,,,,,,,,,,,,,,,,,,1030.0564,1031.1241,a,1,0.4075,,0.4075,1,1031.125,1031.6241,,,,,,306,MAS,NOWORD,DIS,150,adiol,,la,,1031.6264,1031.6275,0.074074074,-0.181481481,0,0,0,,0,170,170,305,1,avión,,,,
,,,,,,5b5fdd52b36c3400014718b9,676192165fb32c2e1fb7aee6,67d1e7f51d375456c164ad6b,2025-03-12_14h00.51.308,Tarea de decisión léxica,2024.2.5,Win32,59.88023952,,,,,,,,,,,,,,,,,,,,,,,1031.6288,1032.714,a,1,0.4127,,0.4127,1,1032.7141,1033.2088,,,,,,76,MAS,NOWORD,AGR,150,ocer,,el,,1033.2089,1033.209,0.074074074,-0.181481481,0,0,0,,0,171,171,75,1,olor,,,,
,,,,,,5b5fdd52b36c3400014718b9,676192165fb32c2e1fb7aee6,67d1e7f51d375456c164ad6b,2025-03-12_14h00.51.308,Tarea de decisión léxica,2024.2.5,Win32,59.88023952,,,,,,,,,,,,,,,,,,,,,,,1033.2103,1034.4564,a,1,0.5863,,0.5863,1,1034.4566,1034.9445,,,,,,230,MAS,NOWORD,DIS,150,ador,,la,,1034.9446,1034.9449,0.074074074,-0.181481481,0,0,0,,0,172,172,229,1,amor,,,,
,,,,,,5b5fdd52b36c3400014718b9,676192165fb32c2e1fb7aee6,67d1e7f51d375456c164ad6b,2025-03-12_14h00.51.308,Tarea de decisión léxica,2024.2.5,Win32,59.88023952,,,,,,,,,,,,,,,,,,,,,,,1034.9481,1036.0798,a,1,0.4565,,0.4565,1,1036.08,1036.5893,,,,,,2,FEM,NOWORD,DIS,150,mada,,el,,1036.5895,1036.5898,0.074074074,-0.181481481,0,0,0,,0,173,173,1,1,casa,,,,
,,,,,,5b5fdd52b36c3400014718b9,676192165fb32c2e1fb7aee6,67d1e7f51d375456c164ad6b,2025-03-12_14h00.51.308,Tarea de decisión léxica,2024.2.5,Win32,59.88023952,,,,,,,,,,,,,,,,,,,,,,,1036.5922,1037.7938,l,1,0.5358,,0.5358,1,1037.794,1038.2821,,,,,,449,FEM,WORD,DIS,150,pluma,,el,,1038.2823,1038.2826,0.074074074,-0.181481481,0,0,0,,0,174,174,448,1,crusa,,,,
,,,,,,5b5fdd52b36c3400014718b9,676192165fb32c2e1fb7aee6,67d1e7f51d375456c164ad6b,2025-03-12_14h00.51.308,Tarea de decisión léxica,2024.2.5,Win32,59.88023952,,,,,,,,,,,,,,,,,,,,,,,1038.2857,1039.4325,a,1,0.4673,,0.4673,1,1039.4327,1039.9334,,,,,,266,FEM,NOWORD,DIS,150,pitat,,el,,1039.9371,1039.9386,0.074074074,-0.181481481,0,0,0,,0,175,175,265,1,mitad,,,,
,,,,,,5b5fdd52b36c3400014718b9,676192165fb32c2e1fb7aee6,67d1e7f51d375456c164ad6b,2025-03-12_14h00.51.308,Tarea de decisión léxica,2024.2.5,Win32,59.88023952,,,,,,,,,,,,,,,,,,,,,,,1039.9405,1041.1354,l,1,0.519,,0.519,1,1041.1357,1041.6351,,,,,,177,MAS,WORD,DIS,150,reto,,la,,1041.6353,1041.6356,0.074074074,-0.181481481,0,0,0,,0,176,176,176,1,bito,,,,
,,,,,,5b5fdd52b36c3400014718b9,676192165fb32c2e1fb7aee6,67d1e7f51d375456c164ad6b,2025-03-12_14h00.51.308,Tarea de decisión léxica,2024.2.5,Win32,59.88023952,,,,,,,,,,,,,,,,,,,,,,,1041.6387,1042.7546,l,1,0.4382,,0.4382,1,1042.7548,1043.2537,,,,,,381,MAS,WORD,DIS,150,humor,,la,,1043.2538,1043.2542,0.074074074,-0.181481481,0,0,0,,0,177,177,380,1,nusor,,,,
,,,,,,5b5fdd52b36c3400014718b9,676192165fb32c2e1fb7aee6,67d1e7f51d375456c164ad6b,2025-03-12_14h00.51.308,Tarea de decisión léxica,2024.2.5,Win32,59.88023952,,,,,,,,,,,,,,,,,,,,,,,1043.2577,1044.3494,l,1,0.4186,,0.4186,1,1044.3496,1044.8386,,,,,,469,MAS,WORD,DIS,150,patio,,la,,1044.8387,1044.8388,0.074074074,-0.181481481,0,0,0,,0,178,178,468,1,matia,,,,
,,,,,,5b5fdd52b36c3400014718b9,676192165fb32c2e1fb7aee6,67d1e7f51d375456c164ad6b,2025-03-12_14h00.51.308,Tarea de decisión léxica,2024.2.5,Win32,59.88023952,,,,,,,,,,,,,,,,,,,,,,,1044.8405,1045.9229,a,1,0.4008,,0.4008,1,1045.923,1046.4233,,,,,,332,MAS,NOWORD,AGR,150,erato,,el,,1046.4246,1046.4253,0.074074074,-0.181481481,0,0,0,,0,179,179,331,1,éxito,,,,
,,,,,,5b5fdd52b36c3400014718b9,676192165fb32c2e1fb7aee6,67d1e7f51d375456c164ad6b,2025-03-12_14h00.51.308,Tarea de decisión léxica,2024.2.5,Win32,59.88023952,,,,,,,,,,,,,,,,,,,,,,,1046.426,1047.5276,l,1,0.4242,,0.4242,1,1047.5281,1048.0259,,,,,,351,MAS,WORD,AGR,150,vuelo,,el,,1048.0261,1048.0263,0.074074074,-0.181481481,0,0,0,,0,180,180,350,1,duepo,,,,
,,,,,,5b5fdd52b36c3400014718b9,676192165fb32c2e1fb7aee6,67d1e7f51d375456c164ad6b,2025-03-12_14h00.51.308,Tarea de decisión léxica,2024.2.5,Win32,59.88023952,,,,,,,,,,,,,,,,,,,,,,,1048.0285,1049.0785,l,1,0.3687,,0.3687,1,1049.0788,1049.5776,,,,,,295,MAS,WORD,AGR,150,dolor,,el,,1049.5777,1049.578,0.074074074,-0.181481481,0,0,0,,0,181,181,294,1,goler,,,,
,,,,,,5b5fdd52b36c3400014718b9,676192165fb32c2e1fb7aee6,67d1e7f51d375456c164ad6b,2025-03-12_14h00.51.308,Tarea de decisión léxica,2024.2.5,Win32,59.88023952,,,,,,,,,,,,,,,,,,,,,,,1049.5803,1050.7292,l,1,0.4704,,0.4704,1,1050.7294,1051.2302,,,,,,81,FEM,WORD,DIS,150,dama,,el,,1051.2302,1051.2306,0.074074074,-0.181481481,0,0,0,,0,182,182,80,1,vasa,,,,
,,,,,,5b5fdd52b36c3400014718b9,676192165fb32c2e1fb7aee6,67d1e7f51d375456c164ad6b,2025-03-12_14h00.51.308,Tarea de decisión léxica,2024.2.5,Win32,59.88023952,,,,,,,,,,,,,,,,,,,,,,,1051.2341,1052.3984,a,1,0.4891,,0.4891,1,1052.3986,1052.898,,,,,,220,FEM,NOWORD,AGR,150,miva,,la,,1052.8982,1052.8983,0.074074074,-0.181481481,0,0,0,,0,183,183,219,1,pipa,,,,
,,,,,,5b5fdd52b36c3400014718b9,676192165fb32c2e1fb7aee6,67d1e7f51d375456c164ad6b,2025-03-12_14h00.51.308,Tarea de decisión léxica,2024.2.5,Win32,59.88023952,,,,,,,,,,,,,,,,,,,,,,,1052.9004,1054.0835,a,1,0.5023,,0.5023,1,1054.0841,1054.5832,,,,,,140,MAS,NOWORD,AGR,150,nila,,el,,1054.5857,1054.5876,0.074074074,-0.181481481,0,0,0,,0,184,184,139,1,mago,,,,
,,,,,,5b5fdd52b36c3400014718b9,676192165fb32c2e1fb7aee6,67d1e7f51d375456c164ad6b,2025-03-12_14h00.51.308,Tarea de decisión léxica,2024.2.5,Win32,59.88023952,,,,,,,,,,,,,,,,,,,,,,,1054.5895,1055.7024,a,1,0.4352,,0.4352,1,1055.703,1056.2018,,,,,,392,MAS,NOWORD,AGR,150,dievo,,el,,1056.2019,1056.2022,0.074074074,-0.181481481,0,0,0,,0,185,185,391,1,dueño,,,,
,,,,,,5b5fdd52b36c3400014718b9,676192165fb32c2e1fb7aee6,67d1e7f51d375456c164ad6b,2025-03-12_14h00.51.308,Tarea de decisión léxica,2024.2.5,Win32,59.88023952,,,,,,,,,,,,,,,,,,,,,,,1056.2045,1057.3188,a,1,0.4336,,0.4336,1,1057.3188,1057.8196,,,,,,124,FEM,NOWORD,AGR,150,maba,,la,,1057.8197,1057.8198,0.074074074,-0.181481481,0,0,0,,0,186,186,123,1,flor,,,,
,,,,,,5b5fdd52b36c3400014718b9,676192165fb32c2e1fb7aee6,67d1e7f51d375456c164ad6b,2025-03-12_14h00.51.308,Tarea de decisión léxica,2024.2.5,Win32,59.88023952,,,,,,,,,,,,,,,,,,,,,,,1057.8209,1058.9897,a,1,0.486,,0.486,1,1058.99,1059.488,,,,,,82,FEM,NOWORD,DIS,150,vasa,,el,,1059.4882,1059.4883,0.074074074,-0.181481481,0,0,0,,0,187,187,81,1,dama,,,,
,,,,,,5b5fdd52b36c3400014718b9,676192165fb32c2e1fb7aee6,67d1e7f51d375456c164ad6b,2025-03-12_14h00.51.308,Tarea de decisión léxica,2024.2.5,Win32,59.88023952,,,,,,,,,,,,,,,,,,,,,,,1059.4901,1060.792,l,1,0.6235,,0.6235,1,1060.7923,1061.2897,,,,,,335,FEM,WORD,AGR,150,costa,,la,,1061.2897,1061.2898,0.074074074,-0.181481481,0,0,0,,0,188,188,334,1,pesta,,,,
,,,,,,5b5fdd52b36c3400014718b9,676192165fb32c2e1fb7aee6,67d1e7f51d375456c164ad6b,2025-03-12_14h00.51.308,Tarea de decisión léxica,2024.2.5,Win32,59.88023952,,,,,,,,,,,,,,,,,,,,,,,1061.2907,1062.3765,l,1,0.4185,,0.4185,1,1062.3767,1062.8757,,,,,,237,MAS,WORD,DIS,150,nudo,,la,,1062.8782,1062.8801,0.074074074,-0.181481481,0,0,0,,0,189,189,236,1,huco,,,,
,,,,,,5b5fdd52b36c3400014718b9,676192165fb32c2e1fb7aee6,67d1e7f51d375456c164ad6b,2025-03-12_14h00.51.308,Tarea de decisión léxica,2024.2.5,Win32,59.88023952,,,,,,,,,,,,,,,,,,,,,,,1062.882,1064.0548,a,1,0.4984,,0.4984,1,1064.0551,1064.5434,,,,,,78,MAS,NOWORD,DIS,150,fodo,,la,,1064.5435,1064.5436,0.074074074,-0.181481481,0,0,0,,0,190,190,77,1,loco,,,,
,,,,,,5b5fdd52b36c3400014718b9,676192165fb32c2e1fb7aee6,67d1e7f51d375456c164ad6b,2025-03-12_14h00.51.308,Tarea de decisión léxica,2024.2.5,Win32,59.88023952,,,,,,,,,,,,,,,,,,,,,,,1064.545,1065.7288,a,1,0.5216,,0.5216,1,1065.7291,1066.2289,,,,,,386,FEM,NOWORD,DIS,150,febra,,el,,1066.229,1066.2293,0.074074074,-0.181481481,0,0,0,,0,191,191,385,1,letra,,,,
,,,,,,5b5fdd52b36c3400014718b9,676192165fb32c2e1fb7aee6,67d1e7f51d375456c164ad6b,2025-03-12_14h00.51.308,Tarea de decisión léxica,2024.2.5,Win32,59.88023952,,,,,,,,,,,,,,,,,,,,,,,1066.2326,1067.3466,l,1,0.4393,,0.4393,1,1067.3467,1067.8472,,,,,,211,FEM,WORD,AGR,150,joya,,la,,1067.8473,1067.8475,0.074074074,-0.181481481,0,0,0,,0,192,192,210,1,joad,,,,
,,,,,,5b5fdd52b36c3400014718b9,676192165fb32c2e1fb7aee6,67d1e7f51d375456c164ad6b,2025-03-12_14h00.51.308,Tarea de decisión léxica,2024.2.5,Win32,59.88023952,,,,,,,,,,,,,,,,,,,,,,,1067.8495,1069.0485,l,1,0.5162,,0.5162,1,1069.0487,1069.5486,,,,,,437,FEM,WORD,DIS,150,plaza,,el,,1069.5486,1069.5488,0.074074074,-0.181481481,0,0,0,,0,193,193,436,1,glava,,,,
,,,,,,5b5fdd52b36c3400014718b9,676192165fb32c2e1fb7aee6,67d1e7f51d375456c164ad6b,2025-03-12_14h00.51.308,Tarea de decisión léxica,2024.2.5,Win32,59.88023952,,,,,,,,,,,,,,,,,,,,,,,1069.5497,1070.7339,l,1,0.5186,,0.5186,1,1070.734,1071.2343,,,,,,71,FEM,WORD,AGR,150,isla,,la,,1071.2358,1071.2371,0.074074074,-0.181481481,0,0,0,,0,194,194,70,1,urla,,,,
,,,,,,5b5fdd52b36c3400014718b9,676192165fb32c2e1fb7aee6,67d1e7f51d375456c164ad6b,2025-03-12_14h00.51.308,Tarea de decisión léxica,2024.2.5,Win32,59.88023952,,,,,,,,,,,,,,,,,,,,,,,1071.2391,1072.3698,l,1,0.4525,,0.4525,1,1072.3701,1072.8696,,,,,,473,FEM,WORD,DIS,150,feria,,el,,1072.8697,1072.8699,0.074074074,-0.181481481,0,0,0,,0,195,195,472,1,felia,,,,
,,,,,,5b5fdd52b36c3400014718b9,676192165fb32c2e1fb7aee6,67d1e7f51d375456c164ad6b,2025-03-12_14h00.51.308,Tarea de decisión léxica,2024.2.5,Win32,59.88023952,,,,,,,,,,,,,,,,,,,,,,,1072.8732,1074.0726,a,1,0.5227,,0.5227,1,1074.073,1074.5723,,,,,,80,FEM,NOWORD,AGR,150,ciel,,la,,1074.5726,1074.5728,0.074074074,-0.181481481,0,0,0,,0,196,196,79,1,piel,,,,
,,,,,,5b5fdd52b36c3400014718b9,676192165fb32c2e1fb7aee6,67d1e7f51d375456c164ad6b,2025-03-12_14h00.51.308,Tarea de decisión léxica,2024.2.5,Win32,59.88023952,,,,,,,,,,,,,,,,,,,,,,,1074.5761,1075.7571,a,1,0.5023,,0.5023,1,1075.7574,1076.2562,,,,,,14,FEM,NOWORD,DIS,150,nola,,el,,1076.2563,1076.2566,0.074074074,-0.181481481,0,0,0,,0,197,197,13,1,hora,,,,
,,,,,,5b5fdd52b36c3400014718b9,676192165fb32c2e1fb7aee6,67d1e7f51d375456c164ad6b,2025-03-12_14h00.51.308,Tarea de decisión léxica,2024.2.5,Win32,59.88023952,,,,,,,,,,,,,,,,,,,,,,,1076.2583,1077.3596,a,1,0.4071,,0.4071,1,1077.3599,1077.8583,,,,,,456,MAS,NOWORD,AGR,150,riaso,,el,,1077.8585,1077.8588,0.074074074,-0.181481481,0,0,0,,0,198,198,455,1,reino,,,,
,,,,,,5b5fdd52b36c3400014718b9,676192165fb32c2e1fb7aee6,67d1e7f51d375456c164ad6b,2025-03-12_14h00.51.308,Tarea de decisión léxica,2024.2.5,Win32,59.88023952,,,,,,,,,,,,,,,,,,,,,,,1077.862,1079.1607,l,1,0.6255,,0.6255,1,1079.161,1079.6603,,,,,,219,FEM,WORD,AGR,150,pipa,,la,,1079.6638,1079.6656,0.074074074,-0.181481481,0,0,0,,0,199,199,218,1,miva,,,,
,,,,,,5b5fdd52b36c3400014718b9,676192165fb32c2e1fb7aee6,67d1e7f51d375456c164ad6b,2025-03-12_14h00.51.308,Tarea de decisión léxica,2024.2.5,Win32,59.88023952,,,,,,,,,,,,,,,,,,,,,,,1079.6675,1080.763,l,1,0.4191,,0.4191,1,1080.7633,1081.2709,,,,,,391,MAS,WORD,AGR,150,dueño,,el,,1081.271,1081.2711,0.074074074,-0.181481481,0,0,0,,0,200,200,390,1,dievo,,,,
,,,,,,5b5fdd52b36c3400014718b9,676192165fb32c2e1fb7aee6,67d1e7f51d375456c164ad6b,2025-03-12_14h00.51.308,Tarea de decisión léxica,2024.2.5,Win32,59.88023952,,,,,,,,,,,,,,,,,,,,,,,1081.272,1082.3415,l,1,0.3941,,0.3941,1,1082.3416,1082.8301,,,,,,63,FEM,WORD,AGR,150,luna,,la,,1082.8301,1082.8302,0.074074074,-0.181481481,0,0,0,,0,201,201,62,1,funa,,,,
,,,,,,5b5fdd52b36c3400014718b9,676192165fb32c2e1fb7aee6,67d1e7f51d375456c164ad6b,2025-03-12_14h00.51.308,Tarea de decisión léxica,2024.2.5,Win32,59.88023952,,,,,,,,,,,,,,,,,,,,,,,1082.8315,1083.9315,l,1,0.4342,,0.4342,1,1083.9316,1084.4246,,,,,,171,MAS,WORD,AGR,150,hilo,,el,,1084.4247,1084.4249,0.074074074,-0.181481481,0,0,0,,0,202,202,170,1,niro,,,,
,,,,,,5b5fdd52b36c3400014718b9,676192165fb32c2e1fb7aee6,67d1e7f51d375456c164ad6b,2025-03-12_14h00.51.308,Tarea de decisión léxica,2024.2.5,Win32,59.88023952,,,,,,,,,,,,,,,,,,,,,,,1084.4258,1085.5851,l,1,0.4915,,0.4915,1,1085.5854,1086.084,,,,,,85,MAS,WORD,DIS,150,lago,,la,,1086.0875,1086.0893,0.074074074,-0.181481481,0,0,0,,0,203,203,84,1,babo,,,,
,,,,,,5b5fdd52b36c3400014718b9,676192165fb32c2e1fb7aee6,67d1e7f51d375456c164ad6b,2025-03-12_14h00.51.308,Tarea de decisión léxica,2024.2.5,Win32,59.88023952,,,,,,,,,,,,,,,,,,,,,,,1086.0913,1087.1358,l,1,0.3691,,0.3691,1,1087.1361,1087.6361,,,,,,129,MAS,WORD,DIS,150,oído,,la,,1087.6363,1087.6366,0.074074074,-0.181481481,0,0,0,,0,204,204,128,1,pima,,,,
,,,,,,5b5fdd52b36c3400014718b9,676192165fb32c2e1fb7aee6,67d1e7f51d375456c164ad6b,2025-03-12_14h00.51.308,Tarea de decisión léxica,2024.2.5,Win32,59.88023952,,,,,,,,,,,,,,,,,,,,,,,1087.6397,1088.8048,l,1,0.4859,,0.4859,1,1088.8053,1089.3042,,,,,,227,MAS,WORD,AGR,150,faro,,el,,1089.3043,1089.3044,0.074074074,-0.181481481,0,0,0,,0,205,205,226,1,laro,,,,
,,,,,,5b5fdd52b36c3400014718b9,676192165fb32c2e1fb7aee6,67d1e7f51d375456c164ad6b,2025-03-12_14h00.51.308,Tarea de decisión léxica,2024.2.5,Win32,59.88023952,,,,,,,,,,,,,,,,,,,,,,,1089.3067,1091.4241,a,0,1.4452,,1.4452,0,1091.4274,1091.9238,,,,,,353,FEM,WORD,DIS,150,celda,,el,,1091.924,1091.9243,0.074074074,-0.181481481,0,0,0,,0,206,206,352,1,cezca,,,,
,,,,,,5b5fdd52b36c3400014718b9,676192165fb32c2e1fb7aee6,67d1e7f51d375456c164ad6b,2025-03-12_14h00.51.308,Tarea de decisión léxica,2024.2.5,Win32,59.88023952,,,,,,,,,,,,,,,,,,,,,,,1091.9269,1093.7434,a,1,1.1467,,1.1467,1,1093.7469,1094.2428,,,,,,188,MAS,NOWORD,AGR,150,suto,,el,,1094.2429,1094.2431,0.074074074,-0.181481481,0,0,0,,0,207,207,187,1,mito,,,,
,,,,,,5b5fdd52b36c3400014718b9,676192165fb32c2e1fb7aee6,67d1e7f51d375456c164ad6b,2025-03-12_14h00.51.308,Tarea de decisión léxica,2024.2.5,Win32,59.88023952,,,,,,,,,,,,,,,,,,,,,,,1094.2453,1095.7612,a,1,0.8177,,0.8177,1,1095.7614,1096.2618,,,,,,36,MAS,NOWORD,AGR,150,meno,,el,,1096.2662,1096.2678,0.074074074,-0.181481481,0,0,0,,0,208,208,35,1,pelo,,,,
,,,,,,5b5fdd52b36c3400014718b9,676192165fb32c2e1fb7aee6,67d1e7f51d375456c164ad6b,2025-03-12_14h00.51.308,Tarea de decisión léxica,2024.2.5,Win32,59.88023952,,,,,,,,,,,,,,,,,,,,,,,1096.2697,1097.2961,l,0,0.3442,,0.3442,0,1097.2974,1097.7965,,,,,,60,FEM,NOWORD,AGR,150,tafa,,la,,1097.7965,1097.7967,0.074074074,-0.181481481,0,0,0,,0,209,209,59,1,sala,,,,
,,,,,,5b5fdd52b36c3400014718b9,676192165fb32c2e1fb7aee6,67d1e7f51d375456c164ad6b,2025-03-12_14h00.51.308,Tarea de decisión léxica,2024.2.5,Win32,59.88023952,,,,,,,,,,,,,,,,,,,,,,,1097.7976,1098.8652,a,1,0.4032,,0.4032,1,1098.8686,1099.3649,,,,,,428,FEM,NOWORD,AGR,150,oseva,,la,,1099.3649,1099.3652,0.074074074,-0.181481481,0,0,0,,0,210,210,427,1,oreja,,,,
,,,,,,5b5fdd52b36c3400014718b9,676192165fb32c2e1fb7aee6,67d1e7f51d375456c164ad6b,2025-03-12_14h00.51.308,Tarea de decisión léxica,2024.2.5,Win32,59.88023952,,,,,,,,,,,,,,,,,,,,,,,1099.3667,1100.4826,a,0,0.4494,,0.4494,0,1100.4834,1100.9838,,,,,,41,FEM,WORD,DIS,150,nave,,el,,1100.9838,1100.9843,0.074074074,-0.181481481,0,0,0,,0,211,211,40,1,haje,,,,
,,,,,,5b5fdd52b36c3400014718b9,676192165fb32c2e1fb7aee6,67d1e7f51d375456c164ad6b,2025-03-12_14h00.51.308,Tarea de decisión léxica,2024.2.5,Win32,59.88023952,,,,,,,,,,,,,,,,,,,,,,,1100.9869,1102.0359,l,1,0.3708,,0.3708,1,1102.0389,1102.5354,,,,,,287,FEM,WORD,AGR,150,lista,,la,,1102.5356,1102.5361,0.074074074,-0.181481481,0,0,0,,0,212,212,286,1,fosta,,,,
,,,,,,5b5fdd52b36c3400014718b9,676192165fb32c2e1fb7aee6,67d1e7f51d375456c164ad6b,2025-03-12_14h00.51.308,Tarea de decisión léxica,2024.2.5,Win32,59.88023952,,,,,,,,,,,,,,,,,,,,,,,1102.5386,1103.6196,a,1,0.3996,,0.3996,1,1103.6197,1104.12,,,,,,320,MAS,NOWORD,AGR,150,tuero,,el,,1104.1212,1104.1217,0.074074074,-0.181481481,0,0,0,,0,213,213,319,1,suelo,,,,
,,,,,,5b5fdd52b36c3400014718b9,676192165fb32c2e1fb7aee6,67d1e7f51d375456c164ad6b,2025-03-12_14h00.51.308,Tarea de decisión léxica,2024.2.5,Win32,59.88023952,,,,,,,,,,,,,,,,,,,,,,,1104.1224,1105.1893,a,1,0.3869,,0.3869,1,1105.1896,1105.6889,,,,,,442,FEM,NOWORD,DIS,150,telza,,el,,1105.689,1105.6894,0.074074074,-0.181481481,0,0,0,,0,214,214,441,1,selva,,,,
,,,,,,5b5fdd52b36c3400014718b9,676192165fb32c2e1fb7aee6,67d1e7f51d375456c164ad6b,2025-03-12_14h00.51.308,Tarea de decisión léxica,2024.2.5,Win32,59.88023952,,,,,,,,,,,,,,,,,,,,,,,1105.6921,1106.724,l,1,0.3559,,0.3559,1,1106.7244,1107.2238,,,,,,315,FEM,WORD,AGR,150,reina,,la,,1107.2238,1107.2239,0.074074074,-0.181481481,0,0,0,,0,215,215,314,1,riosa,,,,
,,,,,,5b5fdd52b36c3400014718b9,676192165fb32c2e1fb7aee6,67d1e7f51d375456c164ad6b,2025-03-12_14h00.51.308,Tarea de decisión léxica,2024.2.5,Win32,59.88023952,,,,,,,,,,,,,,,,,,,,,,,1107.2251,1108.3922,l,1,0.491,,0.491,1,1108.3925,1108.8925,,,,,,145,MAS,WORD,DIS,150,león,,la,,1108.8927,1108.8931,0.074074074,-0.181481481,0,0,0,,0,216,216,144,1,nobo,,,,
,,,,,,5b5fdd52b36c3400014718b9,676192165fb32c2e1fb7aee6,67d1e7f51d375456c164ad6b,2025-03-12_14h00.51.308,Tarea de decisión léxica,2024.2.5,Win32,59.88023952,,,,,,,,,,,,,,,,,,,,,,,1108.8957,1110.1657,l,1,0.5794,,0.5794,1,1110.1659,1110.6607,,,,,,73,MAS,WORD,DIS,150,odio,,la,,1110.6608,1110.6609,0.074074074,-0.181481481,0,0,0,,0,217,217,72,1,omio,,,,
,,,,,,5b5fdd52b36c3400014718b9,676192165fb32c2e1fb7aee6,67d1e7f51d375456c164ad6b,2025-03-12_14h00.51.308,Tarea de decisión léxica,2024.2.5,Win32,59.88023952,,,,,,,,,,,,,,,,,,,,,,,1110.6619,1112.5129,a,1,1.1856,,1.1856,1,1112.5131,1113.0137,,,,,,300,FEM,NOWORD,AGR,150,bosga,,la,,1113.0175,1113.0192,0.074074074,-0.181481481,0,0,0,,0,218,218,299,1,bolsa,,,,
,,,,,,5b5fdd52b36c3400014718b9,676192165fb32c2e1fb7aee6,67d1e7f51d375456c164ad6b,2025-03-12_14h00.51.308,Tarea de decisión léxica,2024.2.5,Win32,59.88023952,,,,,,,,,,,,,,,,,,,,,,,1113.0211,1114.1825,a,1,0.4856,,0.4856,1,1114.1827,1114.6823,,,,,,66,MAS,NOWORD,DIS,150,nios,,la,,1114.6824,1114.6828,0.074074074,-0.181481481,0,0,0,,0,219,219,65,1,dios,,,,
,,,,,,5b5fdd52b36c3400014718b9,676192165fb32c2e1fb7aee6,67d1e7f51d375456c164ad6b,2025-03-12_14h00.51.308,Tarea de decisión léxica,2024.2.5,Win32,59.88023952,,,,,,,,,,,,,,,,,,,,,,,1114.6861,1115.7662,a,1,0.401,,0.401,1,1115.7663,1116.2681,,,,,,10,MAS,NOWORD,DIS,150,sibo,,la,,1116.2682,1116.2684,0.074074074,-0.181481481,0,0,0,,0,220,220,9,1,tipo,,,,
,,,,,,5b5fdd52b36c3400014718b9,676192165fb32c2e1fb7aee6,67d1e7f51d375456c164ad6b,2025-03-12_14h00.51.308,Tarea de decisión léxica,2024.2.5,Win32,59.88023952,,,,,,,,,,,,,,,,,,,,,,,1116.2709,1117.6357,a,1,0.6875,,0.6875,1,1117.636,1118.1356,,,,,,216,FEM,NOWORD,AGR,150,raua,,la,,1118.1357,1118.1359,0.074074074,-0.181481481,0,0,0,,0,221,221,215,1,raíz,,,,
,,,,,,5b5fdd52b36c3400014718b9,676192165fb32c2e1fb7aee6,67d1e7f51d375456c164ad6b,2025-03-12_14h00.51.308,Tarea de decisión léxica,2024.2.5,Win32,59.88023952,,,,,,,,,,,,,,,,,,,,,,,1118.1375,1119.2873,l,1,0.4731,,0.4731,1,1119.2878,1119.7874,,,,,,173,FEM,WORD,DIS,150,rosa,,el,,1119.7875,1119.7876,0.074074074,-0.181481481,0,0,0,,0,222,222,172,1,boma,,,,
,,,,,,5b5fdd52b36c3400014718b9,676192165fb32c2e1fb7aee6,67d1e7f51d375456c164ad6b,2025-03-12_14h00.51.308,Tarea de decisión léxica,2024.2.5,Win32,59.88023952,,,,,,,,,,,,,,,,,,,,,,,1119.7893,1120.8567,l,1,0.391,,0.391,1,1120.8568,1121.3562,,,,,,7,MAS,WORD,AGR,150,hijo,,el,,1121.3595,1121.3615,0.074074074,-0.181481481,0,0,0,,0,223,223,6,1,nivo,,,,
,,,,,,5b5fdd52b36c3400014718b9,676192165fb32c2e1fb7aee6,67d1e7f51d375456c164ad6b,2025-03-12_14h00.51.308,Tarea de decisión léxica,2024.2.5,Win32,59.88023952,,,,,,,,,,,,,,,,,,,,,,,1121.3636,1122.4239,l,1,0.3875,,0.3875,1,1122.4239,1122.9171,,,,,,163,FEM,WORD,AGR,150,fama,,la,,1122.9171,1122.9172,0.074074074,-0.181481481,0,0,0,,0,224,224,162,1,laga,,,,
,,,,,,5b5fdd52b36c3400014718b9,676192165fb32c2e1fb7aee6,67d1e7f51d375456c164ad6b,2025-03-12_14h00.51.308,Tarea de decisión léxica,2024.2.5,Win32,59.88023952,,,,,,,,,,,,,,,,,,,,,,,1122.9182,1123.9428,l,1,0.3528,,0.3528,1,1123.9429,1124.4425,,,,,,241,MAS,WORD,DIS,150,mundo,,la,,1124.4425,1124.4426,0.074074074,-0.181481481,0,0,0,,0,225,225,240,1,mirdo,,,,
,,,,,,5b5fdd52b36c3400014718b9,676192165fb32c2e1fb7aee6,67d1e7f51d375456c164ad6b,2025-03-12_14h00.51.308,Tarea de decisión léxica,2024.2.5,Win32,59.88023952,,,,,,,,,,,,,,,,,,,,,,,1124.4437,1125.4616,l,1,0.352,,0.352,1,1125.4618,1125.9612,,,,,,113,FEM,WORD,DIS,150,miel,,el,,1125.9614,1125.9617,0.074074074,-0.181481481,0,0,0,,0,226,226,112,1,tada,,,,
,,,,,,5b5fdd52b36c3400014718b9,676192165fb32c2e1fb7aee6,67d1e7f51d375456c164ad6b,2025-03-12_14h00.51.308,Tarea de decisión léxica,2024.2.5,Win32,59.88023952,,,,,,,,,,,,,,,,,,,,,,,1125.9647,1127.3123,a,0,0.6692,,0.6692,0,1127.3131,1127.8135,,,,,,475,FEM,WORD,AGR,150,manta,,la,,1127.8171,1127.8195,0.074074074,-0.181481481,0,0,0,,0,227,227,474,1,mucta,,,,
,,,,,,5b5fdd52b36c3400014718b9,676192165fb32c2e1fb7aee6,67d1e7f51d375456c164ad6b,2025-03-12_14h00.51.308,Tarea de decisión léxica,2024.2.5,Win32,59.88023952,,,,,,,,,,,,,,,,,,,,,,,1127.8216,1129.2654,l,0,0.7732,,0.7732,0,1129.2657,1129.7656,,,,,,94,FEM,NOWORD,DIS,150,rona,,el,,1129.7657,1129.766,0.074074074,-0.181481481,0,0,0,,0,228,228,93,1,bola,,,,
,,,,,,5b5fdd52b36c3400014718b9,676192165fb32c2e1fb7aee6,67d1e7f51d375456c164ad6b,2025-03-12_14h00.51.308,Tarea de decisión léxica,2024.2.5,Win32,59.88023952,,,,,,,,,,,,,,,,,,,,,,,1129.7687,1130.8838,a,1,0.4366,,0.4366,1,1130.8866,1131.3838,,,,,,34,FEM,NOWORD,DIS,150,loda,,el,,1131.384,1131.3843,0.074074074,-0.181481481,0,0,0,,0,229,229,33,1,boca,,,,
,,,,,,5b5fdd52b36c3400014718b9,676192165fb32c2e1fb7aee6,67d1e7f51d375456c164ad6b,2025-03-12_14h00.51.308,Tarea de decisión léxica,2024.2.5,Win32,59.88023952,,,,,,,,,,,,,,,,,,,,,,,1131.3874,1132.7349,a,1,0.6693,,0.6693,1,1132.735,1133.2368,,,,,,474,FEM,NOWORD,DIS,150,felia,,el,,1133.2371,1133.2373,0.074074074,-0.181481481,0,0,0,,0,230,230,473,1,feria,,,,
,,,,,,5b5fdd52b36c3400014718b9,676192165fb32c2e1fb7aee6,67d1e7f51d375456c164ad6b,2025-03-12_14h00.51.308,Tarea de decisión léxica,2024.2.5,Win32,59.88023952,,,,,,,,,,,,,,,,,,,,,,,1133.2396,1134.5043,a,1,0.5901,,0.5901,1,1134.5048,1135.0045,,,,,,344,FEM,NOWORD,AGR,150,trada,,la,,1135.0046,1135.005,0.074074074,-0.181481481,0,0,0,,0,231,231,343,1,plata,,,,
,,,,,,5b5fdd52b36c3400014718b9,676192165fb32c2e1fb7aee6,67d1e7f51d375456c164ad6b,2025-03-12_14h00.51.308,Tarea de decisión léxica,2024.2.5,Win32,59.88023952,,,,,,,,,,,,,,,,,,,,,,,1135.0076,1136.3667,l,1,0.7011,,0.7011,1,1136.3669,1136.8565,,,,,,281,MAS,WORD,DIS,150,cielo,,la,,1136.8599,1136.8616,0.074074074,-0.181481481,0,0,0,,0,232,232,280,1,cauro,,,,
,,,,,,5b5fdd52b36c3400014718b9,676192165fb32c2e1fb7aee6,67d1e7f51d375456c164ad6b,2025-03-12_14h00.51.308,Tarea de decisión léxica,2024.2.5,Win32,59.88023952,,,,,,,,,,,,,,,,,,,,,,,1136.8634,1137.9745,a,1,0.4413,,0.4413,1,1137.9748,1138.4746,,,,,,292,FEM,NOWORD,AGR,150,mesta,,la,,1138.4747,1138.475,0.074074074,-0.181481481,0,0,0,,0,233,233,291,1,pista,,,,
,,,,,,5b5fdd52b36c3400014718b9,676192165fb32c2e1fb7aee6,67d1e7f51d375456c164ad6b,2025-03-12_14h00.51.308,Tarea de decisión léxica,2024.2.5,Win32,59.88023952,,,,,,,,,,,,,,,,,,,,,,,1138.4765,1139.5602,a,1,0.4186,,0.4186,1,1139.5604,1140.0602,,,,,,246,FEM,NOWORD,DIS,150,pafle,,el,,1140.0604,1140.0607,0.074074074,-0.181481481,0,0,0,,0,234,234,245,1,madre,,,,
,,,,,,5b5fdd52b36c3400014718b9,676192165fb32c2e1fb7aee6,67d1e7f51d375456c164ad6b,2025-03-12_14h00.51.308,Tarea de decisión léxica,2024.2.5,Win32,59.88023952,,,,,,,,,,,,,,,,,,,,,,,1140.0634,1141.145,l,1,0.4116,,0.4116,1,1141.1453,1141.6449,,,,,,291,FEM,WORD,AGR,150,pista,,la,,1141.645,1141.6453,0.074074074,-0.181481481,0,0,0,,0,235,235,290,1,mesta,,,,
,,,,,,5b5fdd52b36c3400014718b9,676192165fb32c2e1fb7aee6,67d1e7f51d375456c164ad6b,2025-03-12_14h00.51.308,Tarea de decisión léxica,2024.2.5,Win32,59.88023952,,,,,,,,,,,,,,,,,,,,,,,1141.6475,1142.7061,l,1,0.3814,,0.3814,1,1142.7063,1143.1968,,,,,,97,MAS,WORD,DIS,150,mono,,la,,1143.197,1143.1974,0.074074074,-0.181481481,0,0,0,,0,236,236,96,1,fopo,,,,
,,,,,,5b5fdd52b36c3400014718b9,676192165fb32c2e1fb7aee6,67d1e7f51d375456c164ad6b,2025-03-12_14h00.51.308,Tarea de decisión léxica,2024.2.5,Win32,59.88023952,,,,,,,,,,,,,,,,,,,,,,,1143.2008,1144.391,a,1,0.5174,,0.5174,1,1144.3912,1144.8816,,,,,,362,FEM,NOWORD,DIS,150,solle,,el,,1144.8831,1144.8843,0.074074074,-0.181481481,0,0,0,,0,237,237,361,1,torre,,,,
,,,,,,5b5fdd52b36c3400014718b9,676192165fb32c2e1fb7aee6,67d1e7f51d375456c164ad6b,2025-03-12_14h00.51.308,Tarea de decisión léxica,2024.2.5,Win32,59.88023952,,,,,,,,,,,,,,,,,,,,,,,1144.8856,1145.9678,l,1,0.4029,,0.4029,1,1145.9681,1146.4672,,,,,,303,MAS,WORD,AGR,150,barco,,el,,1146.4673,1146.4677,0.074074074,-0.181481481,0,0,0,,0,238,238,302,1,lanco,,,,
,,,,,,5b5fdd52b36c3400014718b9,676192165fb32c2e1fb7aee6,67d1e7f51d375456c164ad6b,2025-03-12_14h00.51.308,Tarea de decisión léxica,2024.2.5,Win32,59.88023952,,,,,,,,,,,,,,,,,,,,,,,1146.4703,1147.5857,a,1,0.4358,,0.4358,1,1147.5859,1148.0857,,,,,,172,MAS,NOWORD,AGR,150,niro,,el,,1148.0859,1148.0862,0.074074074,-0.181481481,0,0,0,,0,239,239,171,1,hilo,,,,
,,,,,,5b5fdd52b36c3400014718b9,676192165fb32c2e1fb7aee6,67d1e7f51d375456c164ad6b,2025-03-12_14h00.51.308,Tarea de decisión léxica,2024.2.5,Win32,59.88023952,,,,,,,,,,,,,,,,,,,,,,,1148.0889,1149.1865,a,1,0.4229,,0.4229,1,1149.1866,1149.6868,,,,,,280,FEM,NOWORD,AGR,150,grina,,la,,1149.6869,1149.687,0.074074074,-0.181481481,0,0,0,,0,240,240,279,1,prisa,,,,
,,,,,,5b5fdd52b36c3400014718b9,676192165fb32c2e1fb7aee6,67d1e7f51d375456c164ad6b,2025-03-12_14h00.51.308,Tarea de decisión léxica,2024.2.5,Win32,59.88023952,,,,,,,,,,,,,,,,,,,,,,,1149.6879,1150.7716,a,1,0.4087,,0.4087,1,1150.7718,1151.2726,,,,,,224,FEM,NOWORD,AGR,150,cira,,la,,1151.2728,1151.2733,0.074074074,-0.181481481,0,0,0,,0,241,241,223,1,cera,,,,
,,,,,,5b5fdd52b36c3400014718b9,676192165fb32c2e1fb7aee6,67d1e7f51d375456c164ad6b,2025-03-12_14h00.51.308,Tarea de decisión léxica,2024.2.5,Win32,59.88023952,,,,,,,,,,,,,,,,,,,,,,,1151.2771,1152.3423,l,1,0.3917,,0.3917,1,1152.3426,1152.8407,,,,,,11,MAS,WORD,AGR,150,lado,,el,,1152.8435,1152.8448,0.074074074,-0.181481481,0,0,0,,0,242,242,10,1,bapo,,,,
,,,,,,5b5fdd52b36c3400014718b9,676192165fb32c2e1fb7aee6,67d1e7f51d375456c164ad6b,2025-03-12_14h00.51.308,Tarea de decisión léxica,2024.2.5,Win32,59.88023952,,,,,,,,,,,,,,,,,,,,,,,1152.8461,1153.9258,a,1,0.4021,,0.4021,1,1153.9261,1154.4255,,,,,,232,FEM,NOWORD,AGR,150,heta,,la,,1154.4255,1154.4257,0.074074074,-0.181481481,0,0,0,,0,243,243,231,1,bota,,,,
,,,,,,5b5fdd52b36c3400014718b9,676192165fb32c2e1fb7aee6,67d1e7f51d375456c164ad6b,2025-03-12_14h00.51.308,Tarea de decisión léxica,2024.2.5,Win32,59.88023952,,,,,,,,,,,,,,,,,,,,,,,1154.4267,1155.4793,l,1,0.3937,,0.3937,1,1155.4801,1155.9777,,,,,,229,MAS,WORD,DIS,150,amor,,la,,1155.9777,1155.9781,0.074074074,-0.181481481,0,0,0,,0,244,244,228,1,ador,,,,
,,,,,,5b5fdd52b36c3400014718b9,676192165fb32c2e1fb7aee6,67d1e7f51d375456c164ad6b,2025-03-12_14h00.51.308,Tarea de decisión léxica,2024.2.5,Win32,59.88023952,,,,,,,,,,,,,,,,,,,,,,,1155.9807,1157.0952,l,1,0.4162,,0.4162,1,1157.0954,1157.5955,,,,,,363,FEM,WORD,AGR,150,deuda,,la,,1157.5955,1157.5956,0.074074074,-0.181481481,0,0,0,,0,245,245,362,1,veida,,,,
,,,,,,5b5fdd52b36c3400014718b9,676192165fb32c2e1fb7aee6,67d1e7f51d375456c164ad6b,2025-03-12_14h00.51.308,Tarea de decisión léxica,2024.2.5,Win32,59.88023952,,,,,,,,,,,,,,,,,,,,,,,1157.5967,1158.7144,a,1,0.4541,,0.4541,1,1158.7146,1159.2146,,,,,,480,MAS,NOWORD,AGR,150,rimpo,,el,,1159.2147,1159.2151,0.074074074,-0.181481481,0,0,0,,0,246,246,479,1,rumbo,,,,
,,,,,,5b5fdd52b36c3400014718b9,676192165fb32c2e1fb7aee6,67d1e7f51d375456c164ad6b,2025-03-12_14h00.51.308,Tarea de decisión léxica,2024.2.5,Win32,59.88023952,,,,,,,,,,,,,,,,,,,,,,,1159.2183,1160.2987,a,1,0.404,,0.404,1,1160.2989,1160.8007,,,,,,312,MAS,NOWORD,AGR,150,nosor,,el,,1160.8036,1160.8053,0.074074074,-0.181481481,0,0,0,,0,247,247,311,1,honor,,,,
,,,,,,5b5fdd52b36c3400014718b9,676192165fb32c2e1fb7aee6,67d1e7f51d375456c164ad6b,2025-03-12_14h00.51.308,Tarea de decisión léxica,2024.2.5,Win32,59.88023952,,,,,,,,,,,,,,,,,,,,,,,1160.8076,1161.9178,a,1,0.4314,,0.4314,1,1161.9179,1162.4099,,,,,,366,FEM,NOWORD,DIS,150,gulla,,el,,1162.41,1162.4101,0.074074074,-0.181481481,0,0,0,,0,248,248,365,1,ducha,,,,
,,,,,,5b5fdd52b36c3400014718b9,676192165fb32c2e1fb7aee6,67d1e7f51d375456c164ad6b,2025-03-12_14h00.51.308,Tarea de decisión léxica,2024.2.5,Win32,59.88023952,,,,,,,,,,,,,,,,,,,,,,,1162.411,1163.57,l,1,0.487,,0.487,1,1163.5705,1164.0698,,,,,,123,FEM,WORD,AGR,150,flor,,la,,1164.07,1164.0703,0.074074074,-0.181481481,0,0,0,,0,249,249,122,1,maba,,,,
,,,,,,5b5fdd52b36c3400014718b9,676192165fb32c2e1fb7aee6,67d1e7f51d375456c164ad6b,2025-03-12_14h00.51.308,Tarea de decisión léxica,2024.2.5,Win32,59.88023952,,,,,,,,,,,,,,,,,,,,,,,1164.0734,1165.2053,a,1,0.4522,,0.4522,1,1165.2054,1165.7047,,,,,,436,MAS,NOWORD,AGR,150,ricno,,el,,1165.7048,1165.7051,0.074074074,-0.181481481,0,0,0,,0,250,250,435,1,ritmo,,,,
,,,,,,5b5fdd52b36c3400014718b9,676192165fb32c2e1fb7aee6,67d1e7f51d375456c164ad6b,2025-03-12_14h00.51.308,Tarea de decisión léxica,2024.2.5,Win32,59.88023952,,,,,,,,,,,,,,,,,,,,,,,1165.7072,1166.8404,l,1,0.4551,,0.4551,1,1166.8406,1167.3332,,,,,,95,FEM,WORD,AGR,151,moda,,la,,1167.3368,1167.3386,0.074074074,-0.181481481,0,0,0,,0,251,251,94,1,neda,,,,
,,,,,,5b5fdd52b36c3400014718b9,676192165fb32c2e1fb7aee6,67d1e7f51d375456c164ad6b,2025-03-12_14h00.51.308,Tarea de decisión léxica,2024.2.5,Win32,59.88023952,,,,,,,,,,,,,,,,,,,,,,,1167.3409,1168.3917,a,1,0.3889,,0.3889,1,1168.392,1168.8918,,,,,,116,FEM,NOWORD,AGR,150,haca,,la,,1168.8919,1168.892,0.074074074,-0.181481481,0,0,0,,0,252,252,115,1,pata,,,,
,,,,,,5b5fdd52b36c3400014718b9,676192165fb32c2e1fb7aee6,67d1e7f51d375456c164ad6b,2025-03-12_14h00.51.308,Tarea de decisión léxica,2024.2.5,Win32,59.88023952,,,,,,,,,,,,,,,,,,,,,,,1168.8934,1169.9925,l,1,0.4179,,0.4179,1,1169.9926,1170.4935,,,,,,135,MAS,WORD,AGR,150,tubo,,el,,1170.4936,1170.4939,0.074074074,-0.181481481,0,0,0,,0,253,253,134,1,geso,,,,
,,,,,,5b5fdd52b36c3400014718b9,676192165fb32c2e1fb7aee6,67d1e7f51d375456c164ad6b,2025-03-12_14h00.51.308,Tarea de decisión léxica,2024.2.5,Win32,59.88023952,,,,,,,,,,,,,,,,,,,,,,,1170.4967,1171.5278,a,1,0.3673,,0.3673,1,1171.528,1172.0285,,,,,,168,FEM,NOWORD,AGR,150,zifa,,la,,1172.0287,1172.0291,0.074074074,-0.181481481,0,0,0,,0,254,254,167,1,jefa,,,,
,,,,,,5b5fdd52b36c3400014718b9,676192165fb32c2e1fb7aee6,67d1e7f51d375456c164ad6b,2025-03-12_14h00.51.308,Tarea de decisión léxica,2024.2.5,Win32,59.88023952,,,,,,,,,,,,,,,,,,,,,,,1172.0323,1173.165,a,1,0.4544,,0.4544,1,1173.1654,1173.6637,,,,,,240,MAS,NOWORD,AGR,150,poño,,el,,1173.6639,1173.6643,0.074074074,-0.181481481,0,0,0,,0,255,255,239,1,mozo,,,,
,,,,,,5b5fdd52b36c3400014718b9,676192165fb32c2e1fb7aee6,67d1e7f51d375456c164ad6b,2025-03-12_14h00.51.308,Tarea de decisión léxica,2024.2.5,Win32,59.88023952,,,,,,,,,,,,,,,,,,,,,,,1173.6669,1174.6813,a,0,0.3274,,0.3274,0,1174.6821,1175.1819,,,,,,465,FEM,WORD,DIS,150,aguja,,el,,1175.1833,1175.1844,0.074074074,-0.181481481,0,0,0,,0,256,256,464,1,asuba,,,,
,,,,,,5b5fdd52b36c3400014718b9,676192165fb32c2e1fb7aee6,67d1e7f51d375456c164ad6b,2025-03-12_14h00.51.308,Tarea de decisión léxica,2024.2.5,Win32,59.88023952,,,,,,,,,,,,,,,,,,,,,,,1175.1867,1176.2508,l,1,0.3888,,0.3888,1,1176.2539,1176.7504,,,,,,389,MAS,WORD,DIS,150,cerdo,,la,,1176.7506,1176.751,0.074074074,-0.181481481,0,0,0,,0,257,257,388,1,cenco,,,,
,,,,,,5b5fdd52b36c3400014718b9,676192165fb32c2e1fb7aee6,67d1e7f51d375456c164ad6b,2025-03-12_14h00.51.308,Tarea de decisión léxica,2024.2.5,Win32,59.88023952,,,,,,,,,,,,,,,,,,,,,,,1176.7536,1177.9016,a,1,0.4698,,0.4698,1,1177.9017,1178.4018,,,,,,152,MAS,NOWORD,AGR,150,sogo,,el,,1178.4018,1178.402,0.074074074,-0.181481481,0,0,0,,0,258,258,151,1,tomo,,,,
,,,,,,5b5fdd52b36c3400014718b9,676192165fb32c2e1fb7aee6,67d1e7f51d375456c164ad6b,2025-03-12_14h00.51.308,Tarea de decisión léxica,2024.2.5,Win32,59.88023952,,,,,,,,,,,,,,,,,,,,,,,1178.4035,1179.5698,a,1,0.4993,,0.4993,1,1179.5698,1180.0708,,,,,,16,FEM,NOWORD,AGR,150,odea,,la,,1180.071,1180.0713,0.074074074,-0.181481481,0,0,0,,0,259,259,15,1,idea,,,,
,,,,,,5b5fdd52b36c3400014718b9,676192165fb32c2e1fb7aee6,67d1e7f51d375456c164ad6b,2025-03-12_14h00.51.308,Tarea de decisión léxica,2024.2.5,Win32,59.88023952,,,,,,,,,,,,,,,,,,,,,,,1180.0739,1181.2056,l,1,0.4574,,0.4574,1,1181.2056,1181.7058,,,,,,421,MAS,WORD,DIS,150,primo,,la,,1181.7058,1181.706,0.074074074,-0.181481481,0,0,0,,0,260,260,420,1,griso,,,,
,,,,,,5b5fdd52b36c3400014718b9,676192165fb32c2e1fb7aee6,67d1e7f51d375456c164ad6b,2025-03-12_14h00.51.308,Tarea de decisión léxica,2024.2.5,Win32,59.88023952,,,,,,,,,,,,,,,,,,,,,,,1181.7075,1182.8066,a,1,0.4163,,0.4163,1,1182.8066,1183.3076,,,,,,314,MAS,NOWORD,DIS,150,govio,,la,,1183.3109,1183.3127,0.074074074,-0.181481481,0,0,0,,0,261,261,313,1,novio,,,,
,,,,,,5b5fdd52b36c3400014718b9,676192165fb32c2e1fb7aee6,67d1e7f51d375456c164ad6b,2025-03-12_14h00.51.308,Tarea de decisión léxica,2024.2.5,Win32,59.88023952,,,,,,,,,,,,,,,,,,,,,,,1183.3147,1184.4269,l,1,0.4367,,0.4367,1,1184.4275,1184.9256,,,,,,65,MAS,WORD,DIS,150,dios,,la,,1184.9256,1184.9257,0.074074074,-0.181481481,0,0,0,,0,262,262,64,1,nios,,,,
