counterbalancing_condition,consent_prescreening.block_1/declare_consent,consent_prescreening.block_1/age_years,consent_prescreening.block_1/gender,consent_prescreening.block_1/language_disorder,consent_prescreening.block_1/first_language,consent_prescreening.block_1/first_language-Comment,PROLIFIC_PID,STUDY_ID,SESSION_ID,date,expName,psychopyVersion,OS,frameRate,check_prescreening_answers.started,check_prescreening_answers.stopped,Instructions.started,Instructions.stopped,instr_done_keyboard.keys,instr_done_touch.x,instr_done_touch.y,instr_done_touch.leftButton,instr_done_touch.midButton,instr_done_touch.rightButton,instr_done_touch.clicked_name,instruction_pages.thisRepN,instruction_pages.thisTrialN,instruction_pages.thisN,instruction_pages.thisIndex,instruction_pages.ran,pageN,phase,instruct_text,has_image,instruct_image,presentTrial.started,presentTrial.stopped,response.keys,response.corr,rt,corr,feedback.started,feedback.stopped,practice_trials.thisRepN,practice_trials.thisTrialN,practice_trials.thisN,practice_trials.thisIndex,practice_trials.ran,TrialID,Gender,StimulusType,Condition,PrimeDuration,Prime,len,Flanker,corrAns,response.rt,response.duration,instr_done_keyboard.rt,instr_done_keyboard.duration,Break.started,Break.stopped,break_done_touch.x,break_done_touch.y,break_done_touch.leftButton,break_done_touch.midButton,break_done_touch.rightButton,break_done_keyboard.keys,experiment_trials.thisRepN,experiment_trials.thisTrialN,experiment_trials.thisN,experiment_trials.thisIndex,experiment_trials.ran,PairedWith,break_done_keyboard.rt,break_done_keyboard.duration,End.started,End.stopped
1,"[""over_18"",""comfortable"",""read_info"",""consent_given""]",31,M,"[""none""]","[""spanish"",""other""]",Catalán,5b84a7ea4f38790001778d53,676192165fb32c2e1fb7aee6,67d193f1fa2f093bcce90207,2025-03-12_15h11.25.568,Tarea de decisión léxica,2024.2.5,Win32,59.88023952,,,,,,,,,,,,,,,,,,,,,,,,,,,,,,,,,,,,,,,,,,,,,,,,,,,,,,,,,,,,,,,,,
,,,,,,,5b84a7ea4f38790001778d53,676192165fb32c2e1fb7aee6,67d193f1fa2f093bcce90207,2025-03-12_15h11.25.568,Tarea de decisión léxica,2024.2.5,Win32,59.88023952,954.5876,954.588,,,,,,,,,,,,,,,,,,,,,,,,,,,,,,,,,,,,,,,,,,,,,,,,,,,,,,,,,,,,,,,
,,,,,,,5b84a7ea4f38790001778d53,676192165fb32c2e1fb7aee6,67d193f1fa2f093bcce90207,2025-03-12_15h11.25.568,Tarea de decisión léxica,2024.2.5,Win32,59.88023952,,,954.6432,959.885,,0.06833335,-0.396111128,1,0,0,instr_done_button,0,0,0,0,1,1,instructions,"INSTRUCCIONES
Va a realizar una prueba de decisión léxica. Desde el comienzo de la prueba mire siempre al centro de la pantalla. Se presentará una serie de cadenas de letras, una a la vez, en la pantalla. Su tarea consiste en determinar si cada cadena de letras constituye una palabra real en español o una no-palabra (una secuencia de letras que no constituye una palabra real). 

Pulse la tecla ESPACIO para continuar.",0,keyboardresponseWN.png,,,,,,,,,,,,,,,,,,,,,,,,,,,,,,,,,,,,,,,,,,,,
,,,,,,,5b84a7ea4f38790001778d53,676192165fb32c2e1fb7aee6,67d193f1fa2f093bcce90207,2025-03-12_15h11.25.568,Tarea de decisión léxica,2024.2.5,Win32,59.88023952,,,959.8919,966.7789,,0.091666667,-0.412777795,1,0,0,instr_done_button,0,1,1,1,1,2,instructions,"El procedimiento es el siguiente: Aparecerán dos barras verticales posicionadas en el centro de la pantalla, separadas por un pequeño espacio.Por favor, enfoque su atención en el espacio entre las barras. Esto preparará sus ojos para la siguiente cadena de letras, que aparecerá entre las dos barras durante un instante.

Pulse la tecla ESPACIO para continuar.",0,keyboardresponseWN.png,,,,,,,,,,,,,,,,,,,,,,,,,,,,,,,,,,,,,,,,,,,,
,,,,,,,5b84a7ea4f38790001778d53,676192165fb32c2e1fb7aee6,67d193f1fa2f093bcce90207,2025-03-12_15h11.25.568,Tarea de decisión léxica,2024.2.5,Win32,59.88023952,,,966.7881,970.4908,,0.09388894,-0.423333316,1,0,0,instr_done_button,0,2,2,2,1,3,instructions,"En el teclado de su dispositivo, pulse la tecla ""A"" si la cadena de letras es una palabra real en español (por ejemplo: ""mano"") y la tecla ""L"" si la cadena de letras es una no-palabra (por ejemplo: ""minu"").
Pulse la tecla ESPACIO para continuar.",1,keyboardresponseWN.png,,,,,,,,,,,,,,,,,,,,,,,,,,,,,,,,,,,,,,,,,,,,
,,,,,,,5b84a7ea4f38790001778d53,676192165fb32c2e1fb7aee6,67d193f1fa2f093bcce90207,2025-03-12_15h11.25.568,Tarea de decisión léxica,2024.2.5,Win32,59.88023952,,,970.5019,974.1935,,0.09388894,-0.423333316,1,0,0,instr_done_button,0,3,3,3,1,4,instructions,"Es muy importante que responda con la mayor rapidez y precisión posibles. Si no responde dentro de 2 segundos, aparecerá el mensaje ""Muy lento"" y el experimento pasará a la siguiente palabra. Inmediatamente después de su respuesta se indicará si fue correcta o no. Los primeros 15 intentos serán de práctica y habrá dos descansos durante la prueba.

Pulse la tecla ESPACIO  para iniciar la parte de práctica.",0,keyboardresponseWN.png,,,,,,,,,,,,,,,,,,,,,,,,,,,,,,,,,,,,,,,,,,,,
,,,,,,,5b84a7ea4f38790001778d53,676192165fb32c2e1fb7aee6,67d193f1fa2f093bcce90207,2025-03-12_15h11.25.568,Tarea de decisión léxica,2024.2.5,Win32,59.88023952,,,,,,,,,,,,,,,,,,,,,,974.2464,976.8726,,0,,-1,976.8744,977.3651,0,0,0,5,1,1006,FEM,WORD,AGR,150,cara,4,la,l,,,,,,,,,,,,,,,,,,,,,,
,,,,,,,5b84a7ea4f38790001778d53,676192165fb32c2e1fb7aee6,67d193f1fa2f093bcce90207,2025-03-12_15h11.25.568,Tarea de decisión léxica,2024.2.5,Win32,59.88023952,,,,,,,,,,,,,,,,,,,,,,977.3738,979.2303,a,0,1.1945,0,979.2551,979.7368,0,1,1,2,1,1003,FEM,NOWORD,DIS,150,muvor,5,el,a,1.1945,,,,,,,,,,,,,,,,,,,,,
,,,,,,,5b84a7ea4f38790001778d53,676192165fb32c2e1fb7aee6,67d193f1fa2f093bcce90207,2025-03-12_15h11.25.568,Tarea de decisión léxica,2024.2.5,Win32,59.88023952,,,,,,,,,,,,,,,,,,,,,,979.7446,981.3284,l,0,0.8836,0,981.3297,981.8324,0,2,2,7,1,1008,MAS,WORD,DIS,150,frío,4,la,l,0.8836,,,,,,,,,,,,,,,,,,,,,
,,,,,,,5b84a7ea4f38790001778d53,676192165fb32c2e1fb7aee6,67d193f1fa2f093bcce90207,2025-03-12_15h11.25.568,Tarea de decisión léxica,2024.2.5,Win32,59.88023952,,,,,,,,,,,,,,,,,,,,,,981.8406,983.1468,l,0,0.6266,0,983.1474,983.6405,0,3,3,9,1,1010,MAS,WORD,DIS,150,video,5,la,l,0.6266,,,,,,,,,,,,,,,,,,,,,
,,,,,,,5b84a7ea4f38790001778d53,676192165fb32c2e1fb7aee6,67d193f1fa2f093bcce90207,2025-03-12_15h11.25.568,Tarea de decisión léxica,2024.2.5,Win32,59.88023952,,,,,,,,,,,,,,,,,,,,,,983.6454,984.8287,l,0,0.505,0,984.8293,985.3324,0,4,4,8,1,1009,FEM,WORD,AGR,150,viejo,5,la,l,0.505,,,,,,,,,,,,,,,,,,,,,
,,,,,,,5b84a7ea4f38790001778d53,676192165fb32c2e1fb7aee6,67d193f1fa2f093bcce90207,2025-03-12_15h11.25.568,Tarea de decisión léxica,2024.2.5,Win32,59.88023952,,,,,,,,,,,,,,,,,,,,,,985.3399,986.8368,l,1,0.8258,1,986.8436,987.3176,0,5,5,4,1,1005,MAS,NOWORD,DIS,150,nobad,5,la,a,0.8258,,,,,,,,,,,,,,,,,,,,,
,,,,,,,5b84a7ea4f38790001778d53,676192165fb32c2e1fb7aee6,67d193f1fa2f093bcce90207,2025-03-12_15h11.25.568,Tarea de decisión léxica,2024.2.5,Win32,59.88023952,,,,,,,,,,,,,,,,,,,,,,987.3226,988.7139,a,0,0.7172,0,988.719,989.2094,0,6,6,3,1,1004,FEM,NOWORD,AGR,150,bireo,5,la,a,0.7172,,,,,,,,,,,,,,,,,,,,,
,,,,,,,5b84a7ea4f38790001778d53,676192165fb32c2e1fb7aee6,67d193f1fa2f093bcce90207,2025-03-12_15h11.25.568,Tarea de decisión léxica,2024.2.5,Win32,59.88023952,,,,,,,,,,,,,,,,,,,,,,989.2146,990.534,l,1,0.6565,1,990.5388,991.0313,0,7,7,0,1,1001,FEM,NOWORD,AGR,150,croz,4,la,a,0.6565,,,,,,,,,,,,,,,,,,,,,
,,,,,,,5b84a7ea4f38790001778d53,676192165fb32c2e1fb7aee6,67d193f1fa2f093bcce90207,2025-03-12_15h11.25.568,Tarea de decisión léxica,2024.2.5,Win32,59.88023952,,,,,,,,,,,,,,,,,,,,,,991.036,992.3656,l,1,0.6459,1,992.3663,992.8686,0,8,8,1,1,1002,FEM,NOWORD,DIS,150,mabo,4,el,a,0.6459,,,,,,,,,,,,,,,,,,,,,
,,,,,,,5b84a7ea4f38790001778d53,676192165fb32c2e1fb7aee6,67d193f1fa2f093bcce90207,2025-03-12_15h11.25.568,Tarea de decisión léxica,2024.2.5,Win32,59.88023952,,,,,,,,,,,,,,,,,,,,,,992.8757,994.4592,l,0,0.9012,0,994.4636,994.9485,0,9,9,6,1,1007,MAS,WORD,DIS,150,masa,4,la,l,0.9012,,,,,,,,,,,,,,,,,,,,,
,,,,,,,5b84a7ea4f38790001778d53,676192165fb32c2e1fb7aee6,67d193f1fa2f093bcce90207,2025-03-12_15h11.25.568,Tarea de decisión léxica,2024.2.5,Win32,59.88023952,,,1020.915,1029.2957,space,0.137222205,-0.426666684,0,0,0,,,,,,,,,,,,1029.387,1030.6462,l,1,0.5699,1,1030.6511,1031.1275,,,,,,192,FEM,NOWORD,DIS,150,bila,,el,,0.5699,,8.3344,,1031.1292,1031.1503,0.137222205,-0.427777778,0,0,0,,0,0,0,191,1,pila,,,,
,,,,,,,5b84a7ea4f38790001778d53,676192165fb32c2e1fb7aee6,67d193f1fa2f093bcce90207,2025-03-12_15h11.25.568,Tarea de decisión léxica,2024.2.5,Win32,59.88023952,,,,,,,,,,,,,,,,,,,,,,1031.1618,1032.3684,l,0,0.5292,0,1032.3727,1032.8588,,,,,,261,MAS,WORD,DIS,150,sitio,,la,,0.5292,,,,1032.8592,1032.8599,0.137777795,-0.429444461,0,0,0,,0,1,1,260,1,titio,,,,
,,,,,,,5b84a7ea4f38790001778d53,676192165fb32c2e1fb7aee6,67d193f1fa2f093bcce90207,2025-03-12_15h11.25.568,Tarea de decisión léxica,2024.2.5,Win32,59.88023952,,,,,,,,,,,,,,,,,,,,,,1032.8658,1034.3701,l,0,0.8316,0,1034.371,1034.8767,,,,,,459,MAS,WORD,AGR,150,grado,,el,,0.8316,,,,1034.884,1034.8871,0.137777795,-0.429444461,0,0,0,,0,2,2,458,1,fraco,,,,
,,,,,,,5b84a7ea4f38790001778d53,676192165fb32c2e1fb7aee6,67d193f1fa2f093bcce90207,2025-03-12_15h11.25.568,Tarea de decisión léxica,2024.2.5,Win32,59.88023952,,,,,,,,,,,,,,,,,,,,,,1034.8935,1036.4625,l,0,0.883,0,1036.4632,1036.9552,,,,,,299,FEM,WORD,DIS,150,bolsa,,el,,0.883,,,,1036.9556,1036.957,0.138333384,-0.430555556,0,0,0,,0,3,3,298,1,bosga,,,,
,,,,,,,5b84a7ea4f38790001778d53,676192165fb32c2e1fb7aee6,67d193f1fa2f093bcce90207,2025-03-12_15h11.25.568,Tarea de decisión léxica,2024.2.5,Win32,59.88023952,,,,,,,,,,,,,,,,,,,,,,1036.9649,1038.1801,l,0,0.5468,0,1038.1806,1038.6824,,,,,,391,MAS,WORD,AGR,150,dueño,,el,,0.5468,,,,1038.6828,1038.6835,0.138333384,-0.43166665,0,0,0,,0,4,4,390,1,dievo,,,,
,,,,,,,5b84a7ea4f38790001778d53,676192165fb32c2e1fb7aee6,67d193f1fa2f093bcce90207,2025-03-12_15h11.25.568,Tarea de decisión léxica,2024.2.5,Win32,59.88023952,,,,,,,,,,,,,,,,,,,,,,1038.689,1039.9863,l,1,0.5897,1,1039.9905,1040.4945,,,,,,474,FEM,NOWORD,AGR,150,felia,,la,,0.5897,,,,1040.495,1040.496,0.137777795,-0.43166665,0,0,0,,0,5,5,473,1,feria,,,,
,,,,,,,5b84a7ea4f38790001778d53,676192165fb32c2e1fb7aee6,67d193f1fa2f093bcce90207,2025-03-12_15h11.25.568,Tarea de decisión léxica,2024.2.5,Win32,59.88023952,,,,,,,,,,,,,,,,,,,,,,1040.5019,1041.7952,l,1,0.6075,1,1041.7958,1042.3015,,,,,,172,MAS,NOWORD,DIS,150,niro,,la,,0.6075,,,,1042.3017,1042.3022,0.137777795,-0.43166665,0,0,0,,0,6,6,171,1,hilo,,,,
,,,,,,,5b84a7ea4f38790001778d53,676192165fb32c2e1fb7aee6,67d193f1fa2f093bcce90207,2025-03-12_15h11.25.568,Tarea de decisión léxica,2024.2.5,Win32,59.88023952,,,,,,,,,,,,,,,,,,,,,,1042.3047,1043.6291,a,1,0.6366,1,1043.6298,1044.1166,,,,,,67,FEM,WORD,AGR,150,nena,,la,,0.6366,,,,1044.1217,1044.125,0.137777795,-0.43166665,0,0,0,,0,7,7,66,1,gesa,,,,
,,,,,,,5b84a7ea4f38790001778d53,676192165fb32c2e1fb7aee6,67d193f1fa2f093bcce90207,2025-03-12_15h11.25.568,Tarea de decisión léxica,2024.2.5,Win32,59.88023952,,,,,,,,,,,,,,,,,,,,,,1044.1271,1045.4176,l,1,0.6129,1,1045.418,1045.897,,,,,,446,MAS,NOWORD,AGR,150,ascor,,el,,0.6129,,,,1045.8977,1045.8986,0.137777795,-0.433888923,0,0,0,,0,8,8,445,1,actor,,,,
,,,,,,,5b84a7ea4f38790001778d53,676192165fb32c2e1fb7aee6,67d193f1fa2f093bcce90207,2025-03-12_15h11.25.568,Tarea de decisión léxica,2024.2.5,Win32,59.88023952,,,,,,,,,,,,,,,,,,,,,,1045.9038,1047.3623,a,1,0.7666,1,1047.3632,1047.8644,,,,,,193,FEM,WORD,DIS,150,loca,,el,,0.7666,,,,1047.8646,1047.8655,0.137777795,-0.433888923,0,0,0,,0,9,9,192,1,foda,,,,
,,,,,,,5b84a7ea4f38790001778d53,676192165fb32c2e1fb7aee6,67d193f1fa2f093bcce90207,2025-03-12_15h11.25.568,Tarea de decisión léxica,2024.2.5,Win32,59.88023952,,,,,,,,,,,,,,,,,,,,,,1047.8715,1049.072,a,1,0.5302,1,1049.0723,1049.5691,,,,,,77,MAS,WORD,DIS,150,loco,,la,,0.5302,,,,1049.5695,1049.5704,0.137777795,-0.433888923,0,0,0,,0,10,10,76,1,fodo,,,,
,,,,,,,5b84a7ea4f38790001778d53,676192165fb32c2e1fb7aee6,67d193f1fa2f093bcce90207,2025-03-12_15h11.25.568,Tarea de decisión léxica,2024.2.5,Win32,59.88023952,,,,,,,,,,,,,,,,,,,,,,1049.5754,1050.7809,l,1,0.5029,1,1050.7814,1051.2694,,,,,,196,FEM,NOWORD,DIS,150,sira,,el,,0.5029,,,,1051.2768,1051.2804,0.137777795,-0.433888923,0,0,0,,0,11,11,195,1,tela,,,,
,,,,,,,5b84a7ea4f38790001778d53,676192165fb32c2e1fb7aee6,67d193f1fa2f093bcce90207,2025-03-12_15h11.25.568,Tarea de decisión léxica,2024.2.5,Win32,59.88023952,,,,,,,,,,,,,,,,,,,,,,1051.2835,1052.5308,a,1,0.5524,1,1052.5317,1053.0282,,,,,,269,MAS,WORD,DIS,150,perro,,la,,0.5524,,,,1053.0285,1053.0293,0.137777795,-0.433888923,0,0,0,,0,12,12,268,1,mello,,,,
,,,,,,,5b84a7ea4f38790001778d53,676192165fb32c2e1fb7aee6,67d193f1fa2f093bcce90207,2025-03-12_15h11.25.568,Tarea de decisión léxica,2024.2.5,Win32,59.88023952,,,,,,,,,,,,,,,,,,,,,,1053.0348,1054.4577,a,1,0.7527,1,1054.4582,1054.9641,,,,,,263,FEM,WORD,DIS,150,vista,,el,,0.7527,,,,1054.9642,1054.9644,0.137777795,-0.433888923,0,0,0,,0,13,13,262,1,dosta,,,,
,,,,,,,5b84a7ea4f38790001778d53,676192165fb32c2e1fb7aee6,67d193f1fa2f093bcce90207,2025-03-12_15h11.25.568,Tarea de decisión léxica,2024.2.5,Win32,59.88023952,,,,,,,,,,,,,,,,,,,,,,1054.9673,1056.1896,l,1,0.5442,1,1056.1901,1056.6792,,,,,,410,MAS,NOWORD,AGR,150,pafro,,el,,0.5442,,,,1056.6794,1056.6799,0.137777795,-0.433888923,0,0,0,,0,14,14,409,1,carro,,,,
,,,,,,,5b84a7ea4f38790001778d53,676192165fb32c2e1fb7aee6,67d193f1fa2f093bcce90207,2025-03-12_15h11.25.568,Tarea de decisión léxica,2024.2.5,Win32,59.88023952,,,,,,,,,,,,,,,,,,,,,,1056.6857,1057.9168,l,1,0.544,1,1057.9174,1058.4173,,,,,,356,FEM,NOWORD,DIS,150,bepla,,el,,0.544,,,,1058.4175,1058.4181,0.137777795,-0.433888923,0,0,0,,0,15,15,355,1,regla,,,,
,,,,,,,5b84a7ea4f38790001778d53,676192165fb32c2e1fb7aee6,67d193f1fa2f093bcce90207,2025-03-12_15h11.25.568,Tarea de decisión léxica,2024.2.5,Win32,59.88023952,,,,,,,,,,,,,,,,,,,,,,1058.4237,1059.5791,a,1,0.4767,1,1059.5796,1060.0556,,,,,,37,MAS,WORD,DIS,150,rato,,la,,0.4767,,,,1060.0668,1060.0688,0.137777795,-0.433888923,0,0,0,,0,16,16,36,1,gaco,,,,
,,,,,,,5b84a7ea4f38790001778d53,676192165fb32c2e1fb7aee6,67d193f1fa2f093bcce90207,2025-03-12_15h11.25.568,Tarea de decisión léxica,2024.2.5,Win32,59.88023952,,,,,,,,,,,,,,,,,,,,,,1060.0709,1061.2917,l,1,0.5275,1,1061.2924,1061.7734,,,,,,454,FEM,NOWORD,AGR,150,pafia,,la,,0.5275,,,,1061.7737,1061.7744,0.137777795,-0.433888923,0,0,0,,0,17,17,453,1,mafia,,,,
,,,,,,,5b84a7ea4f38790001778d53,676192165fb32c2e1fb7aee6,67d193f1fa2f093bcce90207,2025-03-12_15h11.25.568,Tarea de decisión léxica,2024.2.5,Win32,59.88023952,,,,,,,,,,,,,,,,,,,,,,1061.7792,1062.9703,l,1,0.4949,1,1062.9712,1063.4772,,,,,,340,MAS,NOWORD,DIS,150,plajo,,la,,0.4949,,,,1063.4774,1063.4777,0.137777795,-0.433888923,0,0,0,,0,18,18,339,1,brazo,,,,
,,,,,,,5b84a7ea4f38790001778d53,676192165fb32c2e1fb7aee6,67d193f1fa2f093bcce90207,2025-03-12_15h11.25.568,Tarea de decisión léxica,2024.2.5,Win32,59.88023952,,,,,,,,,,,,,,,,,,,,,,1063.4816,1064.5879,l,0,0.4114,0,1064.5938,1065.0652,,,,,,181,FEM,WORD,AGR,150,seda,,la,,0.4114,,,,1065.0654,1065.066,0.137777795,-0.434444427,0,0,0,,0,19,19,180,1,teda,,,,
,,,,,,,5b84a7ea4f38790001778d53,676192165fb32c2e1fb7aee6,67d193f1fa2f093bcce90207,2025-03-12_15h11.25.568,Tarea de decisión léxica,2024.2.5,Win32,59.88023952,,,,,,,,,,,,,,,,,,,,,,1065.0717,1066.1344,a,1,0.3775,1,1066.1388,1066.6235,,,,,,203,FEM,WORD,AGR,150,leña,,la,,0.3775,,,,1066.6239,1066.6244,0.137777795,-0.434444427,0,0,0,,0,20,20,202,1,beja,,,,
,,,,,,,5b84a7ea4f38790001778d53,676192165fb32c2e1fb7aee6,67d193f1fa2f093bcce90207,2025-03-12_15h11.25.568,Tarea de decisión léxica,2024.2.5,Win32,59.88023952,,,,,,,,,,,,,,,,,,,,,,1066.6288,1067.7132,l,1,0.3897,1,1067.7144,1068.1926,,,,,,4,FEM,NOWORD,DIS,150,dica,,el,,0.3897,,,,1068.1994,1068.2023,0.137777795,-0.433888923,0,0,0,,0,21,21,3,1,vida,,,,
,,,,,,,5b84a7ea4f38790001778d53,676192165fb32c2e1fb7aee6,67d193f1fa2f093bcce90207,2025-03-12_15h11.25.568,Tarea de decisión léxica,2024.2.5,Win32,59.88023952,,,,,,,,,,,,,,,,,,,,,,1068.2044,1069.3539,l,1,0.4492,1,1069.3546,1069.8599,,,,,,476,FEM,NOWORD,DIS,150,mucta,,el,,0.4492,,,,1069.8602,1069.8609,0.137777795,-0.433888923,0,0,0,,0,22,22,475,1,manta,,,,
,,,,,,,5b84a7ea4f38790001778d53,676192165fb32c2e1fb7aee6,67d193f1fa2f093bcce90207,2025-03-12_15h11.25.568,Tarea de decisión léxica,2024.2.5,Win32,59.88023952,,,,,,,,,,,,,,,,,,,,,,1069.867,1071.0603,l,1,0.5038,1,1071.0614,1071.5601,,,,,,386,FEM,NOWORD,AGR,150,febra,,la,,0.5038,,,,1071.5604,1071.5609,0.137777795,-0.433888923,0,0,0,,0,23,23,385,1,letra,,,,
,,,,,,,5b84a7ea4f38790001778d53,676192165fb32c2e1fb7aee6,67d193f1fa2f093bcce90207,2025-03-12_15h11.25.568,Tarea de decisión léxica,2024.2.5,Win32,59.88023952,,,,,,,,,,,,,,,,,,,,,,1071.5661,1072.7197,l,1,0.4645,1,1072.7207,1073.2111,,,,,,242,MAS,NOWORD,AGR,150,mirdo,,el,,0.4645,,,,1073.2112,1073.2115,0.137777795,-0.433888923,0,0,0,,0,24,24,241,1,mundo,,,,
,,,,,,,5b84a7ea4f38790001778d53,676192165fb32c2e1fb7aee6,67d193f1fa2f093bcce90207,2025-03-12_15h11.25.568,Tarea de decisión léxica,2024.2.5,Win32,59.88023952,,,,,,,,,,,,,,,,,,,,,,1073.2139,1074.2995,a,1,0.3925,1,1074.3001,1074.8057,,,,,,389,MAS,WORD,DIS,150,cerdo,,la,,0.3925,,,,1074.8061,1074.8066,0.137777795,-0.433888923,0,0,0,,0,25,25,388,1,cenco,,,,
,,,,,,,5b84a7ea4f38790001778d53,676192165fb32c2e1fb7aee6,67d193f1fa2f093bcce90207,2025-03-12_15h11.25.568,Tarea de decisión léxica,2024.2.5,Win32,59.88023952,,,,,,,,,,,,,,,,,,,,,,1074.8122,1075.9912,l,1,0.5004,1,1075.9916,1076.4948,,,,,,22,MAS,NOWORD,AGR,150,blan,,el,,0.5004,,,,1076.5025,1076.5056,0.137777795,-0.433888923,0,0,0,,0,26,26,21,1,plan,,,,
,,,,,,,5b84a7ea4f38790001778d53,676192165fb32c2e1fb7aee6,67d193f1fa2f093bcce90207,2025-03-12_15h11.25.568,Tarea de decisión léxica,2024.2.5,Win32,59.88023952,,,,,,,,,,,,,,,,,,,,,,1076.5075,1077.6827,a,1,0.4845,1,1077.684,1078.1795,,,,,,99,MAS,WORD,AGR,150,lobo,,el,,0.4845,,,,1078.1798,1078.1803,0.137777795,-0.433888923,0,0,0,,0,27,27,98,1,soro,,,,
,,,,,,,5b84a7ea4f38790001778d53,676192165fb32c2e1fb7aee6,67d193f1fa2f093bcce90207,2025-03-12_15h11.25.568,Tarea de decisión léxica,2024.2.5,Win32,59.88023952,,,,,,,,,,,,,,,,,,,,,,1078.186,1079.4065,a,1,0.5417,1,1079.4071,1079.9127,,,,,,149,MAS,WORD,AGR,150,cabo,,el,,0.5417,,,,1079.913,1079.9134,0.137777795,-0.433888923,0,0,0,,0,28,28,148,1,pafo,,,,
,,,,,,,5b84a7ea4f38790001778d53,676192165fb32c2e1fb7aee6,67d193f1fa2f093bcce90207,2025-03-12_15h11.25.568,Tarea de decisión léxica,2024.2.5,Win32,59.88023952,,,,,,,,,,,,,,,,,,,,,,1079.9184,1081.0349,a,1,0.4257,1,1081.0358,1081.539,,,,,,11,MAS,WORD,DIS,150,lado,,la,,0.4257,,,,1081.5392,1081.5396,0.137777795,-0.433888923,0,0,0,,0,29,29,10,1,bapo,,,,
,,,,,,,5b84a7ea4f38790001778d53,676192165fb32c2e1fb7aee6,67d193f1fa2f093bcce90207,2025-03-12_15h11.25.568,Tarea de decisión léxica,2024.2.5,Win32,59.88023952,,,,,,,,,,,,,,,,,,,,,,1081.5438,1082.7041,l,1,0.4706,1,1082.7046,1083.2231,,,,,,124,FEM,NOWORD,DIS,150,maba,,el,,0.4706,,,,1083.2233,1083.2236,0.137777795,-0.434444427,0,0,0,,0,30,30,123,1,flor,,,,
,,,,,,,5b84a7ea4f38790001778d53,676192165fb32c2e1fb7aee6,67d193f1fa2f093bcce90207,2025-03-12_15h11.25.568,Tarea de decisión léxica,2024.2.5,Win32,59.88023952,,,,,,,,,,,,,,,,,,,,,,1083.2272,1084.3348,a,1,0.4318,1,1084.3368,1084.8369,,,,,,87,MAS,WORD,DIS,150,vaso,,la,,0.4318,,,,1084.8449,1084.8484,0.137777795,-0.434444427,0,0,0,,0,31,31,86,1,damo,,,,
,,,,,,,5b84a7ea4f38790001778d53,676192165fb32c2e1fb7aee6,67d193f1fa2f093bcce90207,2025-03-12_15h11.25.568,Tarea de decisión léxica,2024.2.5,Win32,59.88023952,,,,,,,,,,,,,,,,,,,,,,1084.8503,1085.8954,a,1,0.3617,1,1085.8964,1086.3918,,,,,,205,FEM,WORD,DIS,150,rana,,el,,0.3617,,,,1086.3923,1086.3929,0.137777795,-0.434444427,0,0,0,,0,32,32,204,1,bara,,,,
,,,,,,,5b84a7ea4f38790001778d53,676192165fb32c2e1fb7aee6,67d193f1fa2f093bcce90207,2025-03-12_15h11.25.568,Tarea de decisión léxica,2024.2.5,Win32,59.88023952,,,,,,,,,,,,,,,,,,,,,,1086.3988,1087.4025,a,1,0.3321,1,1087.4039,1087.8887,,,,,,355,FEM,WORD,AGR,150,regla,,la,,0.3321,,,,1087.889,1087.8894,0.137777795,-0.434444427,0,0,0,,0,33,33,354,1,bepla,,,,
,,,,,,,5b84a7ea4f38790001778d53,676192165fb32c2e1fb7aee6,67d193f1fa2f093bcce90207,2025-03-12_15h11.25.568,Tarea de decisión léxica,2024.2.5,Win32,59.88023952,,,,,,,,,,,,,,,,,,,,,,1087.8947,1088.9938,l,1,0.4169,1,1088.9941,1089.4935,,,,,,402,MAS,NOWORD,AGR,150,pirvo,,el,,0.4169,,,,1089.4937,1089.4942,0.137777795,-0.434444427,0,0,0,,0,34,34,401,1,polvo,,,,
,,,,,,,5b84a7ea4f38790001778d53,676192165fb32c2e1fb7aee6,67d193f1fa2f093bcce90207,2025-03-12_15h11.25.568,Tarea de decisión léxica,2024.2.5,Win32,59.88023952,,,,,,,,,,,,,,,,,,,,,,1089.4998,1090.6923,l,1,0.4869,1,1090.693,1091.1921,,,,,,198,MAS,NOWORD,AGR,150,dade,,el,,0.4869,,,,1091.198,1091.2016,0.137777795,-0.434444427,0,0,0,,0,35,35,197,1,bate,,,,
,,,,,,,5b84a7ea4f38790001778d53,676192165fb32c2e1fb7aee6,67d193f1fa2f093bcce90207,2025-03-12_15h11.25.568,Tarea de decisión léxica,2024.2.5,Win32,59.88023952,,,,,,,,,,,,,,,,,,,,,,1091.2054,1092.4131,l,1,0.4963,1,1092.4139,1092.8905,,,,,,60,FEM,NOWORD,DIS,150,tafa,,el,,0.4963,,,,1092.8908,1092.8916,0.137777795,-0.434444427,0,0,0,,0,36,36,59,1,sala,,,,
,,,,,,,5b84a7ea4f38790001778d53,676192165fb32c2e1fb7aee6,67d193f1fa2f093bcce90207,2025-03-12_15h11.25.568,Tarea de decisión léxica,2024.2.5,Win32,59.88023952,,,,,,,,,,,,,,,,,,,,,,1092.8975,1093.9799,l,1,0.4023,1,1093.9804,1094.4745,,,,,,66,MAS,NOWORD,AGR,150,nios,,el,,0.4023,,,,1094.4748,1094.4752,0.137777795,-0.434444427,0,0,0,,0,37,37,65,1,dios,,,,
,,,,,,,5b84a7ea4f38790001778d53,676192165fb32c2e1fb7aee6,67d193f1fa2f093bcce90207,2025-03-12_15h11.25.568,Tarea de decisión léxica,2024.2.5,Win32,59.88023952,,,,,,,,,,,,,,,,,,,,,,1094.4805,1095.5599,l,1,0.3956,1,1095.5605,1096.0612,,,,,,204,FEM,NOWORD,DIS,150,beja,,el,,0.3956,,,,1096.0614,1096.0618,0.137777795,-0.434444427,0,0,0,,0,38,38,203,1,leña,,,,
,,,,,,,5b84a7ea4f38790001778d53,676192165fb32c2e1fb7aee6,67d193f1fa2f093bcce90207,2025-03-12_15h11.25.568,Tarea de decisión léxica,2024.2.5,Win32,59.88023952,,,,,,,,,,,,,,,,,,,,,,1096.0662,1097.1555,l,1,0.417,1,1097.1563,1097.6417,,,,,,154,MAS,NOWORD,AGR,150,tado,,el,,0.417,,,,1097.6422,1097.6428,0.137777795,-0.434444427,0,0,0,,0,39,39,153,1,pato,,,,
,,,,,,,5b84a7ea4f38790001778d53,676192165fb32c2e1fb7aee6,67d193f1fa2f093bcce90207,2025-03-12_15h11.25.568,Tarea de decisión léxica,2024.2.5,Win32,59.88023952,,,,,,,,,,,,,,,,,,,,,,1097.6483,1098.7805,a,1,0.4596,1,1098.7814,1099.2676,,,,,,395,FEM,WORD,AGR,150,caída,,la,,0.4596,,,,1099.2747,1099.278,0.137777795,-0.434444427,0,0,0,,0,40,40,394,1,paeda,,,,
,,,,,,,5b84a7ea4f38790001778d53,676192165fb32c2e1fb7aee6,67d193f1fa2f093bcce90207,2025-03-12_15h11.25.568,Tarea de decisión léxica,2024.2.5,Win32,59.88023952,,,,,,,,,,,,,,,,,,,,,,1099.2824,1100.4884,l,1,0.5361,1,1100.4887,1100.9784,,,,,,336,FEM,NOWORD,DIS,150,pesta,,el,,0.5361,,,,1100.9785,1100.979,0.137777795,-0.434444427,0,0,0,,0,41,41,335,1,costa,,,,
,,,,,,,5b84a7ea4f38790001778d53,676192165fb32c2e1fb7aee6,67d193f1fa2f093bcce90207,2025-03-12_15h11.25.568,Tarea de decisión léxica,2024.2.5,Win32,59.88023952,,,,,,,,,,,,,,,,,,,,,,1100.9832,1102.1207,a,1,0.4396,1,1102.1217,1102.6019,,,,,,75,MAS,WORD,AGR,150,olor,,el,,0.4396,,,,1102.6021,1102.6029,0.137777795,-0.434444427,0,0,0,,0,42,42,74,1,ocer,,,,
,,,,,,,5b84a7ea4f38790001778d53,676192165fb32c2e1fb7aee6,67d193f1fa2f093bcce90207,2025-03-12_15h11.25.568,Tarea de decisión léxica,2024.2.5,Win32,59.88023952,,,,,,,,,,,,,,,,,,,,,,1102.6079,1103.7344,a,1,0.4479,1,1103.7349,1104.2366,,,,,,465,FEM,WORD,DIS,150,aguja,,el,,0.4479,,,,1104.237,1104.2375,0.137777795,-0.434444427,0,0,0,,0,43,43,464,1,asuba,,,,
,,,,,,,5b84a7ea4f38790001778d53,676192165fb32c2e1fb7aee6,67d193f1fa2f093bcce90207,2025-03-12_15h11.25.568,Tarea de decisión léxica,2024.2.5,Win32,59.88023952,,,,,,,,,,,,,,,,,,,,,,1104.242,1105.3424,a,1,0.4296,1,1105.3436,1105.8494,,,,,,353,FEM,WORD,DIS,150,celda,,el,,0.4296,,,,1105.8498,1105.8503,0.137777795,-0.434444427,0,0,0,,0,44,44,352,1,cezca,,,,
,,,,,,,5b84a7ea4f38790001778d53,676192165fb32c2e1fb7aee6,67d193f1fa2f093bcce90207,2025-03-12_15h11.25.568,Tarea de decisión léxica,2024.2.5,Win32,59.88023952,,,,,,,,,,,,,,,,,,,,,,1105.8562,1106.9481,a,1,0.4163,1,1106.9486,1107.4365,,,,,,41,FEM,WORD,DIS,150,nave,,el,,0.4163,,,,1107.4419,1107.4463,0.137777795,-0.434444427,0,0,0,,0,45,45,40,1,haje,,,,
,,,,,,,5b84a7ea4f38790001778d53,676192165fb32c2e1fb7aee6,67d193f1fa2f093bcce90207,2025-03-12_15h11.25.568,Tarea de decisión léxica,2024.2.5,Win32,59.88023952,,,,,,,,,,,,,,,,,,,,,,1107.4486,1108.4432,a,1,0.3203,1,1108.4439,1108.943,,,,,,195,FEM,WORD,AGR,150,tela,,la,,0.3203,,,,1108.9434,1108.9444,0.137777795,-0.434444427,0,0,0,,0,46,46,194,1,sira,,,,
,,,,,,,5b84a7ea4f38790001778d53,676192165fb32c2e1fb7aee6,67d193f1fa2f093bcce90207,2025-03-12_15h11.25.568,Tarea de decisión léxica,2024.2.5,Win32,59.88023952,,,,,,,,,,,,,,,,,,,,,,1108.9517,1109.9229,a,1,0.2732,1,1109.9234,1110.4227,,,,,,55,MAS,WORD,AGR,150,gato,,el,,0.2732,,,,1110.4229,1110.4233,0.137777795,-0.434444427,0,0,0,,0,47,47,54,1,jado,,,,
,,,,,,,5b84a7ea4f38790001778d53,676192165fb32c2e1fb7aee6,67d193f1fa2f093bcce90207,2025-03-12_15h11.25.568,Tarea de decisión léxica,2024.2.5,Win32,59.88023952,,,,,,,,,,,,,,,,,,,,,,1110.4286,1111.4157,a,0,0.2964,0,1111.4209,1111.9097,,,,,,136,MAS,NOWORD,DIS,150,geso,,la,,0.2964,,,,1111.9098,1111.9102,0.137777795,-0.434444427,0,0,0,,0,48,48,135,1,tubo,,,,
,,,,,,,5b84a7ea4f38790001778d53,676192165fb32c2e1fb7aee6,67d193f1fa2f093bcce90207,2025-03-12_15h11.25.568,Tarea de decisión léxica,2024.2.5,Win32,59.88023952,,,,,,,,,,,,,,,,,,,,,,1111.9148,1112.9258,a,1,0.3486,1,1112.9305,1113.4233,,,,,,83,FEM,WORD,DIS,150,bala,,el,,0.3486,,,,1113.4237,1113.4241,0.137777795,-0.434444427,0,0,0,,0,49,49,82,1,taga,,,,
,,,,,,,5b84a7ea4f38790001778d53,676192165fb32c2e1fb7aee6,67d193f1fa2f093bcce90207,2025-03-12_15h11.25.568,Tarea de decisión léxica,2024.2.5,Win32,59.88023952,,,,,,,,,,,,,,,,,,,,,,1113.4297,1114.5734,a,1,0.4592,1,1114.574,1115.0675,,,,,,437,FEM,WORD,DIS,150,plaza,,el,,0.4592,,,,1115.0718,1115.0745,0.137777795,-0.434444427,0,0,0,,0,50,50,436,1,glava,,,,
,,,,,,,5b84a7ea4f38790001778d53,676192165fb32c2e1fb7aee6,67d193f1fa2f093bcce90207,2025-03-12_15h11.25.568,Tarea de decisión léxica,2024.2.5,Win32,59.88023952,,,,,,,,,,,,,,,,,,,,,,1115.0768,1116.1177,a,1,0.3365,1,1116.1184,1116.6114,,,,,,137,MAS,WORD,AGR,150,nene,,el,,0.3365,,,,1116.6115,1116.6126,0.137777795,-0.434444427,0,0,0,,0,51,51,136,1,pamo,,,,
,,,,,,,5b84a7ea4f38790001778d53,676192165fb32c2e1fb7aee6,67d193f1fa2f093bcce90207,2025-03-12_15h11.25.568,Tarea de decisión léxica,2024.2.5,Win32,59.88023952,,,,,,,,,,,,,,,,,,,,,,1116.6186,1117.6342,a,0,0.34,0,1117.6398,1118.1241,,,,,,202,FEM,NOWORD,AGR,150,cusa,,la,,0.34,,,,1118.1246,1118.125,0.137777795,-0.434444427,0,0,0,,0,52,52,201,1,cuna,,,,
,,,,,,,5b84a7ea4f38790001778d53,676192165fb32c2e1fb7aee6,67d193f1fa2f093bcce90207,2025-03-12_15h11.25.568,Tarea de decisión léxica,2024.2.5,Win32,59.88023952,,,,,,,,,,,,,,,,,,,,,,1118.1309,1119.3383,l,1,0.5183,1,1119.3434,1119.8287,,,,,,114,FEM,NOWORD,AGR,150,tada,,la,,0.5183,,,,1119.8289,1119.8292,0.137777795,-0.434444427,0,0,0,,0,53,53,113,1,miel,,,,
,,,,,,,5b84a7ea4f38790001778d53,676192165fb32c2e1fb7aee6,67d193f1fa2f093bcce90207,2025-03-12_15h11.25.568,Tarea de decisión léxica,2024.2.5,Win32,59.88023952,,,,,,,,,,,,,,,,,,,,,,1119.8338,1121.0367,l,1,0.5012,1,1121.0373,1121.5349,,,,,,470,MAS,NOWORD,AGR,150,matia,,el,,0.5012,,,,1121.535,1121.5354,0.136666701,-0.431111145,0,0,0,,0,54,54,469,1,patio,,,,
,,,,,,,5b84a7ea4f38790001778d53,676192165fb32c2e1fb7aee6,67d193f1fa2f093bcce90207,2025-03-12_15h11.25.568,Tarea de decisión léxica,2024.2.5,Win32,59.88023952,,,,,,,,,,,,,,,,,,,,,,1121.539,1122.6721,a,1,0.458,1,1122.6724,1123.1573,,,,,,427,FEM,WORD,DIS,150,oreja,,el,,0.458,,,,1123.1616,1123.1651,0.136666701,-0.431111145,0,0,0,,0,55,55,426,1,oseva,,,,
,,,,,,,5b84a7ea4f38790001778d53,676192165fb32c2e1fb7aee6,67d193f1fa2f093bcce90207,2025-03-12_15h11.25.568,Tarea de decisión léxica,2024.2.5,Win32,59.88023952,,,,,,,,,,,,,,,,,,,,,,1123.1679,1124.264,a,1,0.4046,1,1124.2653,1124.7427,,,,,,285,MAS,WORD,AGR,150,error,,el,,0.4046,,,,1124.743,1124.7437,0.136666701,-0.431111145,0,0,0,,0,56,56,284,1,echor,,,,
,,,,,,,5b84a7ea4f38790001778d53,676192165fb32c2e1fb7aee6,67d193f1fa2f093bcce90207,2025-03-12_15h11.25.568,Tarea de decisión léxica,2024.2.5,Win32,59.88023952,,,,,,,,,,,,,,,,,,,,,,1124.749,1125.8604,l,1,0.4462,1,1125.8611,1126.3364,,,,,,464,FEM,NOWORD,DIS,150,matla,,el,,0.4462,,,,1126.3366,1126.3369,0.136666701,-0.431111145,0,0,0,,0,57,57,463,1,cabra,,,,
,,,,,,,5b84a7ea4f38790001778d53,676192165fb32c2e1fb7aee6,67d193f1fa2f093bcce90207,2025-03-12_15h11.25.568,Tarea de decisión léxica,2024.2.5,Win32,59.88023952,,,,,,,,,,,,,,,,,,,,,,1126.3406,1127.4805,a,1,0.4677,1,1127.481,1127.9617,,,,,,97,MAS,WORD,DIS,150,mono,,la,,0.4677,,,,1127.962,1127.9625,0.136666701,-0.431111145,0,0,0,,0,58,58,96,1,fopo,,,,
,,,,,,,5b84a7ea4f38790001778d53,676192165fb32c2e1fb7aee6,67d193f1fa2f093bcce90207,2025-03-12_15h11.25.568,Tarea de decisión léxica,2024.2.5,Win32,59.88023952,,,,,,,,,,,,,,,,,,,,,,1127.9683,1129.0693,l,1,0.4191,1,1129.0698,1129.5727,,,,,,306,MAS,NOWORD,AGR,150,adiol,,el,,0.4191,,,,1129.5765,1129.5797,0.136666701,-0.431111145,0,0,0,,0,59,59,305,1,avión,,,,
,,,,,,,5b84a7ea4f38790001778d53,676192165fb32c2e1fb7aee6,67d193f1fa2f093bcce90207,2025-03-12_15h11.25.568,Tarea de decisión léxica,2024.2.5,Win32,59.88023952,,,,,,,,,,,,,,,,,,,,,,1129.5836,1130.7742,a,1,0.508,1,1130.7747,1131.2713,,,,,,23,FEM,WORD,DIS,150,hija,,el,,0.508,,,,1131.2715,1131.2719,0.136666701,-0.431111145,0,0,0,,0,60,60,22,1,giva,,,,
,,,,,,,5b84a7ea4f38790001778d53,676192165fb32c2e1fb7aee6,67d193f1fa2f093bcce90207,2025-03-12_15h11.25.568,Tarea de decisión léxica,2024.2.5,Win32,59.88023952,,,,,,,,,,,,,,,,,,,,,,1131.276,1132.4074,a,1,0.4576,1,1132.408,1132.9107,,,,,,45,FEM,WORD,DIS,150,mesa,,el,,0.4576,,,,1132.911,1132.9113,0.136666701,-0.431111145,0,0,0,,0,61,61,44,1,pema,,,,
,,,,,,,5b84a7ea4f38790001778d53,676192165fb32c2e1fb7aee6,67d193f1fa2f093bcce90207,2025-03-12_15h11.25.568,Tarea de decisión léxica,2024.2.5,Win32,59.88023952,,,,,,,,,,,,,,,,,,,,,,1132.9162,1134.0718,l,1,0.4824,1,1134.0723,1134.5735,,,,,,42,FEM,NOWORD,AGR,150,haje,,la,,0.4824,,,,1134.5739,1134.5745,0.136666701,-0.431111145,0,0,0,,0,62,62,41,1,nave,,,,
,,,,,,,5b84a7ea4f38790001778d53,676192165fb32c2e1fb7aee6,67d193f1fa2f093bcce90207,2025-03-12_15h11.25.568,Tarea de decisión léxica,2024.2.5,Win32,59.88023952,,,,,,,,,,,,,,,,,,,,,,1134.5806,1135.7393,l,1,0.4831,1,1135.7403,1136.2286,,,,,,158,MAS,NOWORD,AGR,150,hico,,el,,0.4831,,,,1136.2289,1136.2295,0.136666701,-0.431111145,0,0,0,,0,63,63,157,1,nido,,,,
,,,,,,,5b84a7ea4f38790001778d53,676192165fb32c2e1fb7aee6,67d193f1fa2f093bcce90207,2025-03-12_15h11.25.568,Tarea de decisión léxica,2024.2.5,Win32,59.88023952,,,,,,,,,,,,,,,,,,,,,,1136.2353,1137.4153,l,1,0.4913,1,1137.4158,1137.9037,,,,,,292,FEM,NOWORD,DIS,150,mesta,,el,,0.4913,,,,1137.9129,1137.9163,0.136666701,-0.431111145,0,0,0,,0,64,64,291,1,pista,,,,
,,,,,,,5b84a7ea4f38790001778d53,676192165fb32c2e1fb7aee6,67d193f1fa2f093bcce90207,2025-03-12_15h11.25.568,Tarea de decisión léxica,2024.2.5,Win32,59.88023952,,,,,,,,,,,,,,,,,,,,,,1137.9191,1138.8981,a,1,0.3067,1,1138.8989,1139.3909,,,,,,103,FEM,WORD,DIS,150,ruta,,el,,0.3067,,,,1139.3911,1139.3917,0.136666701,-0.431111145,0,0,0,,0,65,65,102,1,rova,,,,
,,,,,,,5b84a7ea4f38790001778d53,676192165fb32c2e1fb7aee6,67d193f1fa2f093bcce90207,2025-03-12_15h11.25.568,Tarea de decisión léxica,2024.2.5,Win32,59.88023952,,,,,,,,,,,,,,,,,,,,,,1139.3962,1140.4534,a,1,0.3719,1,1140.454,1140.9522,,,,,,169,MAS,WORD,AGR,150,cubo,,el,,0.3719,,,,1140.9527,1140.9533,0.136666701,-0.431111145,0,0,0,,0,66,66,168,1,mibo,,,,
,,,,,,,5b84a7ea4f38790001778d53,676192165fb32c2e1fb7aee6,67d193f1fa2f093bcce90207,2025-03-12_15h11.25.568,Tarea de decisión léxica,2024.2.5,Win32,59.88023952,,,,,,,,,,,,,,,,,,,,,,1140.9587,1141.9947,a,1,0.35,1,1141.9956,1142.4847,,,,,,449,FEM,WORD,AGR,150,pluma,,la,,0.35,,,,1142.4848,1142.485,0.136666701,-0.431111145,0,0,0,,0,67,67,448,1,crusa,,,,
,,,,,,,5b84a7ea4f38790001778d53,676192165fb32c2e1fb7aee6,67d193f1fa2f093bcce90207,2025-03-12_15h11.25.568,Tarea de decisión léxica,2024.2.5,Win32,59.88023952,,,,,,,,,,,,,,,,,,,,,,1142.4888,1143.5585,a,1,0.3968,1,1143.5591,1144.048,,,,,,477,MAS,WORD,DIS,150,botón,,la,,0.3968,,,,1144.0485,1144.049,0.136666701,-0.431111145,0,0,0,,0,68,68,476,1,hocon,,,,
,,,,,,,5b84a7ea4f38790001778d53,676192165fb32c2e1fb7aee6,67d193f1fa2f093bcce90207,2025-03-12_15h11.25.568,Tarea de decisión léxica,2024.2.5,Win32,59.88023952,,,,,,,,,,,,,,,,,,,,,,1144.0563,1145.2896,l,1,0.5493,1,1145.2903,1145.7924,,,,,,432,MAS,NOWORD,DIS,150,tetor,,la,,0.5493,,,,1145.7967,1145.8005,0.136666701,-0.431111145,0,0,0,,0,69,69,431,1,motor,,,,
,,,,,,,5b84a7ea4f38790001778d53,676192165fb32c2e1fb7aee6,67d193f1fa2f093bcce90207,2025-03-12_15h11.25.568,Tarea de decisión léxica,2024.2.5,Win32,59.88023952,,,,,,,,,,,,,,,,,,,,,,1145.8046,1147.1632,l,1,0.6797,1,1147.1638,1147.6668,,,,,,310,FEM,NOWORD,AGR,150,tirra,,la,,0.6797,,,,1147.6672,1147.6677,0.136666701,-0.431111145,0,0,0,,0,70,70,309,1,silla,,,,
,,,,,,,5b84a7ea4f38790001778d53,676192165fb32c2e1fb7aee6,67d193f1fa2f093bcce90207,2025-03-12_15h11.25.568,Tarea de decisión léxica,2024.2.5,Win32,59.88023952,,,,,,,,,,,,,,,,,,,,,,1147.6733,1148.8446,a,1,0.4894,1,1148.845,1149.3382,,,,,,167,FEM,WORD,DIS,150,jefa,,el,,0.4894,,,,1149.3385,1149.3389,0.136666701,-0.431111145,0,0,0,,0,71,71,166,1,zifa,,,,
,,,,,,,5b84a7ea4f38790001778d53,676192165fb32c2e1fb7aee6,67d193f1fa2f093bcce90207,2025-03-12_15h11.25.568,Tarea de decisión léxica,2024.2.5,Win32,59.88023952,,,,,,,,,,,,,,,,,,,,,,1149.3438,1150.4516,a,1,0.4197,1,1150.4521,1150.9244,,,,,,143,MAS,WORD,AGR,150,pavo,,el,,0.4197,,,,1150.9246,1150.9253,0.136666701,-0.431111145,0,0,0,,0,72,72,142,1,pezo,,,,
,,,,,,,5b84a7ea4f38790001778d53,676192165fb32c2e1fb7aee6,67d193f1fa2f093bcce90207,2025-03-12_15h11.25.568,Tarea de decisión léxica,2024.2.5,Win32,59.88023952,,,,,,,,,,,,,,,,,,,,,,1150.9308,1152.1377,a,1,0.5287,1,1152.1385,1152.6333,,,,,,237,MAS,WORD,DIS,150,nudo,,la,,0.5287,,,,1152.6334,1152.6337,0.136666701,-0.431111145,0,0,0,,0,73,73,236,1,huco,,,,
,,,,,,,5b84a7ea4f38790001778d53,676192165fb32c2e1fb7aee6,67d193f1fa2f093bcce90207,2025-03-12_15h11.25.568,Tarea de decisión léxica,2024.2.5,Win32,59.88023952,,,,,,,,,,,,,,,,,,,,,,1152.6376,1153.9381,a,1,0.5985,1,1153.9383,1154.413,,,,,,235,FEM,WORD,AGR,150,grúa,,la,,0.5985,,,,1154.4167,1154.4183,0.136666701,-0.431111145,0,0,0,,0,74,74,234,1,tria,,,,
,,,,,,,5b84a7ea4f38790001778d53,676192165fb32c2e1fb7aee6,67d193f1fa2f093bcce90207,2025-03-12_15h11.25.568,Tarea de decisión léxica,2024.2.5,Win32,59.88023952,,,,,,,,,,,,,,,,,,,,,,1154.4203,1155.6163,a,1,0.4372,1,1155.6166,1156.1019,,,,,,411,MAS,WORD,AGR,150,pollo,,el,,0.4372,,,,1156.102,1156.1024,0.136666701,-0.431111145,0,0,0,,0,75,75,410,1,mobro,,,,
,,,,,,,5b84a7ea4f38790001778d53,676192165fb32c2e1fb7aee6,67d193f1fa2f093bcce90207,2025-03-12_15h11.25.568,Tarea de decisión léxica,2024.2.5,Win32,59.88023952,,,,,,,,,,,,,,,,,,,,,,1156.1052,1157.3974,l,1,0.5986,1,1157.3981,1157.8941,,,,,,328,MAS,NOWORD,DIS,150,lendo,,la,,0.5986,,,,1157.8941,1157.8943,0.136666701,-0.431111145,0,0,0,,0,76,76,327,1,fondo,,,,
,,,,,,,5b84a7ea4f38790001778d53,676192165fb32c2e1fb7aee6,67d193f1fa2f093bcce90207,2025-03-12_15h11.25.568,Tarea de decisión léxica,2024.2.5,Win32,59.88023952,,,,,,,,,,,,,,,,,,,,,,1157.8957,1159.2706,a,1,0.6653,1,1159.2708,1159.749,,,,,,379,MAS,WORD,DIS,150,turno,,la,,0.6653,,,,1159.7491,1159.7493,0.136666701,-0.431111145,0,0,0,,0,77,77,378,1,tunso,,,,
,,,,,,,5b84a7ea4f38790001778d53,676192165fb32c2e1fb7aee6,67d193f1fa2f093bcce90207,2025-03-12_15h11.25.568,Tarea de decisión léxica,2024.2.5,Win32,59.88023952,,,,,,,,,,,,,,,,,,,,,,1159.752,1160.8084,a,1,0.3733,1,1160.8099,1161.298,,,,,,95,FEM,WORD,AGR,151,moda,,la,,0.3733,,,,1161.2983,1161.2985,0.136666701,-0.431111145,0,0,0,,0,78,78,94,1,neda,,,,
,,,,,,,5b84a7ea4f38790001778d53,676192165fb32c2e1fb7aee6,67d193f1fa2f093bcce90207,2025-03-12_15h11.25.568,Tarea de decisión léxica,2024.2.5,Win32,59.88023952,,,,,,,,,,,,,,,,,,,,,,1161.3026,1162.3436,a,0,0.36,0,1162.3483,1162.8344,,,,,,90,MAS,NOWORD,AGR,150,guso,,el,,0.36,,,,1162.8402,1162.8436,0.136666701,-0.431111145,0,0,0,,0,79,79,89,1,humo,,,,
,,,,,,,5b84a7ea4f38790001778d53,676192165fb32c2e1fb7aee6,67d193f1fa2f093bcce90207,2025-03-12_15h11.25.568,Tarea de decisión léxica,2024.2.5,Win32,59.88023952,,,,,,,,,,,,,,,,,,,,,,1162.8456,1164.0647,l,1,0.5309,1,1164.0713,1164.5569,,,,,,296,MAS,NOWORD,DIS,150,goler,,la,,0.5309,,,,1164.5571,1164.5574,0.136666701,-0.431111145,0,0,0,,0,80,80,295,1,dolor,,,,
,,,,,,,5b84a7ea4f38790001778d53,676192165fb32c2e1fb7aee6,67d193f1fa2f093bcce90207,2025-03-12_15h11.25.568,Tarea de decisión léxica,2024.2.5,Win32,59.88023952,,,,,,,,,,,,,,,,,,,,,,1164.5593,1165.7901,l,1,0.5375,1,1165.7906,1166.2703,,,,,,302,FEM,NOWORD,AGR,150,ranga,,la,,0.5375,,,,1166.2706,1166.2708,0.136666701,-0.431111145,0,0,0,,0,81,81,301,1,banda,,,,
,,,,,,,5b84a7ea4f38790001778d53,676192165fb32c2e1fb7aee6,67d193f1fa2f093bcce90207,2025-03-12_15h11.25.568,Tarea de decisión léxica,2024.2.5,Win32,59.88023952,,,,,,,,,,,,,,,,,,,,,,1166.274,1167.3975,a,1,0.4355,1,1167.398,1167.8913,,,,,,363,FEM,WORD,DIS,150,deuda,,el,,0.4355,,,,1167.8914,1167.8917,0.136666701,-0.431111145,0,0,0,,0,82,82,362,1,veida,,,,
,,,,,,,5b84a7ea4f38790001778d53,676192165fb32c2e1fb7aee6,67d193f1fa2f093bcce90207,2025-03-12_15h11.25.568,Tarea de decisión léxica,2024.2.5,Win32,59.88023952,,,,,,,,,,,,,,,,,,,,,,1167.8929,1168.9699,a,1,0.4018,1,1168.9706,1169.4638,,,,,,245,FEM,WORD,DIS,150,madre,,el,,0.4018,,,,1169.4681,1169.4713,0.136666701,-0.431111145,0,0,0,,0,83,83,244,1,pafle,,,,
,,,,,,,5b84a7ea4f38790001778d53,676192165fb32c2e1fb7aee6,67d193f1fa2f093bcce90207,2025-03-12_15h11.25.568,Tarea de decisión léxica,2024.2.5,Win32,59.88023952,,,,,,,,,,,,,,,,,,,,,,1169.4751,1170.5692,a,1,0.398,1,1170.5703,1171.0597,,,,,,381,MAS,WORD,AGR,150,humor,,el,,0.398,,,,1171.0598,1171.0601,0.136666701,-0.431111145,0,0,0,,0,84,84,380,1,nusor,,,,
,,,,,,,5b84a7ea4f38790001778d53,676192165fb32c2e1fb7aee6,67d193f1fa2f093bcce90207,2025-03-12_15h11.25.568,Tarea de decisión léxica,2024.2.5,Win32,59.88023952,,,,,,,,,,,,,,,,,,,,,,1171.0642,1172.2691,l,1,0.5127,1,1172.2695,1172.769,,,,,,284,MAS,NOWORD,DIS,150,tuevo,,la,,0.5127,,,,1172.7692,1172.7696,0.136666701,-0.431111145,0,0,0,,0,85,85,283,1,sueño,,,,
,,,,,,,5b84a7ea4f38790001778d53,676192165fb32c2e1fb7aee6,67d193f1fa2f093bcce90207,2025-03-12_15h11.25.568,Tarea de decisión léxica,2024.2.5,Win32,59.88023952,,,,,,,,,,,,,,,,,,,,,,1172.7755,1173.8807,a,1,0.4322,1,1173.8813,1174.3574,,,,,,387,FEM,WORD,AGR,150,crema,,la,,0.4322,,,,1174.3576,1174.3581,0.136666701,-0.431111145,0,0,0,,0,86,86,386,1,bresa,,,,
,,,,,,,5b84a7ea4f38790001778d53,676192165fb32c2e1fb7aee6,67d193f1fa2f093bcce90207,2025-03-12_15h11.25.568,Tarea de decisión léxica,2024.2.5,Win32,59.88023952,,,,,,,,,,,,,,,,,,,,,,1174.3624,1175.5302,l,1,0.4823,1,1175.5315,1176.0357,,,,,,68,FEM,NOWORD,DIS,150,gesa,,el,,0.4823,,,,1176.0359,1176.0361,0.136666701,-0.431111145,0,0,0,,0,87,87,67,1,nena,,,,
,,,,,,,5b84a7ea4f38790001778d53,676192165fb32c2e1fb7aee6,67d193f1fa2f093bcce90207,2025-03-12_15h11.25.568,Tarea de decisión léxica,2024.2.5,Win32,59.88023952,,,,,,,,,,,,,,,,,,,,,,1176.0398,1177.0391,a,1,0.3086,1,1177.0395,1177.5407,,,,,,215,FEM,WORD,AGR,150,raíz,,la,,0.3086,,,,1177.5472,1177.5509,0.136666701,-0.431111145,0,0,0,,0,88,88,214,1,raua,,,,
,,,,,,,5b84a7ea4f38790001778d53,676192165fb32c2e1fb7aee6,67d193f1fa2f093bcce90207,2025-03-12_15h11.25.568,Tarea de decisión léxica,2024.2.5,Win32,59.88023952,,,,,,,,,,,,,,,,,,,,,,1177.5528,1178.7138,l,1,0.3999,1,1178.7142,1179.1888,,,,,,424,MAS,NOWORD,DIS,150,quigo,,la,,0.3999,,,,1179.189,1179.1895,0.136666701,-0.431111145,0,0,0,,0,89,89,423,1,queso,,,,
,,,,,,,5b84a7ea4f38790001778d53,676192165fb32c2e1fb7aee6,67d193f1fa2f093bcce90207,2025-03-12_15h11.25.568,Tarea de decisión léxica,2024.2.5,Win32,59.88023952,,,,,,,,,,,,,,,,,,,,,,1179.1923,1180.3558,a,1,0.4662,1,1180.3561,1180.8369,,,,,,229,MAS,WORD,AGR,150,amor,,el,,0.4662,,,,1180.837,1180.8373,0.136666701,-0.431111145,0,0,0,,0,90,90,228,1,ador,,,,
,,,,,,,5b84a7ea4f38790001778d53,676192165fb32c2e1fb7aee6,67d193f1fa2f093bcce90207,2025-03-12_15h11.25.568,Tarea de decisión léxica,2024.2.5,Win32,59.88023952,,,,,,,,,,,,,,,,,,,,,,1180.8399,1181.951,a,1,0.3992,1,1181.9513,1182.4273,,,,,,267,MAS,WORD,AGR,150,libro,,el,,0.3992,,,,1182.4274,1182.4279,0.136666701,-0.431111145,0,0,0,,0,91,91,266,1,figro,,,,
,,,,,,,5b84a7ea4f38790001778d53,676192165fb32c2e1fb7aee6,67d193f1fa2f093bcce90207,2025-03-12_15h11.25.568,Tarea de decisión léxica,2024.2.5,Win32,59.88023952,,,,,,,,,,,,,,,,,,,,,,1182.4304,1183.72,a,1,0.5474,1,1183.7203,1184.2266,,,,,,209,MAS,WORD,AGR,150,velo,,el,,0.5474,,,,1184.2269,1184.2277,0.136666701,-0.431111145,0,0,0,,0,92,92,208,1,dero,,,,
,,,,,,,5b84a7ea4f38790001778d53,676192165fb32c2e1fb7aee6,67d193f1fa2f093bcce90207,2025-03-12_15h11.25.568,Tarea de decisión léxica,2024.2.5,Win32,59.88023952,,,,,,,,,,,,,,,,,,,,,,1184.2321,1185.3825,l,1,0.4589,1,1185.3837,1185.8897,,,,,,250,FEM,NOWORD,AGR,150,plane,,la,,0.4589,,,,1185.8959,1185.8991,0.136666701,-0.431111145,0,0,0,,0,93,93,249,1,clase,,,,
,,,,,,,5b84a7ea4f38790001778d53,676192165fb32c2e1fb7aee6,67d193f1fa2f093bcce90207,2025-03-12_15h11.25.568,Tarea de decisión léxica,2024.2.5,Win32,59.88023952,,,,,,,,,,,,,,,,,,,,,,1185.9027,1186.9701,a,1,0.3842,1,1186.9707,1187.4526,,,,,,25,FEM,WORD,AGR,150,cama,,la,,0.3842,,,,1187.453,1187.4536,0.136666701,-0.431111145,0,0,0,,0,94,94,24,1,paza,,,,
,,,,,,,5b84a7ea4f38790001778d53,676192165fb32c2e1fb7aee6,67d193f1fa2f093bcce90207,2025-03-12_15h11.25.568,Tarea de decisión léxica,2024.2.5,Win32,59.88023952,,,,,,,,,,,,,,,,,,,,,,1187.4601,1188.4889,a,1,0.3475,1,1188.4895,1188.9964,,,,,,423,MAS,WORD,DIS,150,queso,,la,,0.3475,,,,1188.9966,1188.9969,0.136666701,-0.431111145,0,0,0,,0,95,95,422,1,quigo,,,,
,,,,,,,5b84a7ea4f38790001778d53,676192165fb32c2e1fb7aee6,67d193f1fa2f093bcce90207,2025-03-12_15h11.25.568,Tarea de decisión léxica,2024.2.5,Win32,59.88023952,,,,,,,,,,,,,,,,,,,,,,1188.9997,1190.3488,l,1,0.6541,1,1190.3492,1190.8287,,,,,,262,MAS,NOWORD,AGR,150,titio,,el,,0.6541,,,,1190.8291,1190.8297,0.136666701,-0.431111145,0,0,0,,0,96,96,261,1,sitio,,,,
,,,,,,,5b84a7ea4f38790001778d53,676192165fb32c2e1fb7aee6,67d193f1fa2f093bcce90207,2025-03-12_15h11.25.568,Tarea de decisión léxica,2024.2.5,Win32,59.88023952,,,,,,,,,,,,,,,,,,,,,,1190.8348,1191.8225,a,1,0.3123,1,1191.8232,1192.3401,,,,,,289,FEM,WORD,DIS,150,bomba,,el,,0.3123,,,,1192.3402,1192.3403,0.136666701,-0.431111145,0,0,0,,0,97,97,288,1,bumpa,,,,
,,,,,,,5b84a7ea4f38790001778d53,676192165fb32c2e1fb7aee6,67d193f1fa2f093bcce90207,2025-03-12_15h11.25.568,Tarea de decisión léxica,2024.2.5,Win32,59.88023952,,,,,,,,,,,,,,,,,,,,,,1192.3428,1193.5139,l,1,0.4941,1,1193.5146,1194.0248,,,,,,260,MAS,NOWORD,DIS,150,jaumo,,la,,0.4941,,,,1194.0315,1194.0401,0.136666701,-0.431111145,0,0,0,,0,98,98,259,1,juego,,,,
,,,,,,,5b84a7ea4f38790001778d53,676192165fb32c2e1fb7aee6,67d193f1fa2f093bcce90207,2025-03-12_15h11.25.568,Tarea de decisión léxica,2024.2.5,Win32,59.88023952,,,,,,,,,,,,,,,,,,,,,,1194.0455,1195.2867,l,1,0.5582,1,1195.2875,1195.7927,,,,,,46,FEM,NOWORD,AGR,150,pema,,la,,0.5582,,,,1195.793,1195.7938,0.136666701,-0.431111145,0,0,0,,0,99,99,45,1,mesa,,,,
,,,,,,,5b84a7ea4f38790001778d53,676192165fb32c2e1fb7aee6,67d193f1fa2f093bcce90207,2025-03-12_15h11.25.568,Tarea de decisión léxica,2024.2.5,Win32,59.88023952,,,,,,,,,,,,,,,,,,,,,,1195.8,1196.9552,l,1,0.4772,1,1196.9557,1197.464,,,,,,352,MAS,NOWORD,DIS,150,duepo,,la,,0.4772,,,,1197.4644,1197.465,0.136666701,-0.431111145,0,0,0,,0,100,100,351,1,vuelo,,,,
,,,,,,,5b84a7ea4f38790001778d53,676192165fb32c2e1fb7aee6,67d193f1fa2f093bcce90207,2025-03-12_15h11.25.568,Tarea de decisión léxica,2024.2.5,Win32,59.88023952,,,,,,,,,,,,,,,,,,,,,,1197.4703,1198.659,l,1,0.5123,1,1198.6597,1199.147,,,,,,368,MAS,NOWORD,DIS,150,rerob,,la,,0.5123,,,,1199.1473,1199.1478,0.136666701,-0.431111145,0,0,0,,0,101,101,367,1,reloj,,,,
,,,,,,,5b84a7ea4f38790001778d53,676192165fb32c2e1fb7aee6,67d193f1fa2f093bcce90207,2025-03-12_15h11.25.568,Tarea de decisión léxica,2024.2.5,Win32,59.88023952,,,,,,,,,,,,,,,,,,,,,,1199.152,1200.3463,l,1,0.5076,1,1200.3467,1200.8591,,,,,,148,FEM,NOWORD,DIS,150,pama,,el,,0.5076,,,,1200.8593,1200.8596,0.136666701,-0.431111145,0,0,0,,0,102,102,147,1,hoja,,,,
,,,,,,,5b84a7ea4f38790001778d53,676192165fb32c2e1fb7aee6,67d193f1fa2f093bcce90207,2025-03-12_15h11.25.568,Tarea de decisión léxica,2024.2.5,Win32,59.88023952,,,,,,,,,,,,,,,,,,,,,,1200.8631,1201.9254,l,1,0.3625,1,1201.9261,1202.441,,,,,,426,FEM,NOWORD,AGR,150,virca,,la,,0.3625,,,,1202.4442,1202.4457,0.136666701,-0.431111145,0,0,0,,0,103,103,425,1,viuda,,,,
,,,,,,,5b84a7ea4f38790001778d53,676192165fb32c2e1fb7aee6,67d193f1fa2f093bcce90207,2025-03-12_15h11.25.568,Tarea de decisión léxica,2024.2.5,Win32,59.88023952,,,,,,,,,,,,,,,,,,,,,,1202.4504,1203.6981,a,1,0.5033,1,1203.6986,1204.1828,,,,,,329,MAS,WORD,AGR,150,hueso,,el,,0.5033,,,,1204.1828,1204.1833,0.136666701,-0.431111145,0,0,0,,0,104,104,328,1,nueno,,,,
,,,,,,,5b84a7ea4f38790001778d53,676192165fb32c2e1fb7aee6,67d193f1fa2f093bcce90207,2025-03-12_15h11.25.568,Tarea de decisión léxica,2024.2.5,Win32,59.88023952,,,,,,,,,,,,,,,,,,,,,,1204.1861,1205.4804,l,0,0.5991,0,1205.4827,1205.9411,,,,,,259,MAS,WORD,AGR,150,juego,,el,,0.5991,,,,1205.9411,1205.9414,0.136666701,-0.431111145,0,0,0,,0,105,105,258,1,jaumo,,,,
,,,,,,,5b84a7ea4f38790001778d53,676192165fb32c2e1fb7aee6,67d193f1fa2f093bcce90207,2025-03-12_15h11.25.568,Tarea de decisión léxica,2024.2.5,Win32,59.88023952,,,,,,,,,,,,,,,,,,,,,,1205.9438,1207.1369,l,1,0.5283,1,1207.1419,1207.6366,,,,,,86,MAS,NOWORD,AGR,150,babo,,el,,0.5283,,,,1207.6369,1207.6373,0.136666701,-0.431111145,0,0,0,,0,106,106,85,1,lago,,,,
,,,,,,,5b84a7ea4f38790001778d53,676192165fb32c2e1fb7aee6,67d193f1fa2f093bcce90207,2025-03-12_15h11.25.568,Tarea de decisión léxica,2024.2.5,Win32,59.88023952,,,,,,,,,,,,,,,,,,,,,,1207.6427,1208.7549,l,1,0.4485,1,1208.7551,1209.225,,,,,,320,MAS,NOWORD,DIS,150,tuero,,la,,0.4485,,,,1209.2319,1209.2361,0.136666701,-0.431111145,0,0,0,,0,107,107,319,1,suelo,,,,
,,,,,,,5b84a7ea4f38790001778d53,676192165fb32c2e1fb7aee6,67d193f1fa2f093bcce90207,2025-03-12_15h11.25.568,Tarea de decisión léxica,2024.2.5,Win32,59.88023952,,,,,,,,,,,,,,,,,,,,,,1209.2381,1210.3749,a,0,0.4426,0,1210.3788,1210.8523,,,,,,324,FEM,NOWORD,DIS,150,certa,,el,,0.4426,,,,1210.8528,1210.8533,0.136666701,-0.431111145,0,0,0,,0,108,108,323,1,cinta,,,,
,,,,,,,5b84a7ea4f38790001778d53,676192165fb32c2e1fb7aee6,67d193f1fa2f093bcce90207,2025-03-12_15h11.25.568,Tarea de decisión léxica,2024.2.5,Win32,59.88023952,,,,,,,,,,,,,,,,,,,,,,1210.8593,1211.9994,l,1,0.451,1,1212.0051,1212.4984,,,,,,70,FEM,NOWORD,AGR,150,ñola,,la,,0.451,,,,1212.4986,1212.4991,0.136666701,-0.431111145,0,0,0,,0,109,109,69,1,zona,,,,
,,,,,,,5b84a7ea4f38790001778d53,676192165fb32c2e1fb7aee6,67d193f1fa2f093bcce90207,2025-03-12_15h11.25.568,Tarea de decisión léxica,2024.2.5,Win32,59.88023952,,,,,,,,,,,,,,,,,,,,,,1212.5048,1213.5864,a,1,0.3867,1,1213.5872,1214.0829,,,,,,1,FEM,WORD,DIS,150,casa,,el,,0.3867,,,,1214.0831,1214.0838,0.136666701,-0.431111145,0,0,0,,0,110,110,0,1,mada,,,,
,,,,,,,5b84a7ea4f38790001778d53,676192165fb32c2e1fb7aee6,67d193f1fa2f093bcce90207,2025-03-12_15h11.25.568,Tarea de decisión léxica,2024.2.5,Win32,59.88023952,,,,,,,,,,,,,,,,,,,,,,1214.0897,1215.2292,l,1,0.4675,1,1215.2297,1215.7361,,,,,,212,FEM,NOWORD,DIS,150,joad,,el,,0.4675,,,,1215.7364,1215.7372,0.136666701,-0.431111145,0,0,0,,0,111,111,211,1,joya,,,,
,,,,,,,5b84a7ea4f38790001778d53,676192165fb32c2e1fb7aee6,67d193f1fa2f093bcce90207,2025-03-12_15h11.25.568,Tarea de decisión léxica,2024.2.5,Win32,59.88023952,,,,,,,,,,,,,,,,,,,,,,1215.7431,1217.0267,l,1,0.5997,1,1217.0271,1217.5327,,,,,,18,FEM,NOWORD,AGR,150,paba,,la,,0.5997,,,,1217.5396,1217.5423,0.136666701,-0.431111145,0,0,0,,0,112,112,17,1,mamá,,,,
,,,,,,,5b84a7ea4f38790001778d53,676192165fb32c2e1fb7aee6,67d193f1fa2f093bcce90207,2025-03-12_15h11.25.568,Tarea de decisión léxica,2024.2.5,Win32,59.88023952,,,,,,,,,,,,,,,,,,,,,,1217.5477,1218.6117,a,1,0.3984,1,1218.6124,1219.1044,,,,,,211,FEM,WORD,AGR,150,joya,,la,,0.3984,,,,1219.1047,1219.1053,0.136666701,-0.431111145,0,0,0,,0,113,113,210,1,joad,,,,
,,,,,,,5b84a7ea4f38790001778d53,676192165fb32c2e1fb7aee6,67d193f1fa2f093bcce90207,2025-03-12_15h11.25.568,Tarea de decisión léxica,2024.2.5,Win32,59.88023952,,,,,,,,,,,,,,,,,,,,,,1219.1095,1220.298,l,1,0.512,1,1220.2984,1220.8005,,,,,,156,FEM,NOWORD,DIS,150,luma,,el,,0.512,,,,1220.8007,1220.8014,0.136666701,-0.431111145,0,0,0,,0,114,114,155,1,fuga,,,,
,,,,,,,5b84a7ea4f38790001778d53,676192165fb32c2e1fb7aee6,67d193f1fa2f093bcce90207,2025-03-12_15h11.25.568,Tarea de decisión léxica,2024.2.5,Win32,59.88023952,,,,,,,,,,,,,,,,,,,,,,1220.8073,1221.8757,a,1,0.3871,1,1221.8759,1222.3655,,,,,,323,FEM,WORD,AGR,150,cinta,,la,,0.3871,,,,1222.3656,1222.366,0.136666701,-0.431111145,0,0,0,,0,115,115,322,1,certa,,,,
,,,,,,,5b84a7ea4f38790001778d53,676192165fb32c2e1fb7aee6,67d193f1fa2f093bcce90207,2025-03-12_15h11.25.568,Tarea de decisión léxica,2024.2.5,Win32,59.88023952,,,,,,,,,,,,,,,,,,,,,,1222.3688,1223.8034,a,1,0.7028,1,1223.8037,1224.2846,,,,,,199,MAS,WORD,AGR,150,lazo,,el,,0.7028,,,,1224.2847,1224.285,0.136666701,-0.431111145,0,0,0,,0,116,116,198,1,fano,,,,
,,,,,,,5b84a7ea4f38790001778d53,676192165fb32c2e1fb7aee6,67d193f1fa2f093bcce90207,2025-03-12_15h11.25.568,Tarea de decisión léxica,2024.2.5,Win32,59.88023952,,,,,,,,,,,,,,,,,,,,,,1224.2877,1225.6126,l,0,0.5977,0,1225.6149,1226.1084,,,,,,197,MAS,WORD,DIS,150,bate,,la,,0.5977,,,,1226.1117,1226.1139,0.136666701,-0.431111145,0,0,0,,0,117,117,196,1,dade,,,,
,,,,,,,5b84a7ea4f38790001778d53,676192165fb32c2e1fb7aee6,67d193f1fa2f093bcce90207,2025-03-12_15h11.25.568,Tarea de decisión léxica,2024.2.5,Win32,59.88023952,,,,,,,,,,,,,,,,,,,,,,1226.1159,1227.2741,a,1,0.4652,1,1227.2786,1227.773,,,,,,461,FEM,WORD,DIS,150,tabla,,el,,0.4652,,,,1227.7733,1227.7737,0.136666701,-0.431111145,0,0,0,,0,118,118,460,1,pagra,,,,
,,,,,,,5b84a7ea4f38790001778d53,676192165fb32c2e1fb7aee6,67d193f1fa2f093bcce90207,2025-03-12_15h11.25.568,Tarea de decisión léxica,2024.2.5,Win32,59.88023952,,,,,,,,,,,,,,,,,,,,,,1227.7771,1229.0331,l,1,0.5318,1,1229.0332,1229.5741,,,,,,374,FEM,NOWORD,AGR,150,pogza,,la,,0.5318,,,,1229.5742,1229.5744,0.136666701,-0.431111145,0,0,0,,0,119,119,373,1,pizza,,,,
,,,,,,,5b84a7ea4f38790001778d53,676192165fb32c2e1fb7aee6,67d193f1fa2f093bcce90207,2025-03-12_15h11.25.568,Tarea de decisión léxica,2024.2.5,Win32,59.88023952,,,,,,,,,,,,,,,,,,,,,,1229.577,1230.7778,a,1,0.4758,1,1230.778,1231.2811,,,,,,49,FEM,WORD,AGR,150,edad,,la,,0.4758,,,,1231.2812,1231.2816,0.136666701,-0.431111145,0,0,0,,0,120,120,48,1,ecat,,,,
,,,,,,,5b84a7ea4f38790001778d53,676192165fb32c2e1fb7aee6,67d193f1fa2f093bcce90207,2025-03-12_15h11.25.568,Tarea de decisión léxica,2024.2.5,Win32,59.88023952,,,,,,,,,,,,,,,,,,,,,,1231.284,1232.4498,a,1,0.4774,1,1232.4502,1232.9487,,,,,,189,MAS,WORD,AGR,150,puño,,el,,0.4774,,,,1232.9489,1232.9493,0.136666701,-0.431111145,0,0,0,,0,121,121,188,1,muvo,,,,
,,,,,,,5b84a7ea4f38790001778d53,676192165fb32c2e1fb7aee6,67d193f1fa2f093bcce90207,2025-03-12_15h11.25.568,Tarea de decisión léxica,2024.2.5,Win32,59.88023952,,,,,,,,,,,,,,,,,,,,,,1232.954,1233.9968,l,1,0.3535,1,1233.9973,1234.488,,,,,,182,FEM,NOWORD,AGR,150,teda,,la,,0.3535,,,,1234.4942,1234.4969,0.136666701,-0.431111145,0,0,0,,0,122,122,181,1,seda,,,,
,,,,,,,5b84a7ea4f38790001778d53,676192165fb32c2e1fb7aee6,67d193f1fa2f093bcce90207,2025-03-12_15h11.25.568,Tarea de decisión léxica,2024.2.5,Win32,59.88023952,,,,,,,,,,,,,,,,,,,,,,1234.4998,1235.719,l,1,0.5528,1,1235.7195,1236.2267,,,,,,26,FEM,NOWORD,AGR,150,paza,,la,,0.5528,,,,1236.2269,1236.2271,0.136666701,-0.431111145,0,0,0,,0,123,123,25,1,cama,,,,
,,,,,,,5b84a7ea4f38790001778d53,676192165fb32c2e1fb7aee6,67d193f1fa2f093bcce90207,2025-03-12_15h11.25.568,Tarea de decisión léxica,2024.2.5,Win32,59.88023952,,,,,,,,,,,,,,,,,,,,,,1236.2301,1237.2628,l,1,0.3383,1,1237.2638,1237.7431,,,,,,220,FEM,NOWORD,DIS,150,miva,,el,,0.3383,,,,1237.7435,1237.7444,0.136666701,-0.431111145,0,0,0,,0,124,124,219,1,pipa,,,,
,,,,,,,5b84a7ea4f38790001778d53,676192165fb32c2e1fb7aee6,67d193f1fa2f093bcce90207,2025-03-12_15h11.25.568,Tarea de decisión léxica,2024.2.5,Win32,59.88023952,,,,,,,,,,,,,,,,,,,,,,1237.7498,1238.8906,a,1,0.4356,1,1238.891,1239.3802,,,,,,35,MAS,WORD,AGR,150,pelo,,el,,0.4356,,,,1239.3804,1239.3808,0.136666701,-0.431111145,0,0,0,,0,125,125,34,1,meno,,,,
,,,,,,,5b84a7ea4f38790001778d53,676192165fb32c2e1fb7aee6,67d193f1fa2f093bcce90207,2025-03-12_15h11.25.568,Tarea de decisión léxica,2024.2.5,Win32,59.88023952,,,,,,,,,,,,,,,,,,,,,,1239.3839,1240.4829,l,1,0.4032,1,1240.4836,1240.9789,,,,,,280,FEM,NOWORD,DIS,150,grina,,el,,0.4032,,,,1240.9792,1240.9797,0.136666701,-0.431111145,0,0,0,,0,126,126,279,1,prisa,,,,
,,,,,,,5b84a7ea4f38790001778d53,676192165fb32c2e1fb7aee6,67d193f1fa2f093bcce90207,2025-03-12_15h11.25.568,Tarea de decisión léxica,2024.2.5,Win32,59.88023952,,,,,,,,,,,,,,,,,,,,,,1240.9849,1241.9701,l,1,0.292,1,1241.9711,1242.4653,,,,,,152,MAS,NOWORD,DIS,150,sogo,,la,,0.292,,,,1242.4698,1242.4729,0.136666701,-0.431111145,0,0,0,,0,127,127,151,1,tomo,,,,
,,,,,,,5b84a7ea4f38790001778d53,676192165fb32c2e1fb7aee6,67d193f1fa2f093bcce90207,2025-03-12_15h11.25.568,Tarea de decisión léxica,2024.2.5,Win32,59.88023952,,,,,,,,,,,,,,,,,,,,,,1242.4775,1243.5215,l,1,0.3687,1,1243.522,1244.0105,,,,,,54,FEM,NOWORD,AGR,150,rora,,la,,0.3687,,,,1244.0108,1244.0112,0.136666701,-0.431111145,0,0,0,,0,128,128,53,1,boda,,,,
,,,,,,,5b84a7ea4f38790001778d53,676192165fb32c2e1fb7aee6,67d193f1fa2f093bcce90207,2025-03-12_15h11.25.568,Tarea de decisión léxica,2024.2.5,Win32,59.88023952,,,,,,,,,,,,,,,,,,,,,,1244.0144,1245.1577,a,1,0.4576,1,1245.1581,1245.65,,,,,,133,FEM,WORD,DIS,150,vaca,,el,,0.4576,,,,1245.6501,1245.6506,0.136666701,-0.431111145,0,0,0,,0,129,129,132,1,vesa,,,,
,,,,,,,5b84a7ea4f38790001778d53,676192165fb32c2e1fb7aee6,67d193f1fa2f093bcce90207,2025-03-12_15h11.25.568,Tarea de decisión léxica,2024.2.5,Win32,59.88023952,,,,,,,,,,,,,,,,,,,,,,1245.6552,1246.981,l,1,0.6374,1,1246.9815,1247.5072,,,,,,164,FEM,NOWORD,DIS,150,laga,,el,,0.6374,,,,1247.5073,1247.5076,0.136666701,-0.431111145,0,0,0,,0,130,130,163,1,fama,,,,
,,,,,,,5b84a7ea4f38790001778d53,676192165fb32c2e1fb7aee6,67d193f1fa2f093bcce90207,2025-03-12_15h11.25.568,Tarea de decisión léxica,2024.2.5,Win32,59.88023952,,,,,,,,,,,,,,,,,,,,,,1247.5111,1248.6484,l,1,0.3996,1,1248.6487,1249.1256,,,,,,8,MAS,NOWORD,DIS,150,nivo,,la,,0.3996,,,,1249.1281,1249.1292,0.136666701,-0.431111145,0,0,0,,0,131,131,7,1,hijo,,,,
,,,,,,,5b84a7ea4f38790001778d53,676192165fb32c2e1fb7aee6,67d193f1fa2f093bcce90207,2025-03-12_15h11.25.568,Tarea de decisión léxica,2024.2.5,Win32,59.88023952,,,,,,,,,,,,,,,,,,,,,,1249.1303,1250.4058,l,1,0.5257,1,1250.406,1250.9094,,,,,,84,FEM,NOWORD,DIS,150,taga,,el,,0.5257,,,,1250.9095,1250.91,0.136666701,-0.431111145,0,0,0,,0,132,132,83,1,bala,,,,
,,,,,,,5b84a7ea4f38790001778d53,676192165fb32c2e1fb7aee6,67d193f1fa2f093bcce90207,2025-03-12_15h11.25.568,Tarea de decisión léxica,2024.2.5,Win32,59.88023952,,,,,,,,,,,,,,,,,,,,,,1250.9139,1252.1902,a,1,0.5765,1,1252.1906,1252.6977,,,,,,17,FEM,WORD,AGR,150,mamá,,la,,0.5765,,,,1252.6981,1252.6988,0.136666701,-0.431111145,0,0,0,,0,133,133,16,1,paba,,,,
,,,,,,,5b84a7ea4f38790001778d53,676192165fb32c2e1fb7aee6,67d193f1fa2f093bcce90207,2025-03-12_15h11.25.568,Tarea de decisión léxica,2024.2.5,Win32,59.88023952,,,,,,,,,,,,,,,,,,,,,,1252.7038,1253.8835,a,1,0.4908,1,1253.884,1254.3778,,,,,,287,FEM,WORD,AGR,150,lista,,la,,0.4908,,,,1254.378,1254.3785,0.136666701,-0.431111145,0,0,0,,0,134,134,286,1,fosta,,,,
,,,,,,,5b84a7ea4f38790001778d53,676192165fb32c2e1fb7aee6,67d193f1fa2f093bcce90207,2025-03-12_15h11.25.568,Tarea de decisión léxica,2024.2.5,Win32,59.88023952,,,,,,,,,,,,,,,,,,,,,,1254.3837,1255.5249,l,1,0.449,1,1255.5253,1256.0069,,,,,,264,FEM,NOWORD,DIS,150,dosta,,el,,0.449,,,,1256.0074,1256.008,0.136666701,-0.431111145,0,0,0,,0,135,135,263,1,vista,,,,
,,,,,,,5b84a7ea4f38790001778d53,676192165fb32c2e1fb7aee6,67d193f1fa2f093bcce90207,2025-03-12_15h11.25.568,Tarea de decisión léxica,2024.2.5,Win32,59.88023952,,,,,,,,,,,,,,,,,,,,,,1256.0133,1257.1176,l,1,0.4146,1,1257.1183,1257.6119,,,,,,126,MAS,NOWORD,AGR,150,vudo,,el,,0.4146,,,,1257.6196,1257.6228,0.136666701,-0.431111145,0,0,0,,0,136,136,125,1,lujo,,,,
,,,,,,,5b84a7ea4f38790001778d53,676192165fb32c2e1fb7aee6,67d193f1fa2f093bcce90207,2025-03-12_15h11.25.568,Tarea de decisión léxica,2024.2.5,Win32,59.88023952,,,,,,,,,,,,,,,,,,,,,,1257.6263,1258.7292,l,0,0.4097,0,1258.7339,1259.2155,,,,,,175,FEM,WORD,DIS,150,goma,,el,,0.4097,,,,1259.2158,1259.2168,0.136666701,-0.431111145,0,0,0,,0,137,137,174,1,hosa,,,,
,,,,,,,5b84a7ea4f38790001778d53,676192165fb32c2e1fb7aee6,67d193f1fa2f093bcce90207,2025-03-12_15h11.25.568,Tarea de decisión léxica,2024.2.5,Win32,59.88023952,,,,,,,,,,,,,,,,,,,,,,1259.2232,1260.1899,a,1,0.2596,1,1260.1946,1260.6791,,,,,,153,MAS,WORD,AGR,150,pato,,el,,0.2596,,,,1260.6794,1260.6799,0.136666701,-0.431111145,0,0,0,,0,138,138,152,1,tado,,,,
,,,,,,,5b84a7ea4f38790001778d53,676192165fb32c2e1fb7aee6,67d193f1fa2f093bcce90207,2025-03-12_15h11.25.568,Tarea de decisión léxica,2024.2.5,Win32,59.88023952,,,,,,,,,,,,,,,,,,,,,,1260.6861,1261.7263,a,1,0.3664,1,1261.7267,1262.2349,,,,,,425,FEM,WORD,AGR,150,viuda,,la,,0.3664,,,,1262.235,1262.2356,0.136666701,-0.431111145,0,0,0,,0,139,139,424,1,virca,,,,
,,,,,,,5b84a7ea4f38790001778d53,676192165fb32c2e1fb7aee6,67d193f1fa2f093bcce90207,2025-03-12_15h11.25.568,Tarea de decisión léxica,2024.2.5,Win32,59.88023952,,,,,,,,,,,,,,,,,,,,,,1262.2408,1263.4109,l,1,0.4661,1,1263.4113,1263.9136,,,,,,142,FEM,NOWORD,AGR,150,sina,,la,,0.4661,,,,1263.9139,1263.9144,0.136666701,-0.431111145,0,0,0,,0,140,140,141,1,cruz,,,,
,,,,,,,5b84a7ea4f38790001778d53,676192165fb32c2e1fb7aee6,67d193f1fa2f093bcce90207,2025-03-12_15h11.25.568,Tarea de decisión léxica,2024.2.5,Win32,59.88023952,,,,,,,,,,,,,,,,,,,,,,1263.9203,1265.1646,l,1,0.5323,1,1265.1648,1265.6777,,,,,,252,MAS,NOWORD,DIS,150,refor,,la,,0.5323,,,,1265.6811,1265.6827,0.136666701,-0.431111145,0,0,0,,0,141,141,251,1,señor,,,,
,,,,,,,5b84a7ea4f38790001778d53,676192165fb32c2e1fb7aee6,67d193f1fa2f093bcce90207,2025-03-12_15h11.25.568,Tarea de decisión léxica,2024.2.5,Win32,59.88023952,,,,,,,,,,,,,,,,,,,,,,1265.6845,1267.0011,l,1,0.5985,1,1267.0012,1267.5249,,,,,,438,FEM,NOWORD,AGR,150,glava,,la,,0.5985,,,,1267.5251,1267.5255,0.136666701,-0.431111145,0,0,0,,0,142,142,437,1,plaza,,,,
,,,,,,,5b84a7ea4f38790001778d53,676192165fb32c2e1fb7aee6,67d193f1fa2f093bcce90207,2025-03-12_15h11.25.568,Tarea de decisión léxica,2024.2.5,Win32,59.88023952,,,,,,,,,,,,,,,,,,,,,,1267.5281,1268.7124,a,1,0.4901,1,1268.713,1269.2026,,,,,,33,FEM,WORD,AGR,150,boca,,la,,0.4901,,,,1269.203,1269.2037,0.136666701,-0.431111145,0,0,0,,0,143,143,32,1,loda,,,,
,,,,,,,5b84a7ea4f38790001778d53,676192165fb32c2e1fb7aee6,67d193f1fa2f093bcce90207,2025-03-12_15h11.25.568,Tarea de decisión léxica,2024.2.5,Win32,59.88023952,,,,,,,,,,,,,,,,,,,,,,1269.2089,1270.3044,l,1,0.42,1,1270.305,1270.7871,,,,,,104,FEM,NOWORD,DIS,150,rova,,el,,0.42,,,,1270.7874,1270.7879,0.136666701,-0.431111145,0,0,0,,0,144,144,103,1,ruta,,,,
,,,,,,,5b84a7ea4f38790001778d53,676192165fb32c2e1fb7aee6,67d193f1fa2f093bcce90207,2025-03-12_15h11.25.568,Tarea de decisión léxica,2024.2.5,Win32,59.88023952,,,,,,,,,,,,,,,,,,,,,,1270.7926,1271.9807,l,1,0.5127,1,1271.9812,1272.4619,,,,,,416,FEM,NOWORD,DIS,150,juira,,el,,0.5127,,,,1272.4622,1272.4628,0.136666701,-0.431111145,0,0,0,,0,145,145,415,1,jaula,,,,
,,,,,,,5b84a7ea4f38790001778d53,676192165fb32c2e1fb7aee6,67d193f1fa2f093bcce90207,2025-03-12_15h11.25.568,Tarea de decisión léxica,2024.2.5,Win32,59.88023952,,,,,,,,,,,,,,,,,,,,,,1272.4684,1273.6692,a,1,0.5382,1,1273.6696,1274.1577,,,,,,187,MAS,WORD,DIS,150,mito,,la,,0.5382,,,,1274.1623,1274.1656,0.136666701,-0.431111145,0,0,0,,0,146,146,186,1,suto,,,,
,,,,,,,5b84a7ea4f38790001778d53,676192165fb32c2e1fb7aee6,67d193f1fa2f093bcce90207,2025-03-12_15h11.25.568,Tarea de decisión léxica,2024.2.5,Win32,59.88023952,,,,,,,,,,,,,,,,,,,,,,1274.1702,1275.3744,a,1,0.522,1,1275.3748,1275.8649,,,,,,415,FEM,WORD,AGR,150,jaula,,la,,0.522,,,,1275.8656,1275.8672,0.136666701,-0.431111145,0,0,0,,0,147,147,414,1,juira,,,,
,,,,,,,5b84a7ea4f38790001778d53,676192165fb32c2e1fb7aee6,67d193f1fa2f093bcce90207,2025-03-12_15h11.25.568,Tarea de decisión léxica,2024.2.5,Win32,59.88023952,,,,,,,,,,,,,,,,,,,,,,1275.8751,1276.9702,a,1,0.4184,1,1276.9708,1277.4661,,,,,,371,FEM,WORD,DIS,150,pasta,,el,,0.4184,,,,1277.4663,1277.4668,0.136666701,-0.431111145,0,0,0,,0,148,148,370,1,mosta,,,,
,,,,,,,5b84a7ea4f38790001778d53,676192165fb32c2e1fb7aee6,67d193f1fa2f093bcce90207,2025-03-12_15h11.25.568,Tarea de decisión léxica,2024.2.5,Win32,59.88023952,,,,,,,,,,,,,,,,,,,,,,1277.4706,1278.5831,a,1,0.4294,1,1278.5837,1279.0479,,,,,,63,FEM,WORD,DIS,150,luna,,el,,0.4294,,,,1279.048,1279.0485,0.136666701,-0.431111145,0,0,0,,0,149,149,62,1,funa,,,,
,,,,,,,5b84a7ea4f38790001778d53,676192165fb32c2e1fb7aee6,67d193f1fa2f093bcce90207,2025-03-12_15h11.25.568,Tarea de decisión léxica,2024.2.5,Win32,59.88023952,,,,,,,,,,,,,,,,,,,,,,1279.0541,1280.2417,l,1,0.5112,1,1280.2422,1280.7605,,,,,,304,MAS,NOWORD,DIS,150,lanco,,la,,0.5112,,,,1280.7607,1280.761,0.136666701,-0.431111145,0,0,0,,0,150,150,303,1,barco,,,,
,,,,,,,5b84a7ea4f38790001778d53,676192165fb32c2e1fb7aee6,67d193f1fa2f093bcce90207,2025-03-12_15h11.25.568,Tarea de decisión léxica,2024.2.5,Win32,59.88023952,,,,,,,,,,,,,,,,,,,,,,1280.7648,1281.8828,a,1,0.429,1,1281.8832,1282.381,,,,,,333,FEM,WORD,AGR,150,tarea,,la,,0.429,,,,1282.388,1282.3921,0.136666701,-0.431111145,0,0,0,,0,151,151,332,1,dalea,,,,
,,,,,,,5b84a7ea4f38790001778d53,676192165fb32c2e1fb7aee6,67d193f1fa2f093bcce90207,2025-03-12_15h11.25.568,Tarea de decisión léxica,2024.2.5,Win32,59.88023952,,,,,,,,,,,,,,,,,,,,,,1282.3947,1283.6077,a,1,0.5266,1,1283.6092,1284.1188,,,,,,127,MAS,WORD,DIS,150,pico,,la,,0.5266,,,,1284.1191,1284.1196,0.136666701,-0.431111145,0,0,0,,0,152,152,126,1,itio,,,,
,,,,,,,5b84a7ea4f38790001778d53,676192165fb32c2e1fb7aee6,67d193f1fa2f093bcce90207,2025-03-12_15h11.25.568,Tarea de decisión léxica,2024.2.5,Win32,59.88023952,,,,,,,,,,,,,,,,,,,,,,1284.1238,1285.7189,l,1,0.8971,1,1285.7192,1286.1879,,,,,,450,FEM,NOWORD,AGR,150,crusa,,la,,0.8971,,,,1286.188,1286.1885,0.136666701,-0.431111145,0,0,0,,0,153,153,449,1,pluma,,,,
,,,,,,,5b84a7ea4f38790001778d53,676192165fb32c2e1fb7aee6,67d193f1fa2f093bcce90207,2025-03-12_15h11.25.568,Tarea de decisión léxica,2024.2.5,Win32,59.88023952,,,,,,,,,,,,,,,,,,,,,,1286.1911,1287.6035,l,1,0.6652,1,1287.6037,1288.0729,,,,,,112,MAS,NOWORD,DIS,150,siro,,la,,0.6652,,,,1288.073,1288.0734,0.136666701,-0.431111145,0,0,0,,0,154,154,111,1,muro,,,,
,,,,,,,5b84a7ea4f38790001778d53,676192165fb32c2e1fb7aee6,67d193f1fa2f093bcce90207,2025-03-12_15h11.25.568,Tarea de decisión léxica,2024.2.5,Win32,59.88023952,,,,,,,,,,,,,,,,,,,,,,1288.076,1289.7103,l,1,0.9293,1,1289.7106,1290.2052,,,,,,174,FEM,NOWORD,AGR,150,boma,,la,,0.9293,,,,1290.2117,1290.2143,0.136666701,-0.431111145,0,0,0,,0,155,155,173,1,rosa,,,,
,,,,,,,5b84a7ea4f38790001778d53,676192165fb32c2e1fb7aee6,67d193f1fa2f093bcce90207,2025-03-12_15h11.25.568,Tarea de decisión léxica,2024.2.5,Win32,59.88023952,,,,,,,,,,,,,,,,,,,,,,1290.2177,1291.335,a,1,0.4152,1,1291.3355,1291.8281,,,,,,301,FEM,WORD,AGR,150,banda,,la,,0.4152,,,,1291.8284,1291.829,0.136666701,-0.431111145,0,0,0,,0,156,156,300,1,ranga,,,,
,,,,,,,5b84a7ea4f38790001778d53,676192165fb32c2e1fb7aee6,67d193f1fa2f093bcce90207,2025-03-12_15h11.25.568,Tarea de decisión léxica,2024.2.5,Win32,59.88023952,,,,,,,,,,,,,,,,,,,,,,1291.8347,1293.049,l,1,0.5406,1,1293.0499,1293.5373,,,,,,80,FEM,NOWORD,DIS,150,ciel,,el,,0.5406,,,,1293.5375,1293.5378,0.136666701,-0.431111145,0,0,0,,0,157,157,79,1,piel,,,,
,,,,,,,5b84a7ea4f38790001778d53,676192165fb32c2e1fb7aee6,67d193f1fa2f093bcce90207,2025-03-12_15h11.25.568,Tarea de decisión léxica,2024.2.5,Win32,59.88023952,,,,,,,,,,,,,,,,,,,,,,1293.5413,1294.7841,a,1,0.565,1,1294.7846,1295.2784,,,,,,473,FEM,WORD,DIS,150,feria,,el,,0.565,,,,1295.2787,1295.279,0.136666701,-0.431111145,0,0,0,,0,158,158,472,1,felia,,,,
,,,,,,,5b84a7ea4f38790001778d53,676192165fb32c2e1fb7aee6,67d193f1fa2f093bcce90207,2025-03-12_15h11.25.568,Tarea de decisión léxica,2024.2.5,Win32,59.88023952,,,,,,,,,,,,,,,,,,,,,,1295.2841,1296.4086,l,1,0.4352,1,1296.409,1296.8967,,,,,,32,FEM,NOWORD,DIS,150,bova,,el,,0.4352,,,,1296.8969,1296.8974,0.136666701,-0.431111145,0,0,0,,0,159,159,31,1,ropa,,,,
,,,,,,,5b84a7ea4f38790001778d53,676192165fb32c2e1fb7aee6,67d193f1fa2f093bcce90207,2025-03-12_15h11.25.568,Tarea de decisión léxica,2024.2.5,Win32,59.88023952,,,,,,,,,,,,,,,,,,,,,,1296.9026,1298.0382,a,1,0.4457,1,1298.0386,1298.5338,,,,,,291,FEM,WORD,AGR,150,pista,,la,,0.4457,,,,1298.5398,1337.0055,0.888333299,0.5,0,0,0,space,0,160,160,290,1,mesta,38.3927,,,
,,,,,,,5b84a7ea4f38790001778d53,676192165fb32c2e1fb7aee6,67d193f1fa2f093bcce90207,2025-03-12_15h11.25.568,Tarea de decisión léxica,2024.2.5,Win32,59.88023952,,,,,,,,,,,,,,,,,,,,,,1337.0146,1338.483,l,0,0.7619,0,1338.488,1338.9896,,,,,,239,MAS,WORD,AGR,150,mozo,,el,,0.7619,,,,1338.9898,1338.9903,0.888333299,0.5,0,0,0,,0,161,161,238,1,poño,,,,
,,,,,,,5b84a7ea4f38790001778d53,676192165fb32c2e1fb7aee6,67d193f1fa2f093bcce90207,2025-03-12_15h11.25.568,Tarea de decisión léxica,2024.2.5,Win32,59.88023952,,,,,,,,,,,,,,,,,,,,,,1338.994,1340.056,a,1,0.37,1,1340.0604,1340.554,,,,,,303,MAS,WORD,AGR,150,barco,,el,,0.37,,,,1340.5543,1340.5548,0.882777744,0.5,0,0,0,,0,162,162,302,1,lanco,,,,
,,,,,,,5b84a7ea4f38790001778d53,676192165fb32c2e1fb7aee6,67d193f1fa2f093bcce90207,2025-03-12_15h11.25.568,Tarea de decisión léxica,2024.2.5,Win32,59.88023952,,,,,,,,,,,,,,,,,,,,,,1340.5605,1341.6835,a,1,0.4383,1,1341.6842,1342.1749,,,,,,403,FEM,WORD,AGR,150,prima,,la,,0.4383,,,,1342.1752,1342.1759,0.880555556,0.498333333,0,0,0,,0,163,163,402,1,grisa,,,,
,,,,,,,5b84a7ea4f38790001778d53,676192165fb32c2e1fb7aee6,67d193f1fa2f093bcce90207,2025-03-12_15h11.25.568,Tarea de decisión léxica,2024.2.5,Win32,59.88023952,,,,,,,,,,,,,,,,,,,,,,1342.1813,1343.299,l,1,0.419,1,1343.2996,1343.7937,,,,,,444,MAS,NOWORD,DIS,150,taron,,la,,0.419,,,,1343.7938,1343.7941,0.880555556,0.497222222,0,0,0,,0,164,164,443,1,salón,,,,
,,,,,,,5b84a7ea4f38790001778d53,676192165fb32c2e1fb7aee6,67d193f1fa2f093bcce90207,2025-03-12_15h11.25.568,Tarea de decisión léxica,2024.2.5,Win32,59.88023952,,,,,,,,,,,,,,,,,,,,,,1343.7966,1346.4497,,0,0.419,-1,1346.4521,1346.9503,,,,,,53,FEM,WORD,AGR,150,boda,,la,,,,,,1346.9537,1346.9555,0.879999966,0.496111111,0,0,0,,0,165,165,52,1,rora,,,,
,,,,,,,5b84a7ea4f38790001778d53,676192165fb32c2e1fb7aee6,67d193f1fa2f093bcce90207,2025-03-12_15h11.25.568,Tarea de decisión léxica,2024.2.5,Win32,59.88023952,,,,,,,,,,,,,,,,,,,,,,1346.9573,1348.4415,a,1,0.7384,1,1348.4442,1348.9247,,,,,,233,FEM,WORD,DIS,150,lana,,el,,0.7384,,,,1348.9248,1348.9253,0.879999966,0.496111111,0,0,0,,0,166,166,232,1,fasa,,,,
,,,,,,,5b84a7ea4f38790001778d53,676192165fb32c2e1fb7aee6,67d193f1fa2f093bcce90207,2025-03-12_15h11.25.568,Tarea de decisión léxica,2024.2.5,Win32,59.88023952,,,,,,,,,,,,,,,,,,,,,,1348.9281,1350.1522,a,1,0.524,1,1350.1529,1350.6438,,,,,,249,FEM,WORD,DIS,150,clase,,el,,0.524,,,,1350.6442,1350.6448,0.879999966,0.496111111,0,0,0,,0,167,167,248,1,plane,,,,
,,,,,,,5b84a7ea4f38790001778d53,676192165fb32c2e1fb7aee6,67d193f1fa2f093bcce90207,2025-03-12_15h11.25.568,Tarea de decisión léxica,2024.2.5,Win32,59.88023952,,,,,,,,,,,,,,,,,,,,,,1350.6495,1351.7711,a,0,0.4503,0,1351.7759,1352.2659,,,,,,36,MAS,NOWORD,DIS,150,meno,,la,,0.4503,,,,1352.2661,1352.2663,0.879999966,0.496111111,0,0,0,,0,168,168,35,1,pelo,,,,
,,,,,,,5b84a7ea4f38790001778d53,676192165fb32c2e1fb7aee6,67d193f1fa2f093bcce90207,2025-03-12_15h11.25.568,Tarea de decisión léxica,2024.2.5,Win32,59.88023952,,,,,,,,,,,,,,,,,,,,,,1352.2707,1353.4926,l,1,0.5353,1,1353.4976,1353.9948,,,,,,168,FEM,NOWORD,DIS,150,zifa,,el,,0.5353,,,,1353.9951,1353.9955,0.879999966,0.496111111,0,0,0,,0,169,169,167,1,jefa,,,,
,,,,,,,5b84a7ea4f38790001778d53,676192165fb32c2e1fb7aee6,67d193f1fa2f093bcce90207,2025-03-12_15h11.25.568,Tarea de decisión léxica,2024.2.5,Win32,59.88023952,,,,,,,,,,,,,,,,,,,,,,1354.0003,1355.1312,a,1,0.4247,1,1355.132,1355.6293,,,,,,105,FEM,WORD,AGR,150,sopa,,la,,0.4247,,,,1355.635,1355.639,0.879999966,0.496111111,0,0,0,,0,170,170,104,1,vina,,,,
,,,,,,,5b84a7ea4f38790001778d53,676192165fb32c2e1fb7aee6,67d193f1fa2f093bcce90207,2025-03-12_15h11.25.568,Tarea de decisión léxica,2024.2.5,Win32,59.88023952,,,,,,,,,,,,,,,,,,,,,,1355.6411,1356.8648,a,1,0.5435,1,1356.8655,1357.3547,,,,,,277,MAS,WORD,DIS,150,fuego,,la,,0.5435,,,,1357.3551,1357.3559,0.880555556,0.496111111,0,0,0,,0,171,171,276,1,vuemo,,,,
,,,,,,,5b84a7ea4f38790001778d53,676192165fb32c2e1fb7aee6,67d193f1fa2f093bcce90207,2025-03-12_15h11.25.568,Tarea de decisión léxica,2024.2.5,Win32,59.88023952,,,,,,,,,,,,,,,,,,,,,,1357.3619,1358.549,l,1,0.5043,1,1358.5496,1359.0593,,,,,,266,FEM,NOWORD,AGR,150,pitat,,la,,0.5043,,,,1359.0596,1359.06,0.880555556,0.496111111,0,0,0,,0,172,172,265,1,mitad,,,,
,,,,,,,5b84a7ea4f38790001778d53,676192165fb32c2e1fb7aee6,67d193f1fa2f093bcce90207,2025-03-12_15h11.25.568,Tarea de decisión léxica,2024.2.5,Win32,59.88023952,,,,,,,,,,,,,,,,,,,,,,1359.0674,1360.1361,a,1,0.3796,1,1360.1378,1360.6142,,,,,,313,MAS,WORD,AGR,150,novio,,el,,0.3796,,,,1360.6145,1360.6151,0.880555556,0.496111111,0,0,0,,0,173,173,312,1,govio,,,,
,,,,,,,5b84a7ea4f38790001778d53,676192165fb32c2e1fb7aee6,67d193f1fa2f093bcce90207,2025-03-12_15h11.25.568,Tarea de decisión léxica,2024.2.5,Win32,59.88023952,,,,,,,,,,,,,,,,,,,,,,1360.6205,1361.734,a,1,0.4309,1,1361.7349,1362.2271,,,,,,13,FEM,WORD,AGR,150,hora,,la,,0.4309,,,,1362.2273,1362.228,0.880555556,0.495555555,0,0,0,,0,174,174,12,1,nola,,,,
,,,,,,,5b84a7ea4f38790001778d53,676192165fb32c2e1fb7aee6,67d193f1fa2f093bcce90207,2025-03-12_15h11.25.568,Tarea de decisión léxica,2024.2.5,Win32,59.88023952,,,,,,,,,,,,,,,,,,,,,,1362.2335,1363.3768,l,1,0.4569,1,1363.3771,1363.8677,,,,,,290,FEM,NOWORD,AGR,150,bumpa,,la,,0.4569,,,,1363.8718,1363.8747,0.880555556,0.495555555,0,0,0,,0,175,175,289,1,bomba,,,,
,,,,,,,5b84a7ea4f38790001778d53,676192165fb32c2e1fb7aee6,67d193f1fa2f093bcce90207,2025-03-12_15h11.25.568,Tarea de decisión léxica,2024.2.5,Win32,59.88023952,,,,,,,,,,,,,,,,,,,,,,1363.879,1365.1845,a,1,0.6274,1,1365.185,1365.676,,,,,,39,MAS,WORD,AGR,150,voto,,el,,0.6274,,,,1365.6762,1365.6767,0.880555556,0.495555555,0,0,0,,0,176,176,38,1,redo,,,,
,,,,,,,5b84a7ea4f38790001778d53,676192165fb32c2e1fb7aee6,67d193f1fa2f093bcce90207,2025-03-12_15h11.25.568,Tarea de decisión léxica,2024.2.5,Win32,59.88023952,,,,,,,,,,,,,,,,,,,,,,1365.6808,1367.3408,a,0,0.9294,0,1367.3427,1367.8383,,,,,,2,FEM,NOWORD,AGR,150,mada,,la,,0.9294,,,,1367.8384,1367.8389,0.880555556,0.495555555,0,0,0,,0,177,177,1,1,casa,,,,
,,,,,,,5b84a7ea4f38790001778d53,676192165fb32c2e1fb7aee6,67d193f1fa2f093bcce90207,2025-03-12_15h11.25.568,Tarea de decisión léxica,2024.2.5,Win32,59.88023952,,,,,,,,,,,,,,,,,,,,,,1367.8412,1369.1551,a,1,0.5694,1,1369.1579,1369.6334,,,,,,19,MAS,WORD,AGR,150,niño,,el,,0.5694,,,,1369.6335,1369.6338,0.880555556,0.495555555,0,0,0,,0,178,178,18,1,himo,,,,
,,,,,,,5b84a7ea4f38790001778d53,676192165fb32c2e1fb7aee6,67d193f1fa2f093bcce90207,2025-03-12_15h11.25.568,Tarea de decisión léxica,2024.2.5,Win32,59.88023952,,,,,,,,,,,,,,,,,,,,,,1369.6364,1370.8272,l,1,0.5196,1,1370.8277,1371.3082,,,,,,256,MAS,NOWORD,DIS,150,mauco,,la,,0.5196,,,,1371.3142,1371.3179,0.880555556,0.495555555,0,0,0,,0,179,179,255,1,miedo,,,,
,,,,,,,5b84a7ea4f38790001778d53,676192165fb32c2e1fb7aee6,67d193f1fa2f093bcce90207,2025-03-12_15h11.25.568,Tarea de decisión léxica,2024.2.5,Win32,59.88023952,,,,,,,,,,,,,,,,,,,,,,1371.3199,1372.4702,l,1,0.4572,1,1372.471,1372.9802,,,,,,100,MAS,NOWORD,DIS,150,soro,,la,,0.4572,,,,1372.9804,1372.9812,0.880555556,0.495555555,0,0,0,,0,180,180,99,1,lobo,,,,
,,,,,,,5b84a7ea4f38790001778d53,676192165fb32c2e1fb7aee6,67d193f1fa2f093bcce90207,2025-03-12_15h11.25.568,Tarea de decisión léxica,2024.2.5,Win32,59.88023952,,,,,,,,,,,,,,,,,,,,,,1372.9868,1373.9856,l,0,0.3275,0,1373.9899,1374.4586,,,,,,453,FEM,WORD,AGR,150,mafia,,la,,0.3275,,,,1374.4588,1374.4592,0.880555556,0.495555555,0,0,0,,0,181,181,452,1,pafia,,,,
,,,,,,,5b84a7ea4f38790001778d53,676192165fb32c2e1fb7aee6,67d193f1fa2f093bcce90207,2025-03-12_15h11.25.568,Tarea de decisión léxica,2024.2.5,Win32,59.88023952,,,,,,,,,,,,,,,,,,,,,,1374.4634,1375.6611,l,1,0.5104,1,1375.6645,1376.1435,,,,,,58,MAS,NOWORD,AGR,150,heco,,el,,0.5104,,,,1376.1438,1376.1445,0.881666734,0.495555555,0,0,0,,0,182,182,57,1,dedo,,,,
,,,,,,,5b84a7ea4f38790001778d53,676192165fb32c2e1fb7aee6,67d193f1fa2f093bcce90207,2025-03-12_15h11.25.568,Tarea de decisión léxica,2024.2.5,Win32,59.88023952,,,,,,,,,,,,,,,,,,,,,,1376.1496,1377.2377,a,1,0.4033,1,1377.2384,1377.7276,,,,,,65,MAS,WORD,AGR,150,dios,,el,,0.4033,,,,1377.7279,1377.7284,0.881666734,0.495555555,0,0,0,,0,183,183,64,1,nios,,,,
,,,,,,,5b84a7ea4f38790001778d53,676192165fb32c2e1fb7aee6,67d193f1fa2f093bcce90207,2025-03-12_15h11.25.568,Tarea de decisión léxica,2024.2.5,Win32,59.88023952,,,,,,,,,,,,,,,,,,,,,,1377.7338,1378.8614,a,0,0.4391,0,1378.8662,1379.3524,,,,,,72,FEM,NOWORD,DIS,150,urla,,el,,0.4391,,,,1379.358,1379.3621,0.881666734,0.495555555,0,0,0,,0,184,184,71,1,isla,,,,
,,,,,,,5b84a7ea4f38790001778d53,676192165fb32c2e1fb7aee6,67d193f1fa2f093bcce90207,2025-03-12_15h11.25.568,Tarea de decisión léxica,2024.2.5,Win32,59.88023952,,,,,,,,,,,,,,,,,,,,,,1379.364,1380.3588,a,1,0.3117,1,1380.3626,1380.8476,,,,,,293,MAS,WORD,DIS,150,campo,,la,,0.3117,,,,1380.8478,1380.8481,0.881666734,0.495555555,0,0,0,,0,185,185,292,1,cacso,,,,
,,,,,,,5b84a7ea4f38790001778d53,676192165fb32c2e1fb7aee6,67d193f1fa2f093bcce90207,2025-03-12_15h11.25.568,Tarea de decisión léxica,2024.2.5,Win32,59.88023952,,,,,,,,,,,,,,,,,,,,,,1380.8519,1381.9821,a,1,0.4559,1,1381.9827,1382.4881,,,,,,73,MAS,WORD,DIS,150,odio,,la,,0.4559,,,,1382.4883,1382.4891,0.881666734,0.495555555,0,0,0,,0,186,186,72,1,omio,,,,
,,,,,,,5b84a7ea4f38790001778d53,676192165fb32c2e1fb7aee6,67d193f1fa2f093bcce90207,2025-03-12_15h11.25.568,Tarea de decisión léxica,2024.2.5,Win32,59.88023952,,,,,,,,,,,,,,,,,,,,,,1382.494,1383.6994,l,1,0.525,1,1383.6999,1384.2452,,,,,,342,MAS,NOWORD,AGR,150,daror,,el,,0.525,,,,1384.2453,1384.2456,0.881666734,0.495555555,0,0,0,,0,187,187,341,1,valor,,,,
,,,,,,,5b84a7ea4f38790001778d53,676192165fb32c2e1fb7aee6,67d193f1fa2f093bcce90207,2025-03-12_15h11.25.568,Tarea de decisión léxica,2024.2.5,Win32,59.88023952,,,,,,,,,,,,,,,,,,,,,,1384.2481,1385.9561,l,1,0.9957,1,1385.9563,1386.4331,,,,,,234,FEM,NOWORD,AGR,150,fasa,,la,,0.9957,,,,1386.4333,1386.4336,0.881666734,0.495555555,0,0,0,,0,188,188,233,1,lana,,,,
,,,,,,,5b84a7ea4f38790001778d53,676192165fb32c2e1fb7aee6,67d193f1fa2f093bcce90207,2025-03-12_15h11.25.568,Tarea de decisión léxica,2024.2.5,Win32,59.88023952,,,,,,,,,,,,,,,,,,,,,,1386.4362,1387.8509,a,1,0.6651,1,1387.8511,1388.3209,,,,,,393,FEM,WORD,DIS,150,aldea,,el,,0.6651,,,,1388.3245,1388.326,0.881666734,0.495555555,0,0,0,,0,189,189,392,1,ashea,,,,
,,,,,,,5b84a7ea4f38790001778d53,676192165fb32c2e1fb7aee6,67d193f1fa2f093bcce90207,2025-03-12_15h11.25.568,Tarea de decisión léxica,2024.2.5,Win32,59.88023952,,,,,,,,,,,,,,,,,,,,,,1388.3279,1389.6108,l,1,0.5039,1,1389.6111,1390.0888,,,,,,312,MAS,NOWORD,DIS,150,nosor,,la,,0.5039,,,,1390.0889,1390.0893,0.881666734,0.495555555,0,0,0,,0,190,190,311,1,honor,,,,
,,,,,,,5b84a7ea4f38790001778d53,676192165fb32c2e1fb7aee6,67d193f1fa2f093bcce90207,2025-03-12_15h11.25.568,Tarea de decisión léxica,2024.2.5,Win32,59.88023952,,,,,,,,,,,,,,,,,,,,,,1390.092,1391.2171,a,1,0.4291,1,1391.2177,1391.7121,,,,,,101,MAS,WORD,DIS,150,tono,,la,,0.4291,,,,1391.7123,1391.7133,0.881666734,0.495555555,0,0,0,,0,191,191,100,1,gito,,,,
,,,,,,,5b84a7ea4f38790001778d53,676192165fb32c2e1fb7aee6,67d193f1fa2f093bcce90207,2025-03-12_15h11.25.568,Tarea de decisión léxica,2024.2.5,Win32,59.88023952,,,,,,,,,,,,,,,,,,,,,,1391.7185,1392.8519,a,1,0.4411,1,1392.8524,1393.3529,,,,,,135,MAS,WORD,DIS,150,tubo,,la,,0.4411,,,,1393.3531,1393.3537,0.881666734,0.495555555,0,0,0,,0,192,192,134,1,geso,,,,
,,,,,,,5b84a7ea4f38790001778d53,676192165fb32c2e1fb7aee6,67d193f1fa2f093bcce90207,2025-03-12_15h11.25.568,Tarea de decisión léxica,2024.2.5,Win32,59.88023952,,,,,,,,,,,,,,,,,,,,,,1393.3591,1394.4764,l,1,0.4407,1,1394.477,1394.9869,,,,,,466,FEM,NOWORD,AGR,150,asuba,,la,,0.4407,,,,1394.9871,1394.9878,0.881666734,0.495555555,0,0,0,,0,193,193,465,1,aguja,,,,
,,,,,,,5b84a7ea4f38790001778d53,676192165fb32c2e1fb7aee6,67d193f1fa2f093bcce90207,2025-03-12_15h11.25.568,Tarea de decisión léxica,2024.2.5,Win32,59.88023952,,,,,,,,,,,,,,,,,,,,,,1394.9937,1396.1219,a,1,0.4511,1,1396.1223,1396.625,,,,,,283,MAS,WORD,DIS,150,sueño,,la,,0.4511,,,,1396.6309,1396.6342,0.881666734,0.495555555,0,0,0,,0,194,194,282,1,tuevo,,,,
,,,,,,,5b84a7ea4f38790001778d53,676192165fb32c2e1fb7aee6,67d193f1fa2f093bcce90207,2025-03-12_15h11.25.568,Tarea de decisión léxica,2024.2.5,Win32,59.88023952,,,,,,,,,,,,,,,,,,,,,,1396.637,1397.8018,a,1,0.4742,1,1397.8023,1398.303,,,,,,207,MAS,WORD,DIS,150,kilo,,la,,0.4742,,,,1398.303,1398.3034,0.881666734,0.495555555,0,0,0,,0,195,195,206,1,kedo,,,,
,,,,,,,5b84a7ea4f38790001778d53,676192165fb32c2e1fb7aee6,67d193f1fa2f093bcce90207,2025-03-12_15h11.25.568,Tarea de decisión léxica,2024.2.5,Win32,59.88023952,,,,,,,,,,,,,,,,,,,,,,1398.3076,1399.3815,a,1,0.4012,1,1399.3826,1399.8866,,,,,,219,FEM,WORD,DIS,150,pipa,,el,,0.4012,,,,1399.8867,1399.8871,0.881666734,0.495555555,0,0,0,,0,196,196,218,1,miva,,,,
,,,,,,,5b84a7ea4f38790001778d53,676192165fb32c2e1fb7aee6,67d193f1fa2f093bcce90207,2025-03-12_15h11.25.568,Tarea de decisión léxica,2024.2.5,Win32,59.88023952,,,,,,,,,,,,,,,,,,,,,,1399.8908,1400.9651,a,1,0.4041,1,1400.9663,1401.4505,,,,,,255,MAS,WORD,DIS,150,miedo,,la,,0.4041,,,,1401.4509,1401.4512,0.881666734,0.495555555,0,0,0,,0,197,197,254,1,mauco,,,,
,,,,,,,5b84a7ea4f38790001778d53,676192165fb32c2e1fb7aee6,67d193f1fa2f093bcce90207,2025-03-12_15h11.25.568,Tarea de decisión léxica,2024.2.5,Win32,59.88023952,,,,,,,,,,,,,,,,,,,,,,1401.4575,1402.5806,l,1,0.433,1,1402.5811,1403.0903,,,,,,326,FEM,NOWORD,AGR,150,mabia,,la,,0.433,,,,1403.0904,1403.0908,0.881666734,0.495555555,0,0,0,,0,198,198,325,1,magia,,,,
,,,,,,,5b84a7ea4f38790001778d53,676192165fb32c2e1fb7aee6,67d193f1fa2f093bcce90207,2025-03-12_15h11.25.568,Tarea de decisión léxica,2024.2.5,Win32,59.88023952,,,,,,,,,,,,,,,,,,,,,,1403.096,1404.1683,a,1,0.4019,1,1404.1688,1404.6649,,,,,,479,MAS,WORD,AGR,150,rumbo,,el,,0.4019,,,,1404.6694,1404.6723,0.881666734,0.495555555,0,0,0,,0,199,199,478,1,rimpo,,,,
,,,,,,,5b84a7ea4f38790001778d53,676192165fb32c2e1fb7aee6,67d193f1fa2f093bcce90207,2025-03-12_15h11.25.568,Tarea de decisión léxica,2024.2.5,Win32,59.88023952,,,,,,,,,,,,,,,,,,,,,,1404.676,1405.8424,l,1,0.4753,1,1405.8429,1406.3438,,,,,,160,MAS,NOWORD,DIS,150,bilo,,la,,0.4753,,,,1406.3441,1406.3448,0.881666734,0.495555555,0,0,0,,0,200,200,159,1,giro,,,,
,,,,,,,5b84a7ea4f38790001778d53,676192165fb32c2e1fb7aee6,67d193f1fa2f093bcce90207,2025-03-12_15h11.25.568,Tarea de decisión léxica,2024.2.5,Win32,59.88023952,,,,,,,,,,,,,,,,,,,,,,1406.3489,1407.5096,a,1,0.4686,1,1407.5101,1407.9954,,,,,,377,MAS,WORD,AGR,150,hielo,,el,,0.4686,,,,1407.9957,1407.9963,0.881666734,0.495555555,0,0,0,,0,201,201,376,1,gaulo,,,,
,,,,,,,5b84a7ea4f38790001778d53,676192165fb32c2e1fb7aee6,67d193f1fa2f093bcce90207,2025-03-12_15h11.25.568,Tarea de decisión léxica,2024.2.5,Win32,59.88023952,,,,,,,,,,,,,,,,,,,,,,1408.0014,1409.2584,l,1,0.5399,1,1409.2587,1409.7466,,,,,,88,MAS,NOWORD,DIS,150,damo,,la,,0.5399,,,,1409.7467,1409.7472,0.881666734,0.495555555,0,0,0,,0,202,202,87,1,vaso,,,,
,,,,,,,5b84a7ea4f38790001778d53,676192165fb32c2e1fb7aee6,67d193f1fa2f093bcce90207,2025-03-12_15h11.25.568,Tarea de decisión léxica,2024.2.5,Win32,59.88023952,,,,,,,,,,,,,,,,,,,,,,1409.7506,1411.0421,a,1,0.5989,1,1411.0425,1411.5238,,,,,,331,MAS,WORD,DIS,150,éxito,,la,,0.5989,,,,1411.5276,1411.5294,0.881666734,0.495555555,0,0,0,,0,203,203,330,1,erato,,,,
,,,,,,,5b84a7ea4f38790001778d53,676192165fb32c2e1fb7aee6,67d193f1fa2f093bcce90207,2025-03-12_15h11.25.568,Tarea de decisión léxica,2024.2.5,Win32,59.88023952,,,,,,,,,,,,,,,,,,,,,,1411.5315,1413.0295,l,1,0.731,1,1413.0297,1413.5123,,,,,,132,FEM,NOWORD,DIS,150,fada,,el,,0.731,,,,1413.5124,1413.5128,0.881666734,0.495555555,0,0,0,,0,204,204,131,1,mina,,,,
,,,,,,,5b84a7ea4f38790001778d53,676192165fb32c2e1fb7aee6,67d193f1fa2f093bcce90207,2025-03-12_15h11.25.568,Tarea de decisión léxica,2024.2.5,Win32,59.88023952,,,,,,,,,,,,,,,,,,,,,,1413.5154,1414.673,a,1,0.4682,1,1414.6734,1415.1684,,,,,,341,MAS,WORD,AGR,150,valor,,el,,0.4682,,,,1415.1686,1415.169,0.881666734,0.495555555,0,0,0,,0,205,205,340,1,daror,,,,
,,,,,,,5b84a7ea4f38790001778d53,676192165fb32c2e1fb7aee6,67d193f1fa2f093bcce90207,2025-03-12_15h11.25.568,Tarea de decisión léxica,2024.2.5,Win32,59.88023952,,,,,,,,,,,,,,,,,,,,,,1415.1732,1416.3338,l,1,0.4806,1,1416.3343,1416.8272,,,,,,382,MAS,NOWORD,AGR,150,nusor,,el,,0.4806,,,,1416.8274,1416.8279,0.881666734,0.495555555,0,0,0,,0,206,206,381,1,humor,,,,
,,,,,,,5b84a7ea4f38790001778d53,676192165fb32c2e1fb7aee6,67d193f1fa2f093bcce90207,2025-03-12_15h11.25.568,Tarea de decisión léxica,2024.2.5,Win32,59.88023952,,,,,,,,,,,,,,,,,,,,,,1416.834,1418.0136,a,1,0.5082,1,1418.0139,1418.5089,,,,,,309,FEM,WORD,DIS,150,silla,,el,,0.5082,,,,1418.509,1418.5094,0.881666734,0.495555555,0,0,0,,0,207,207,308,1,tirra,,,,
,,,,,,,5b84a7ea4f38790001778d53,676192165fb32c2e1fb7aee6,67d193f1fa2f093bcce90207,2025-03-12_15h11.25.568,Tarea de decisión léxica,2024.2.5,Win32,59.88023952,,,,,,,,,,,,,,,,,,,,,,1418.5128,1419.7106,l,1,0.5168,1,1419.7109,1420.1913,,,,,,334,FEM,NOWORD,AGR,150,dalea,,la,,0.5168,,,,1420.1972,1420.2004,0.881666734,0.495555555,0,0,0,,0,208,208,333,1,tarea,,,,
,,,,,,,5b84a7ea4f38790001778d53,676192165fb32c2e1fb7aee6,67d193f1fa2f093bcce90207,2025-03-12_15h11.25.568,Tarea de decisión léxica,2024.2.5,Win32,59.88023952,,,,,,,,,,,,,,,,,,,,,,1420.2022,1421.3411,a,1,0.4386,1,1421.3419,1421.8335,,,,,,445,MAS,WORD,AGR,150,actor,,el,,0.4386,,,,1421.8338,1421.8345,0.881666734,0.495555555,0,0,0,,0,209,209,444,1,ascor,,,,
,,,,,,,5b84a7ea4f38790001778d53,676192165fb32c2e1fb7aee6,67d193f1fa2f093bcce90207,2025-03-12_15h11.25.568,Tarea de decisión léxica,2024.2.5,Win32,59.88023952,,,,,,,,,,,,,,,,,,,,,,1421.8399,1422.9312,a,1,0.4062,1,1422.9319,1423.408,,,,,,275,MAS,WORD,AGR,150,punto,,el,,0.4062,,,,1423.4084,1423.4091,0.881666734,0.495555555,0,0,0,,0,210,210,274,1,musto,,,,
,,,,,,,5b84a7ea4f38790001778d53,676192165fb32c2e1fb7aee6,67d193f1fa2f093bcce90207,2025-03-12_15h11.25.568,Tarea de decisión léxica,2024.2.5,Win32,59.88023952,,,,,,,,,,,,,,,,,,,,,,1423.4148,1424.6141,a,1,0.5268,1,1424.6148,1425.1229,,,,,,123,FEM,WORD,DIS,150,flor,,el,,0.5268,,,,1425.1232,1425.1238,0.881666734,0.495555555,0,0,0,,0,211,211,122,1,maba,,,,
,,,,,,,5b84a7ea4f38790001778d53,676192165fb32c2e1fb7aee6,67d193f1fa2f093bcce90207,2025-03-12_15h11.25.568,Tarea de decisión léxica,2024.2.5,Win32,59.88023952,,,,,,,,,,,,,,,,,,,,,,1425.1292,1426.3058,l,1,0.4992,1,1426.3061,1426.8139,,,,,,50,FEM,NOWORD,AGR,150,ecat,,la,,0.4992,,,,1426.8142,1426.8149,0.881666734,0.495555555,0,0,0,,0,212,212,49,1,edad,,,,
,,,,,,,5b84a7ea4f38790001778d53,676192165fb32c2e1fb7aee6,67d193f1fa2f093bcce90207,2025-03-12_15h11.25.568,Tarea de decisión léxica,2024.2.5,Win32,59.88023952,,,,,,,,,,,,,,,,,,,,,,1426.8202,1427.9066,a,1,0.4047,1,1427.9071,1428.3726,,,,,,109,MAS,WORD,DIS,150,rayo,,la,,0.4047,,,,1428.3763,1428.378,0.881666734,0.495555555,0,0,0,,0,213,213,108,1,suno,,,,
,,,,,,,5b84a7ea4f38790001778d53,676192165fb32c2e1fb7aee6,67d193f1fa2f093bcce90207,2025-03-12_15h11.25.568,Tarea de decisión léxica,2024.2.5,Win32,59.88023952,,,,,,,,,,,,,,,,,,,,,,1428.3799,1429.5878,l,1,0.4375,1,1429.5881,1430.0671,,,,,,190,MAS,NOWORD,AGR,150,muvo,,el,,0.4375,,,,1430.0672,1430.0678,0.881666734,0.495555555,0,0,0,,0,214,214,189,1,puño,,,,
,,,,,,,5b84a7ea4f38790001778d53,676192165fb32c2e1fb7aee6,67d193f1fa2f093bcce90207,2025-03-12_15h11.25.568,Tarea de decisión léxica,2024.2.5,Win32,59.88023952,,,,,,,,,,,,,,,,,,,,,,1430.0705,1431.254,a,1,0.4685,1,1431.2543,1431.7466,,,,,,311,MAS,WORD,DIS,150,honor,,la,,0.4685,,,,1431.7467,1431.7471,0.881666734,0.495555555,0,0,0,,0,215,215,310,1,nosor,,,,
,,,,,,,5b84a7ea4f38790001778d53,676192165fb32c2e1fb7aee6,67d193f1fa2f093bcce90207,2025-03-12_15h11.25.568,Tarea de decisión léxica,2024.2.5,Win32,59.88023952,,,,,,,,,,,,,,,,,,,,,,1431.7499,1433.0791,l,1,0.6033,1,1433.0796,1433.5526,,,,,,286,MAS,NOWORD,AGR,150,echor,,el,,0.6033,,,,1433.5527,1433.5529,0.881666734,0.495555555,0,0,0,,0,216,216,285,1,error,,,,
,,,,,,,5b84a7ea4f38790001778d53,676192165fb32c2e1fb7aee6,67d193f1fa2f093bcce90207,2025-03-12_15h11.25.568,Tarea de decisión léxica,2024.2.5,Win32,59.88023952,,,,,,,,,,,,,,,,,,,,,,1433.5556,1434.7009,a,0,0.4577,0,1434.7054,1435.2043,,,,,,24,FEM,NOWORD,DIS,150,giva,,el,,0.4577,,,,1435.2045,1435.2052,0.881666734,0.495,0,0,0,,0,217,217,23,1,hija,,,,
,,,,,,,5b84a7ea4f38790001778d53,676192165fb32c2e1fb7aee6,67d193f1fa2f093bcce90207,2025-03-12_15h11.25.568,Tarea de decisión léxica,2024.2.5,Win32,59.88023952,,,,,,,,,,,,,,,,,,,,,,1435.212,1436.3547,a,1,0.4691,1,1436.3592,1436.8534,,,,,,451,FEM,WORD,DIS,150,fruta,,el,,0.4691,,,,1436.8576,1436.8605,0.881666734,0.495,0,0,0,,0,218,218,450,1,clita,,,,
,,,,,,,5b84a7ea4f38790001778d53,676192165fb32c2e1fb7aee6,67d193f1fa2f093bcce90207,2025-03-12_15h11.25.568,Tarea de decisión léxica,2024.2.5,Win32,59.88023952,,,,,,,,,,,,,,,,,,,,,,1436.8627,1437.9688,l,0,0.4196,0,1437.9736,1438.4672,,,,,,115,FEM,WORD,AGR,150,pata,,la,,0.4196,,,,1438.4675,1438.4681,0.881666734,0.495,0,0,0,,0,219,219,114,1,haca,,,,
,,,,,,,5b84a7ea4f38790001778d53,676192165fb32c2e1fb7aee6,67d193f1fa2f093bcce90207,2025-03-12_15h11.25.568,Tarea de decisión léxica,2024.2.5,Win32,59.88023952,,,,,,,,,,,,,,,,,,,,,,1438.4742,1439.5886,a,1,0.436,1,1439.5934,1440.0933,,,,,,373,FEM,WORD,AGR,150,pizza,,la,,0.436,,,,1440.0934,1440.0939,0.881666734,0.495,0,0,0,,0,220,220,372,1,pogza,,,,
,,,,,,,5b84a7ea4f38790001778d53,676192165fb32c2e1fb7aee6,67d193f1fa2f093bcce90207,2025-03-12_15h11.25.568,Tarea de decisión léxica,2024.2.5,Win32,59.88023952,,,,,,,,,,,,,,,,,,,,,,1440.0991,1441.223,l,1,0.4355,1,1441.2235,1441.716,,,,,,278,MAS,NOWORD,AGR,150,vuemo,,el,,0.4355,,,,1441.7161,1441.7166,0.881666734,0.495,0,0,0,,0,221,221,277,1,fuego,,,,
,,,,,,,5b84a7ea4f38790001778d53,676192165fb32c2e1fb7aee6,67d193f1fa2f093bcce90207,2025-03-12_15h11.25.568,Tarea de decisión léxica,2024.2.5,Win32,59.88023952,,,,,,,,,,,,,,,,,,,,,,1441.721,1442.8223,l,1,0.4026,1,1442.8228,1443.3183,,,,,,166,FEM,NOWORD,AGR,150,dera,,la,,0.4026,,,,1443.3185,1443.3191,0.881666734,0.495,0,0,0,,0,222,222,165,1,vela,,,,
,,,,,,,5b84a7ea4f38790001778d53,676192165fb32c2e1fb7aee6,67d193f1fa2f093bcce90207,2025-03-12_15h11.25.568,Tarea de decisión léxica,2024.2.5,Win32,59.88023952,,,,,,,,,,,,,,,,,,,,,,1443.3246,1444.4269,l,1,0.4321,1,1444.4272,1444.9233,,,,,,186,MAS,NOWORD,AGR,150,raol,,el,,0.4321,,,,1444.9289,1444.9324,0.881666734,0.495,0,0,0,,0,223,223,185,1,baúl,,,,
,,,,,,,5b84a7ea4f38790001778d53,676192165fb32c2e1fb7aee6,67d193f1fa2f093bcce90207,2025-03-12_15h11.25.568,Tarea de decisión léxica,2024.2.5,Win32,59.88023952,,,,,,,,,,,,,,,,,,,,,,1444.9342,1446.0222,a,0,0.4149,0,1446.0273,1446.5077,,,,,,404,FEM,NOWORD,DIS,150,grisa,,el,,0.4149,,,,1446.508,1446.5088,0.881666734,0.495,0,0,0,,0,224,224,403,1,prima,,,,
,,,,,,,5b84a7ea4f38790001778d53,676192165fb32c2e1fb7aee6,67d193f1fa2f093bcce90207,2025-03-12_15h11.25.568,Tarea de decisión léxica,2024.2.5,Win32,59.88023952,,,,,,,,,,,,,,,,,,,,,,1446.5131,1447.5724,a,1,0.3683,1,1447.5778,1448.0737,,,,,,359,MAS,WORD,DIS,150,calor,,la,,0.3683,,,,1448.0741,1448.0749,0.881666734,0.495,0,0,0,,0,225,225,358,1,cacer,,,,
,,,,,,,5b84a7ea4f38790001778d53,676192165fb32c2e1fb7aee6,67d193f1fa2f093bcce90207,2025-03-12_15h11.25.568,Tarea de decisión léxica,2024.2.5,Win32,59.88023952,,,,,,,,,,,,,,,,,,,,,,1448.0795,1449.3534,l,1,0.5677,1,1449.3538,1449.8409,,,,,,408,FEM,NOWORD,DIS,150,cauba,,el,,0.5677,,,,1449.8412,1449.842,0.881666734,0.495,0,0,0,,0,226,226,407,1,cueva,,,,
,,,,,,,5b84a7ea4f38790001778d53,676192165fb32c2e1fb7aee6,67d193f1fa2f093bcce90207,2025-03-12_15h11.25.568,Tarea de decisión léxica,2024.2.5,Win32,59.88023952,,,,,,,,,,,,,,,,,,,,,,1449.8468,1451.2036,l,1,0.664,1,1451.2038,1451.6717,,,,,,248,FEM,NOWORD,DIS,150,trida,,el,,0.664,,,,1451.6757,1451.6777,0.881666734,0.495,0,0,0,,0,227,227,247,1,chica,,,,
,,,,,,,5b84a7ea4f38790001778d53,676192165fb32c2e1fb7aee6,67d193f1fa2f093bcce90207,2025-03-12_15h11.25.568,Tarea de decisión léxica,2024.2.5,Win32,59.88023952,,,,,,,,,,,,,,,,,,,,,,1451.6793,1453.0915,a,1,0.665,1,1453.0917,1453.5702,,,,,,141,FEM,WORD,AGR,150,cruz,,la,,0.665,,,,1453.5703,1453.5706,0.881666734,0.495,0,0,0,,0,228,228,140,1,sina,,,,
,,,,,,,5b84a7ea4f38790001778d53,676192165fb32c2e1fb7aee6,67d193f1fa2f093bcce90207,2025-03-12_15h11.25.568,Tarea de decisión léxica,2024.2.5,Win32,59.88023952,,,,,,,,,,,,,,,,,,,,,,1453.5733,1454.9401,l,1,0.6493,1,1454.9407,1455.3871,,,,,,390,MAS,NOWORD,AGR,150,cenco,,el,,0.6493,,,,1455.3873,1455.3877,0.881666734,0.495,0,0,0,,0,229,229,389,1,cerdo,,,,
,,,,,,,5b84a7ea4f38790001778d53,676192165fb32c2e1fb7aee6,67d193f1fa2f093bcce90207,2025-03-12_15h11.25.568,Tarea de decisión léxica,2024.2.5,Win32,59.88023952,,,,,,,,,,,,,,,,,,,,,,1455.3903,1456.6747,l,1,0.5432,1,1456.6752,1457.177,,,,,,480,MAS,NOWORD,DIS,150,rimpo,,la,,0.5432,,,,1457.1773,1457.178,0.881666734,0.495,0,0,0,,0,230,230,479,1,rumbo,,,,
,,,,,,,5b84a7ea4f38790001778d53,676192165fb32c2e1fb7aee6,67d193f1fa2f093bcce90207,2025-03-12_15h11.25.568,Tarea de decisión léxica,2024.2.5,Win32,59.88023952,,,,,,,,,,,,,,,,,,,,,,1457.1824,1458.3126,a,1,0.4363,1,1458.3133,1458.8217,,,,,,439,FEM,WORD,AGR,150,presa,,la,,0.4363,,,,1458.8218,1458.8221,0.881666734,0.495,0,0,0,,0,231,231,438,1,prema,,,,
,,,,,,,5b84a7ea4f38790001778d53,676192165fb32c2e1fb7aee6,67d193f1fa2f093bcce90207,2025-03-12_15h11.25.568,Tarea de decisión léxica,2024.2.5,Win32,59.88023952,,,,,,,,,,,,,,,,,,,,,,1458.8259,1459.8297,a,1,0.3038,1,1459.8304,1460.3131,,,,,,431,MAS,WORD,AGR,150,motor,,el,,0.3038,,,,1460.3192,1460.3222,0.881666734,0.495,0,0,0,,0,232,232,430,1,tetor,,,,
,,,,,,,5b84a7ea4f38790001778d53,676192165fb32c2e1fb7aee6,67d193f1fa2f093bcce90207,2025-03-12_15h11.25.568,Tarea de decisión léxica,2024.2.5,Win32,59.88023952,,,,,,,,,,,,,,,,,,,,,,1460.3241,1461.4202,a,1,0.4115,1,1461.4206,1461.9233,,,,,,81,FEM,WORD,AGR,150,dama,,la,,0.4115,,,,1461.9235,1461.9239,0.881666734,0.495,0,0,0,,0,233,233,80,1,vasa,,,,
,,,,,,,5b84a7ea4f38790001778d53,676192165fb32c2e1fb7aee6,67d193f1fa2f093bcce90207,2025-03-12_15h11.25.568,Tarea de decisión léxica,2024.2.5,Win32,59.88023952,,,,,,,,,,,,,,,,,,,,,,1461.9278,1462.9242,a,0,0.3203,0,1462.9284,1463.4029,,,,,,418,FEM,NOWORD,AGR,150,banja,,la,,0.3203,,,,1463.4032,1463.404,0.881666734,0.495,0,0,0,,0,234,234,417,1,barba,,,,
,,,,,,,5b84a7ea4f38790001778d53,676192165fb32c2e1fb7aee6,67d193f1fa2f093bcce90207,2025-03-12_15h11.25.568,Tarea de decisión léxica,2024.2.5,Win32,59.88023952,,,,,,,,,,,,,,,,,,,,,,1463.4092,1464.4642,a,1,0.3911,1,1464.468,1464.9626,,,,,,475,FEM,WORD,AGR,150,manta,,la,,0.3911,,,,1464.9629,1464.9636,0.881666734,0.495,0,0,0,,0,235,235,474,1,mucta,,,,
,,,,,,,5b84a7ea4f38790001778d53,676192165fb32c2e1fb7aee6,67d193f1fa2f093bcce90207,2025-03-12_15h11.25.568,Tarea de decisión léxica,2024.2.5,Win32,59.88023952,,,,,,,,,,,,,,,,,,,,,,1464.9681,1466.0989,l,1,0.4419,1,1466.1,1466.5921,,,,,,62,FEM,NOWORD,AGR,150,efla,,la,,0.4419,,,,1466.5924,1466.5933,0.881666734,0.495,0,0,0,,0,236,236,61,1,obra,,,,
,,,,,,,5b84a7ea4f38790001778d53,676192165fb32c2e1fb7aee6,67d193f1fa2f093bcce90207,2025-03-12_15h11.25.568,Tarea de decisión léxica,2024.2.5,Win32,59.88023952,,,,,,,,,,,,,,,,,,,,,,1466.5986,1467.7391,l,1,0.4675,1,1467.7395,1468.2145,,,,,,146,MAS,NOWORD,AGR,150,nobo,,el,,0.4675,,,,1468.2178,1468.2193,0.881666734,0.495,0,0,0,,0,237,237,145,1,león,,,,
,,,,,,,5b84a7ea4f38790001778d53,676192165fb32c2e1fb7aee6,67d193f1fa2f093bcce90207,2025-03-12_15h11.25.568,Tarea de decisión léxica,2024.2.5,Win32,59.88023952,,,,,,,,,,,,,,,,,,,,,,1468.2226,1469.2951,a,1,0.3936,1,1469.2958,1469.7981,,,,,,91,FEM,WORD,AGR,150,taza,,la,,0.3936,,,,1469.7985,1469.7995,0.881666734,0.495,0,0,0,,0,238,238,90,1,sava,,,,
,,,,,,,5b84a7ea4f38790001778d53,676192165fb32c2e1fb7aee6,67d193f1fa2f093bcce90207,2025-03-12_15h11.25.568,Tarea de decisión léxica,2024.2.5,Win32,59.88023952,,,,,,,,,,,,,,,,,,,,,,1469.8043,1471.077,l,1,0.5317,1,1471.0772,1471.5613,,,,,,412,MAS,NOWORD,DIS,150,mobro,,la,,0.5317,,,,1471.5614,1471.5617,0.881666734,0.495,0,0,0,,0,239,239,411,1,pollo,,,,
,,,,,,,5b84a7ea4f38790001778d53,676192165fb32c2e1fb7aee6,67d193f1fa2f093bcce90207,2025-03-12_15h11.25.568,Tarea de decisión léxica,2024.2.5,Win32,59.88023952,,,,,,,,,,,,,,,,,,,,,,1471.5646,1472.8699,l,1,0.5692,1,1472.8701,1473.3231,,,,,,230,MAS,NOWORD,AGR,150,ador,,el,,0.5692,,,,1473.3232,1473.3235,0.881666734,0.495,0,0,0,,0,240,240,229,1,amor,,,,
,,,,,,,5b84a7ea4f38790001778d53,676192165fb32c2e1fb7aee6,67d193f1fa2f093bcce90207,2025-03-12_15h11.25.568,Tarea de decisión léxica,2024.2.5,Win32,59.88023952,,,,,,,,,,,,,,,,,,,,,,1473.326,1474.4907,l,1,0.4454,1,1474.4909,1474.9717,,,,,,208,MAS,NOWORD,DIS,150,kedo,,la,,0.4454,,,,1474.9718,1474.9722,0.881666734,0.495,0,0,0,,0,241,241,207,1,kilo,,,,
,,,,,,,5b84a7ea4f38790001778d53,676192165fb32c2e1fb7aee6,67d193f1fa2f093bcce90207,2025-03-12_15h11.25.568,Tarea de decisión léxica,2024.2.5,Win32,59.88023952,,,,,,,,,,,,,,,,,,,,,,1474.9746,1476.1614,l,1,0.4364,1,1476.1619,1476.6443,,,,,,362,FEM,NOWORD,AGR,150,solle,,la,,0.4364,,,,1476.6488,1476.6515,0.881666734,0.495,0,0,0,,0,242,242,361,1,torre,,,,
,,,,,,,5b84a7ea4f38790001778d53,676192165fb32c2e1fb7aee6,67d193f1fa2f093bcce90207,2025-03-12_15h11.25.568,Tarea de decisión léxica,2024.2.5,Win32,59.88023952,,,,,,,,,,,,,,,,,,,,,,1476.6532,1477.6479,l,1,0.3182,1,1477.6484,1478.1334,,,,,,384,FEM,NOWORD,DIS,150,brame,,el,,0.3182,,,,1478.1338,1478.1344,0.881666734,0.495,0,0,0,,0,243,243,383,1,frase,,,,
,,,,,,,5b84a7ea4f38790001778d53,676192165fb32c2e1fb7aee6,67d193f1fa2f093bcce90207,2025-03-12_15h11.25.568,Tarea de decisión léxica,2024.2.5,Win32,59.88023952,,,,,,,,,,,,,,,,,,,,,,1478.1425,1479.2322,l,1,0.4087,1,1479.2328,1479.7336,,,,,,176,FEM,NOWORD,DIS,150,hosa,,el,,0.4087,,,,1479.7339,1479.7347,0.881666734,0.495,0,0,0,,0,244,244,175,1,goma,,,,
,,,,,,,5b84a7ea4f38790001778d53,676192165fb32c2e1fb7aee6,67d193f1fa2f093bcce90207,2025-03-12_15h11.25.568,Tarea de decisión léxica,2024.2.5,Win32,59.88023952,,,,,,,,,,,,,,,,,,,,,,1479.7393,1480.8185,a,1,0.3933,1,1480.8193,1481.3172,,,,,,357,FEM,WORD,DIS,150,bruja,,el,,0.3933,,,,1481.3176,1481.3185,0.881666734,0.495,0,0,0,,0,245,245,356,1,gruba,,,,
,,,,,,,5b84a7ea4f38790001778d53,676192165fb32c2e1fb7aee6,67d193f1fa2f093bcce90207,2025-03-12_15h11.25.568,Tarea de decisión léxica,2024.2.5,Win32,59.88023952,,,,,,,,,,,,,,,,,,,,,,1481.3229,1482.388,a,1,0.391,1,1482.3882,1482.884,,,,,,447,MAS,WORD,DIS,150,bolso,,la,,0.391,,,,1482.8841,1482.8846,0.881666734,0.495,0,0,0,,0,246,246,446,1,buaso,,,,
,,,,,,,5b84a7ea4f38790001778d53,676192165fb32c2e1fb7aee6,67d193f1fa2f093bcce90207,2025-03-12_15h11.25.568,Tarea de decisión léxica,2024.2.5,Win32,59.88023952,,,,,,,,,,,,,,,,,,,,,,1482.8884,1484.1434,l,1,0.5752,1,1484.1439,1484.652,,,,,,430,FEM,NOWORD,AGR,150,tenta,,la,,0.5752,,,,1484.6583,1484.6616,0.881666734,0.495,0,0,0,,0,247,247,429,1,tarta,,,,
,,,,,,,5b84a7ea4f38790001778d53,676192165fb32c2e1fb7aee6,67d193f1fa2f093bcce90207,2025-03-12_15h11.25.568,Tarea de decisión léxica,2024.2.5,Win32,59.88023952,,,,,,,,,,,,,,,,,,,,,,1484.6636,1485.7537,a,1,0.408,1,1485.7547,1486.2585,,,,,,247,FEM,WORD,AGR,150,chica,,la,,0.408,,,,1486.2588,1486.26,0.881666734,0.495,0,0,0,,0,248,248,246,1,trida,,,,
,,,,,,,5b84a7ea4f38790001778d53,676192165fb32c2e1fb7aee6,67d193f1fa2f093bcce90207,2025-03-12_15h11.25.568,Tarea de decisión léxica,2024.2.5,Win32,59.88023952,,,,,,,,,,,,,,,,,,,,,,1486.2665,1487.2905,l,1,0.3351,1,1487.2914,1487.7703,,,,,,78,MAS,NOWORD,AGR,150,fodo,,el,,0.3351,,,,1487.7704,1487.7707,0.881666734,0.495,0,0,0,,0,249,249,77,1,loco,,,,
,,,,,,,5b84a7ea4f38790001778d53,676192165fb32c2e1fb7aee6,67d193f1fa2f093bcce90207,2025-03-12_15h11.25.568,Tarea de decisión léxica,2024.2.5,Win32,59.88023952,,,,,,,,,,,,,,,,,,,,,,1487.7732,1489.016,l,1,0.5405,1,1489.0162,1489.4999,,,,,,240,MAS,NOWORD,DIS,150,poño,,la,,0.5405,,,,1489.5,1489.5003,0.881666734,0.495,0,0,0,,0,250,250,239,1,mozo,,,,
,,,,,,,5b84a7ea4f38790001778d53,676192165fb32c2e1fb7aee6,67d193f1fa2f093bcce90207,2025-03-12_15h11.25.568,Tarea de decisión léxica,2024.2.5,Win32,59.88023952,,,,,,,,,,,,,,,,,,,,,,1489.5027,1491.0155,a,1,0.7974,1,1491.0159,1491.5266,,,,,,151,MAS,WORD,DIS,150,tomo,,la,,0.7974,,,,1491.5301,1491.5317,0.881666734,0.495,0,0,0,,0,251,251,150,1,sogo,,,,
,,,,,,,5b84a7ea4f38790001778d53,676192165fb32c2e1fb7aee6,67d193f1fa2f093bcce90207,2025-03-12_15h11.25.568,Tarea de decisión léxica,2024.2.5,Win32,59.88023952,,,,,,,,,,,,,,,,,,,,,,1491.5335,1492.7745,l,1,0.5047,1,1492.7748,1493.2289,,,,,,14,FEM,NOWORD,AGR,150,nola,,la,,0.5047,,,,1493.229,1493.2295,0.881666734,0.495,0,0,0,,0,252,252,13,1,hora,,,,
,,,,,,,5b84a7ea4f38790001778d53,676192165fb32c2e1fb7aee6,67d193f1fa2f093bcce90207,2025-03-12_15h11.25.568,Tarea de decisión léxica,2024.2.5,Win32,59.88023952,,,,,,,,,,,,,,,,,,,,,,1493.2326,1494.529,l,1,0.5781,1,1494.5296,1495.0222,,,,,,456,MAS,NOWORD,DIS,150,riaso,,la,,0.5781,,,,1495.0225,1495.0229,0.881666734,0.495,0,0,0,,0,253,253,455,1,reino,,,,
,,,,,,,5b84a7ea4f38790001778d53,676192165fb32c2e1fb7aee6,67d193f1fa2f093bcce90207,2025-03-12_15h11.25.568,Tarea de decisión léxica,2024.2.5,Win32,59.88023952,,,,,,,,,,,,,,,,,,,,,,1495.0256,1496.0557,a,1,0.3524,1,1496.0559,1496.5385,,,,,,241,MAS,WORD,DIS,150,mundo,,la,,0.3524,,,,1496.5389,1496.5397,0.881666734,0.495,0,0,0,,0,254,254,240,1,mirdo,,,,
,,,,,,,5b84a7ea4f38790001778d53,676192165fb32c2e1fb7aee6,67d193f1fa2f093bcce90207,2025-03-12_15h11.25.568,Tarea de decisión léxica,2024.2.5,Win32,59.88023952,,,,,,,,,,,,,,,,,,,,,,1496.5441,1497.9206,l,1,0.6984,1,1497.9211,1498.4303,,,,,,102,MAS,NOWORD,AGR,150,gito,,el,,0.6984,,,,1498.4305,1498.4311,0.881666734,0.495,0,0,0,,0,255,255,101,1,tono,,,,
,,,,,,,5b84a7ea4f38790001778d53,676192165fb32c2e1fb7aee6,67d193f1fa2f093bcce90207,2025-03-12_15h11.25.568,Tarea de decisión léxica,2024.2.5,Win32,59.88023952,,,,,,,,,,,,,,,,,,,,,,1498.4373,1499.6373,l,1,0.5017,1,1499.6379,1500.1277,,,,,,440,FEM,NOWORD,DIS,150,prema,,el,,0.5017,,,,1500.1318,1500.1348,0.881666734,0.495,0,0,0,,0,256,256,439,1,presa,,,,
,,,,,,,5b84a7ea4f38790001778d53,676192165fb32c2e1fb7aee6,67d193f1fa2f093bcce90207,2025-03-12_15h11.25.568,Tarea de decisión léxica,2024.2.5,Win32,59.88023952,,,,,,,,,,,,,,,,,,,,,,1500.1389,1501.2115,a,1,0.3767,1,1501.2119,1501.6909,,,,,,213,FEM,WORD,DIS,150,rama,,el,,0.3767,,,,1501.6913,1501.6921,0.881666734,0.495,0,0,0,,0,257,257,212,1,bana,,,,
,,,,,,,5b84a7ea4f38790001778d53,676192165fb32c2e1fb7aee6,67d193f1fa2f093bcce90207,2025-03-12_15h11.25.568,Tarea de decisión léxica,2024.2.5,Win32,59.88023952,,,,,,,,,,,,,,,,,,,,,,1501.6978,1502.8674,a,1,0.4793,1,1502.8679,1503.3706,,,,,,223,FEM,WORD,DIS,150,cera,,el,,0.4793,,,,1503.3709,1503.3715,0.881666734,0.495,0,0,0,,0,258,258,222,1,cira,,,,
