counterbalancing_condition,consent_prescreening.block_1/declare_consent,consent_prescreening.block_1/age_years,consent_prescreening.block_1/gender,consent_prescreening.block_1/language_disorder,consent_prescreening.block_1/first_language,PROLIFIC_PID,STUDY_ID,SESSION_ID,date,expName,psychopyVersion,OS,frameRate,check_prescreening_answers.started,check_prescreening_answers.stopped,Instructions.started,Instructions.stopped,instr_done_keyboard.keys,instr_done_keyboard.rt,instr_done_keyboard.duration,instr_done_touch.x,instr_done_touch.y,instr_done_touch.leftButton,instr_done_touch.midButton,instr_done_touch.rightButton,instruction_pages.thisRepN,instruction_pages.thisTrialN,instruction_pages.thisN,instruction_pages.thisIndex,instruction_pages.ran,pageN,phase,instruct_text,has_image,instruct_image,presentTrial.started,presentTrial.stopped,response.keys,response.corr,rt,corr,feedback.started,feedback.stopped,practice_trials.thisRepN,practice_trials.thisTrialN,practice_trials.thisN,practice_trials.thisIndex,practice_trials.ran,TrialID,Gender,StimulusType,Condition,PrimeDuration,Prime,len,Flanker,corrAns,response.rt,response.duration,Break.started,Break.stopped,break_done_touch.x,break_done_touch.y,break_done_touch.leftButton,break_done_touch.midButton,break_done_touch.rightButton,break_done_keyboard.keys,experiment_trials.thisRepN,experiment_trials.thisTrialN,experiment_trials.thisN,experiment_trials.thisIndex,experiment_trials.ran,PairedWith,break_done_keyboard.rt,break_done_keyboard.duration,End.started,End.stopped
0,"[""over_18"",""comfortable"",""read_info"",""consent_given""]",27,F,"[""none""]","[""spanish""]",5b94fffdaa1729000192a770,676192165fb32c2e1fb7aee6,67d1fb5ad7dcbca4f75a9bac,2025-03-12_22h23.56.637,Tarea de decisión léxica,2024.2.5,Win32,59.88023952,,,,,,,,,,,,,,,,,,,,,,,,,,,,,,,,,,,,,,,,,,,,,,,,,,,,,,,,,,,,,,,,
,,,,,,5b94fffdaa1729000192a770,676192165fb32c2e1fb7aee6,67d1fb5ad7dcbca4f75a9bac,2025-03-12_22h23.56.637,Tarea de decisión léxica,2024.2.5,Win32,59.88023952,14.9783,14.9785,,,,,,,,,,,,,,,,,,,,,,,,,,,,,,,,,,,,,,,,,,,,,,,,,,,,,,,,,,,,,,
,,,,,,5b94fffdaa1729000192a770,676192165fb32c2e1fb7aee6,67d1fb5ad7dcbca4f75a9bac,2025-03-12_22h23.56.637,Tarea de decisión léxica,2024.2.5,Win32,59.88023952,,,15.0121,23.2272,space,8.1672,,-0.888888889,0.5,0,0,0,0,0,0,0,1,1,instructions,"INSTRUCCIONES
Va a realizar una prueba de decisión léxica. Desde el comienzo de la prueba mire siempre al centro de la pantalla. Se presentará una serie de cadenas de letras, una a la vez, en la pantalla. Su tarea consiste en determinar si cada cadena de letras constituye una palabra real en español o una no-palabra (una secuencia de letras que no constituye una palabra real). 

Pulse la tecla ESPACIO para continuar.",0,keyboardresponseNW.png,,,,,,,,,,,,,,,,,,,,,,,,,,,,,,,,,,,,,,,,,,
,,,,,,5b94fffdaa1729000192a770,676192165fb32c2e1fb7aee6,67d1fb5ad7dcbca4f75a9bac,2025-03-12_22h23.56.637,Tarea de decisión léxica,2024.2.5,Win32,59.88023952,,,23.2323,29.9805,space,6.7338,,-0.888888889,0.5,0,0,0,0,1,1,1,1,2,instructions,"El procedimiento es el siguiente: Aparecerán dos barras verticales posicionadas en el centro de la pantalla, separadas por un pequeño espacio.Por favor, enfoque su atención en el espacio entre las barras. Esto preparará sus ojos para la siguiente cadena de letras, que aparecerá entre las dos barras durante un instante.

Pulse la tecla ESPACIO para continuar.",0,keyboardresponseNW.png,,,,,,,,,,,,,,,,,,,,,,,,,,,,,,,,,,,,,,,,,,
,,,,,,5b94fffdaa1729000192a770,676192165fb32c2e1fb7aee6,67d1fb5ad7dcbca4f75a9bac,2025-03-12_22h23.56.637,Tarea de decisión léxica,2024.2.5,Win32,59.88023952,,,29.9846,40.5196,space,10.4529,,-0.888888889,0.5,0,0,0,0,2,2,2,1,3,instructions,"En el teclado de su dispositivo, pulse la tecla ""L"" si la cadena de letras es una palabra real en español (por ejemplo: ""mano"") y la tecla ""A"" si la cadena de letras es una no-palabra (por ejemplo: ""minu"").
Pulse la tecla ESPACIO para continuar.",1,keyboardresponseNW.png,,,,,,,,,,,,,,,,,,,,,,,,,,,,,,,,,,,,,,,,,,
,,,,,,5b94fffdaa1729000192a770,676192165fb32c2e1fb7aee6,67d1fb5ad7dcbca4f75a9bac,2025-03-12_22h23.56.637,Tarea de decisión léxica,2024.2.5,Win32,59.88023952,,,40.5246,63.8391,space,23.2941,,-0.888888889,0.5,0,0,0,0,3,3,3,1,4,instructions,"Es muy importante que responda con la mayor rapidez y precisión posibles. Si no responde dentro de 2 segundos, aparecerá el mensaje ""Muy lento"" y el experimento pasará a la siguiente palabra. Inmediatamente después de su respuesta se indicará si fue correcta o no. Los primeros 15 intentos serán de práctica y habrá dos descansos durante la prueba.

Pulse la tecla ESPACIO  para iniciar la parte de práctica.",0,keyboardresponseNW.png,,,,,,,,,,,,,,,,,,,,,,,,,,,,,,,,,,,,,,,,,,
,,,,,,5b94fffdaa1729000192a770,676192165fb32c2e1fb7aee6,67d1fb5ad7dcbca4f75a9bac,2025-03-12_22h23.56.637,Tarea de decisión léxica,2024.2.5,Win32,59.88023952,,,,,,,,,,,,,,,,,,,,,,,63.887,66.525,,0,,-1,66.5255,67.1978,0,0,0,8,1,1009,FEM,WORD,AGR,150,viejo,5,la,l,,,,,,,,,,,,,,,,,,,,
,,,,,,5b94fffdaa1729000192a770,676192165fb32c2e1fb7aee6,67d1fb5ad7dcbca4f75a9bac,2025-03-12_22h23.56.637,Tarea de decisión léxica,2024.2.5,Win32,59.88023952,,,,,,,,,,,,,,,,,,,,,,,67.2007,69.1451,l,1,1.2675,1,69.1765,69.644,0,1,1,5,1,1006,FEM,WORD,AGR,150,cara,4,la,l,1.2675,0.0003,,,,,,,,,,,,,,,,,,
,,,,,,5b94fffdaa1729000192a770,676192165fb32c2e1fb7aee6,67d1fb5ad7dcbca4f75a9bac,2025-03-12_22h23.56.637,Tarea de decisión léxica,2024.2.5,Win32,59.88023952,,,,,,,,,,,,,,,,,,,,,,,69.6474,70.8283,l,1,0.5031,1,70.8284,71.3287,0,2,2,6,1,1007,MAS,WORD,DIS,150,masa,4,la,l,0.5031,,,,,,,,,,,,,,,,,,,
,,,,,,5b94fffdaa1729000192a770,676192165fb32c2e1fb7aee6,67d1fb5ad7dcbca4f75a9bac,2025-03-12_22h23.56.637,Tarea de decisión léxica,2024.2.5,Win32,59.88023952,,,,,,,,,,,,,,,,,,,,,,,71.332,72.6464,l,0,0.6435,0,72.6499,73.1471,0,3,3,0,1,1001,FEM,NOWORD,AGR,150,croz,4,la,a,0.6435,,,,,,,,,,,,,,,,,,,
,,,,,,5b94fffdaa1729000192a770,676192165fb32c2e1fb7aee6,67d1fb5ad7dcbca4f75a9bac,2025-03-12_22h23.56.637,Tarea de decisión léxica,2024.2.5,Win32,59.88023952,,,,,,,,,,,,,,,,,,,,,,,73.151,74.2982,a,1,0.4916,1,74.3011,74.7983,0,4,4,4,1,1005,MAS,NOWORD,DIS,150,nobad,5,la,a,0.4916,,,,,,,,,,,,,,,,,,,
,,,,,,5b94fffdaa1729000192a770,676192165fb32c2e1fb7aee6,67d1fb5ad7dcbca4f75a9bac,2025-03-12_22h23.56.637,Tarea de decisión léxica,2024.2.5,Win32,59.88023952,,,,,,,,,,,,,,,,,,,,,,,74.8011,75.9669,l,1,0.5035,1,75.9674,76.4671,0,5,5,9,1,1010,MAS,WORD,DIS,150,video,5,la,l,0.5035,,,,,,,,,,,,,,,,,,,
,,,,,,5b94fffdaa1729000192a770,676192165fb32c2e1fb7aee6,67d1fb5ad7dcbca4f75a9bac,2025-03-12_22h23.56.637,Tarea de decisión léxica,2024.2.5,Win32,59.88023952,,,,,,,,,,,,,,,,,,,,,,,76.4715,77.4508,l,1,0.3063,1,77.451,77.9509,0,6,6,7,1,1008,MAS,WORD,DIS,150,frío,4,la,l,0.3063,,,,,,,,,,,,,,,,,,,
,,,,,,5b94fffdaa1729000192a770,676192165fb32c2e1fb7aee6,67d1fb5ad7dcbca4f75a9bac,2025-03-12_22h23.56.637,Tarea de decisión léxica,2024.2.5,Win32,59.88023952,,,,,,,,,,,,,,,,,,,,,,,77.9542,79.0852,a,1,0.4604,1,79.0854,79.5858,0,7,7,3,1,1004,FEM,NOWORD,AGR,150,bireo,5,la,a,0.4604,,,,,,,,,,,,,,,,,,,
,,,,,,5b94fffdaa1729000192a770,676192165fb32c2e1fb7aee6,67d1fb5ad7dcbca4f75a9bac,2025-03-12_22h23.56.637,Tarea de decisión léxica,2024.2.5,Win32,59.88023952,,,,,,,,,,,,,,,,,,,,,,,79.5888,80.6867,a,1,0.4263,1,80.6868,81.1873,0,8,8,2,1,1003,FEM,NOWORD,DIS,150,muvor,5,el,a,0.4263,,,,,,,,,,,,,,,,,,,
,,,,,,5b94fffdaa1729000192a770,676192165fb32c2e1fb7aee6,67d1fb5ad7dcbca4f75a9bac,2025-03-12_22h23.56.637,Tarea de decisión léxica,2024.2.5,Win32,59.88023952,,,,,,,,,,,,,,,,,,,,,,,81.1898,82.5049,a,1,0.6375,1,82.5049,83.0053,0,9,9,1,1,1002,FEM,NOWORD,DIS,150,mabo,4,el,a,0.6375,,,,,,,,,,,,,,,,,,,
,,,,,,5b94fffdaa1729000192a770,676192165fb32c2e1fb7aee6,67d1fb5ad7dcbca4f75a9bac,2025-03-12_22h23.56.637,Tarea de decisión léxica,2024.2.5,Win32,59.88023952,,,85.9459,90.5953,space,4.6232,,-0.888888889,0.5,0,0,0,,,,,,,,,,,90.6667,91.8796,a,1,0.5358,1,91.8797,92.3801,,,,,,362,FEM,NOWORD,DIS,150,solle,,el,,0.5358,,92.3812,92.3905,-0.888888889,0.5,0,0,0,,0,0,0,361,1,torre,,,,
,,,,,,5b94fffdaa1729000192a770,676192165fb32c2e1fb7aee6,67d1fb5ad7dcbca4f75a9bac,2025-03-12_22h23.56.637,Tarea de decisión léxica,2024.2.5,Win32,59.88023952,,,,,,,,,,,,,,,,,,,,,,,92.393,93.3976,l,1,0.3438,1,93.3977,93.8981,,,,,,263,FEM,WORD,AGR,150,vista,,la,,0.3438,,93.8982,93.8984,-0.888888889,0.5,0,0,0,,0,1,1,262,1,dosta,,,,
,,,,,,5b94fffdaa1729000192a770,676192165fb32c2e1fb7aee6,67d1fb5ad7dcbca4f75a9bac,2025-03-12_22h23.56.637,Tarea de decisión léxica,2024.2.5,Win32,59.88023952,,,,,,,,,,,,,,,,,,,,,,,93.901,94.999,a,1,0.426,1,94.9991,95.4993,,,,,,222,FEM,NOWORD,DIS,150,puca,,el,,0.426,,95.5025,95.5035,-0.888888889,0.5,0,0,0,,0,2,2,221,1,mula,,,,
,,,,,,5b94fffdaa1729000192a770,676192165fb32c2e1fb7aee6,67d1fb5ad7dcbca4f75a9bac,2025-03-12_22h23.56.637,Tarea de decisión léxica,2024.2.5,Win32,59.88023952,,,,,,,,,,,,,,,,,,,,,,,95.505,96.5671,a,1,0.3857,1,96.5673,97.0675,,,,,,308,MAS,NOWORD,AGR,150,holol,,el,,0.3857,,97.0677,97.0679,-0.888888889,0.5,0,0,0,,0,3,3,307,1,hotel,,,,
,,,,,,5b94fffdaa1729000192a770,676192165fb32c2e1fb7aee6,67d1fb5ad7dcbca4f75a9bac,2025-03-12_22h23.56.637,Tarea de decisión léxica,2024.2.5,Win32,59.88023952,,,,,,,,,,,,,,,,,,,,,,,97.0715,99.0228,l,1,0.7344,1,99.0231,99.5206,,,,,,421,MAS,WORD,DIS,150,primo,,la,,0.7344,,99.5208,99.5211,-0.888888889,0.5,0,0,0,,0,4,4,420,1,griso,,,,
,,,,,,5b94fffdaa1729000192a770,676192165fb32c2e1fb7aee6,67d1fb5ad7dcbca4f75a9bac,2025-03-12_22h23.56.637,Tarea de decisión léxica,2024.2.5,Win32,59.88023952,,,,,,,,,,,,,,,,,,,,,,,99.5225,100.6573,a,1,0.4654,1,100.6573,101.1558,,,,,,200,MAS,NOWORD,AGR,150,fano,,el,,0.4654,,101.1559,101.1562,-0.888888889,0.5,0,0,0,,0,5,5,199,1,lazo,,,,
,,,,,,5b94fffdaa1729000192a770,676192165fb32c2e1fb7aee6,67d1fb5ad7dcbca4f75a9bac,2025-03-12_22h23.56.637,Tarea de decisión léxica,2024.2.5,Win32,59.88023952,,,,,,,,,,,,,,,,,,,,,,,101.158,102.2065,a,1,0.3861,1,102.2068,102.7074,,,,,,50,FEM,NOWORD,DIS,150,ecat,,el,,0.3861,,102.7075,102.7077,-0.888888889,0.5,0,0,0,,0,6,6,49,1,edad,,,,
,,,,,,5b94fffdaa1729000192a770,676192165fb32c2e1fb7aee6,67d1fb5ad7dcbca4f75a9bac,2025-03-12_22h23.56.637,Tarea de decisión léxica,2024.2.5,Win32,59.88023952,,,,,,,,,,,,,,,,,,,,,,,102.7096,103.8066,l,1,0.4349,1,103.8068,104.307,,,,,,477,MAS,WORD,AGR,150,botón,,el,,0.4349,,104.31,104.3109,-0.888888889,0.5,0,0,0,,0,7,7,476,1,hocon,,,,
,,,,,,5b94fffdaa1729000192a770,676192165fb32c2e1fb7aee6,67d1fb5ad7dcbca4f75a9bac,2025-03-12_22h23.56.637,Tarea de decisión léxica,2024.2.5,Win32,59.88023952,,,,,,,,,,,,,,,,,,,,,,,104.3119,105.3583,a,1,0.3801,1,105.3584,105.8583,,,,,,42,FEM,NOWORD,DIS,150,haje,,el,,0.3801,,105.8584,105.8586,-0.888888889,0.5,0,0,0,,0,8,8,41,1,nave,,,,
,,,,,,5b94fffdaa1729000192a770,676192165fb32c2e1fb7aee6,67d1fb5ad7dcbca4f75a9bac,2025-03-12_22h23.56.637,Tarea de decisión léxica,2024.2.5,Win32,59.88023952,,,,,,,,,,,,,,,,,,,,,,,105.8614,107.0926,l,1,0.5638,1,107.0928,107.5959,,,,,,171,MAS,WORD,AGR,150,hilo,,el,,0.5638,,107.596,107.5962,-0.888888889,0.5,0,0,0,,0,9,9,170,1,niro,,,,
,,,,,,5b94fffdaa1729000192a770,676192165fb32c2e1fb7aee6,67d1fb5ad7dcbca4f75a9bac,2025-03-12_22h23.56.637,Tarea de decisión léxica,2024.2.5,Win32,59.88023952,,,,,,,,,,,,,,,,,,,,,,,107.5975,108.7952,l,1,0.5163,1,108.7954,109.2958,,,,,,285,MAS,WORD,DIS,150,error,,la,,0.5163,,109.2959,109.2962,-0.888888889,0.5,0,0,0,,0,10,10,284,1,echor,,,,
,,,,,,5b94fffdaa1729000192a770,676192165fb32c2e1fb7aee6,67d1fb5ad7dcbca4f75a9bac,2025-03-12_22h23.56.637,Tarea de decisión léxica,2024.2.5,Win32,59.88023952,,,,,,,,,,,,,,,,,,,,,,,109.2975,110.5828,l,1,0.6012,1,110.5829,111.081,,,,,,177,MAS,WORD,DIS,150,reto,,la,,0.6012,,111.0826,111.0833,-0.888888889,0.5,0,0,0,,0,11,11,176,1,bito,,,,
,,,,,,5b94fffdaa1729000192a770,676192165fb32c2e1fb7aee6,67d1fb5ad7dcbca4f75a9bac,2025-03-12_22h23.56.637,Tarea de decisión léxica,2024.2.5,Win32,59.88023952,,,,,,,,,,,,,,,,,,,,,,,111.0842,112.1835,a,1,0.4181,1,112.1836,112.6837,,,,,,72,FEM,NOWORD,AGR,150,urla,,la,,0.4181,,112.6838,112.6839,-0.888888889,0.5,0,0,0,,0,12,12,71,1,isla,,,,
,,,,,,5b94fffdaa1729000192a770,676192165fb32c2e1fb7aee6,67d1fb5ad7dcbca4f75a9bac,2025-03-12_22h23.56.637,Tarea de decisión léxica,2024.2.5,Win32,59.88023952,,,,,,,,,,,,,,,,,,,,,,,112.6854,113.8986,a,1,0.5357,1,113.8987,114.3991,,,,,,446,MAS,NOWORD,DIS,150,ascor,,la,,0.5357,,114.3992,114.3993,-0.888888889,0.5,0,0,0,,0,13,13,445,1,actor,,,,
,,,,,,5b94fffdaa1729000192a770,676192165fb32c2e1fb7aee6,67d1fb5ad7dcbca4f75a9bac,2025-03-12_22h23.56.637,Tarea de decisión léxica,2024.2.5,Win32,59.88023952,,,,,,,,,,,,,,,,,,,,,,,114.4013,115.4833,a,1,0.4114,1,115.4835,115.9838,,,,,,270,MAS,NOWORD,DIS,150,mello,,la,,0.4114,,115.9839,115.984,-0.888888889,0.5,0,0,0,,0,14,14,269,1,perro,,,,
,,,,,,5b94fffdaa1729000192a770,676192165fb32c2e1fb7aee6,67d1fb5ad7dcbca4f75a9bac,2025-03-12_22h23.56.637,Tarea de decisión léxica,2024.2.5,Win32,59.88023952,,,,,,,,,,,,,,,,,,,,,,,115.9867,117.0346,l,1,0.3789,1,117.0348,117.5352,,,,,,61,FEM,WORD,DIS,150,obra,,el,,0.3789,,117.5352,117.5355,-0.888888889,0.5,0,0,0,,0,15,15,60,1,efla,,,,
,,,,,,5b94fffdaa1729000192a770,676192165fb32c2e1fb7aee6,67d1fb5ad7dcbca4f75a9bac,2025-03-12_22h23.56.637,Tarea de decisión léxica,2024.2.5,Win32,59.88023952,,,,,,,,,,,,,,,,,,,,,,,117.5381,118.7027,a,1,0.4893,1,118.7028,119.203,,,,,,24,FEM,NOWORD,AGR,150,giva,,la,,0.4893,,119.2055,119.2062,-0.888888889,0.5,0,0,0,,0,16,16,23,1,hija,,,,
,,,,,,5b94fffdaa1729000192a770,676192165fb32c2e1fb7aee6,67d1fb5ad7dcbca4f75a9bac,2025-03-12_22h23.56.637,Tarea de decisión léxica,2024.2.5,Win32,59.88023952,,,,,,,,,,,,,,,,,,,,,,,119.2072,120.3206,l,1,0.4467,1,120.3207,120.8212,,,,,,207,MAS,WORD,AGR,150,kilo,,el,,0.4467,,120.8213,120.8214,-0.888888889,0.5,0,0,0,,0,17,17,206,1,kedo,,,,
,,,,,,5b94fffdaa1729000192a770,676192165fb32c2e1fb7aee6,67d1fb5ad7dcbca4f75a9bac,2025-03-12_22h23.56.637,Tarea de decisión léxica,2024.2.5,Win32,59.88023952,,,,,,,,,,,,,,,,,,,,,,,120.8235,121.8218,l,1,0.3194,1,121.8221,122.3224,,,,,,387,FEM,WORD,DIS,150,crema,,el,,0.3194,,122.3226,122.3226,-0.888888889,0.5,0,0,0,,0,18,18,386,1,bresa,,,,
,,,,,,5b94fffdaa1729000192a770,676192165fb32c2e1fb7aee6,67d1fb5ad7dcbca4f75a9bac,2025-03-12_22h23.56.637,Tarea de decisión léxica,2024.2.5,Win32,59.88023952,,,,,,,,,,,,,,,,,,,,,,,122.3244,123.7748,l,1,0.7685,1,123.775,124.2741,,,,,,115,FEM,WORD,DIS,150,pata,,el,,0.7685,,124.2741,124.2743,-0.888888889,0.5,0,0,0,,0,19,19,114,1,haca,,,,
,,,,,,5b94fffdaa1729000192a770,676192165fb32c2e1fb7aee6,67d1fb5ad7dcbca4f75a9bac,2025-03-12_22h23.56.637,Tarea de decisión léxica,2024.2.5,Win32,59.88023952,,,,,,,,,,,,,,,,,,,,,,,124.2764,125.859,a,1,0.9139,1,125.8591,126.3595,,,,,,122,MAS,NOWORD,DIS,150,bomo,,la,,0.9139,,126.3596,126.3598,-0.888888889,0.5,0,0,0,,0,20,20,121,1,hoyo,,,,
,,,,,,5b94fffdaa1729000192a770,676192165fb32c2e1fb7aee6,67d1fb5ad7dcbca4f75a9bac,2025-03-12_22h23.56.637,Tarea de decisión léxica,2024.2.5,Win32,59.88023952,,,,,,,,,,,,,,,,,,,,,,,126.3625,127.5271,a,1,0.4892,1,127.5272,128.0274,,,,,,236,FEM,NOWORD,AGR,150,tria,,la,,0.4892,,128.0304,128.0319,-0.888888889,0.5,0,0,0,,0,21,21,235,1,grúa,,,,
,,,,,,5b94fffdaa1729000192a770,676192165fb32c2e1fb7aee6,67d1fb5ad7dcbca4f75a9bac,2025-03-12_22h23.56.637,Tarea de decisión léxica,2024.2.5,Win32,59.88023952,,,,,,,,,,,,,,,,,,,,,,,128.0328,129.1283,a,1,0.4218,1,129.1284,129.6287,,,,,,296,MAS,NOWORD,AGR,150,goler,,el,,0.4218,,129.6288,129.6289,-0.888888889,0.5,0,0,0,,0,22,22,295,1,dolor,,,,
,,,,,,5b94fffdaa1729000192a770,676192165fb32c2e1fb7aee6,67d1fb5ad7dcbca4f75a9bac,2025-03-12_22h23.56.637,Tarea de decisión léxica,2024.2.5,Win32,59.88023952,,,,,,,,,,,,,,,,,,,,,,,129.6309,130.6963,a,1,0.3845,1,130.6964,131.1968,,,,,,396,FEM,NOWORD,AGR,150,paeda,,la,,0.3845,,131.1968,131.1969,-0.888888889,0.5,0,0,0,,0,23,23,395,1,caída,,,,
,,,,,,5b94fffdaa1729000192a770,676192165fb32c2e1fb7aee6,67d1fb5ad7dcbca4f75a9bac,2025-03-12_22h23.56.637,Tarea de decisión léxica,2024.2.5,Win32,59.88023952,,,,,,,,,,,,,,,,,,,,,,,131.1995,132.4411,l,1,0.5725,1,132.4412,133.3185,,,,,,293,MAS,WORD,AGR,150,campo,,el,,0.5725,0.0009,133.3185,133.3187,-0.888888889,0.5,0,0,0,,0,24,24,292,1,cacso,,,,
,,,,,,5b94fffdaa1729000192a770,676192165fb32c2e1fb7aee6,67d1fb5ad7dcbca4f75a9bac,2025-03-12_22h23.56.637,Tarea de decisión léxica,2024.2.5,Win32,59.88023952,,,,,,,,,,,,,,,,,,,,,,,133.3211,134.4509,l,1,0.4494,1,134.4511,134.953,,,,,,315,FEM,WORD,DIS,150,reina,,el,,0.4494,,134.953,134.953,-0.888888889,0.5,0,0,0,,0,25,25,314,1,riosa,,,,
,,,,,,5b94fffdaa1729000192a770,676192165fb32c2e1fb7aee6,67d1fb5ad7dcbca4f75a9bac,2025-03-12_22h23.56.637,Tarea de decisión léxica,2024.2.5,Win32,59.88023952,,,,,,,,,,,,,,,,,,,,,,,134.9544,136.0703,a,1,0.4488,1,136.0704,136.5709,,,,,,340,MAS,NOWORD,AGR,150,plajo,,el,,0.4488,,136.5726,136.5733,-0.888888889,0.5,0,0,0,,0,26,26,339,1,brazo,,,,
,,,,,,5b94fffdaa1729000192a770,676192165fb32c2e1fb7aee6,67d1fb5ad7dcbca4f75a9bac,2025-03-12_22h23.56.637,Tarea de decisión léxica,2024.2.5,Win32,59.88023952,,,,,,,,,,,,,,,,,,,,,,,136.5743,137.8551,l,1,0.6139,1,137.8552,138.3562,,,,,,17,FEM,WORD,DIS,150,mamá,,el,,0.6139,,138.3563,138.3563,-0.888888889,0.5,0,0,0,,0,27,27,16,1,paba,,,,
,,,,,,5b94fffdaa1729000192a770,676192165fb32c2e1fb7aee6,67d1fb5ad7dcbca4f75a9bac,2025-03-12_22h23.56.637,Tarea de decisión léxica,2024.2.5,Win32,59.88023952,,,,,,,,,,,,,,,,,,,,,,,138.3574,139.5046,l,1,0.4684,1,139.5051,140.0054,,,,,,381,MAS,WORD,DIS,150,humor,,la,,0.4684,,140.0057,140.0058,-0.888888889,0.5,0,0,0,,0,28,28,380,1,nusor,,,,
,,,,,,5b94fffdaa1729000192a770,676192165fb32c2e1fb7aee6,67d1fb5ad7dcbca4f75a9bac,2025-03-12_22h23.56.637,Tarea de decisión léxica,2024.2.5,Win32,59.88023952,,,,,,,,,,,,,,,,,,,,,,,140.0069,141.0925,l,1,0.415,1,141.0926,141.59,,,,,,5,FEM,WORD,AGR,150,cosa,,la,,0.415,,141.5902,141.5905,-0.888888889,0.5,0,0,0,,0,29,29,4,1,poga,,,,
,,,,,,5b94fffdaa1729000192a770,676192165fb32c2e1fb7aee6,67d1fb5ad7dcbca4f75a9bac,2025-03-12_22h23.56.637,Tarea de decisión léxica,2024.2.5,Win32,59.88023952,,,,,,,,,,,,,,,,,,,,,,,141.5916,142.7075,l,1,0.4188,1,142.708,143.2083,,,,,,193,FEM,WORD,AGR,150,loca,,la,,0.4188,,143.2083,143.2084,-0.888888889,0.5,0,0,0,,0,30,30,192,1,foda,,,,
,,,,,,5b94fffdaa1729000192a770,676192165fb32c2e1fb7aee6,67d1fb5ad7dcbca4f75a9bac,2025-03-12_22h23.56.637,Tarea de decisión léxica,2024.2.5,Win32,59.88023952,,,,,,,,,,,,,,,,,,,,,,,143.2101,144.2611,l,1,0.3819,1,144.2612,144.7593,,,,,,251,MAS,WORD,AGR,150,señor,,el,,0.3819,,144.7616,144.7625,-0.888888889,0.5,0,0,0,,0,31,31,250,1,refor,,,,
,,,,,,5b94fffdaa1729000192a770,676192165fb32c2e1fb7aee6,67d1fb5ad7dcbca4f75a9bac,2025-03-12_22h23.56.637,Tarea de decisión léxica,2024.2.5,Win32,59.88023952,,,,,,,,,,,,,,,,,,,,,,,144.7634,145.7458,l,1,0.3164,1,145.7459,146.2458,,,,,,451,FEM,WORD,AGR,150,fruta,,la,,0.3164,,146.2459,146.246,-0.888888889,0.5,0,0,0,,0,32,32,450,1,clita,,,,
,,,,,,5b94fffdaa1729000192a770,676192165fb32c2e1fb7aee6,67d1fb5ad7dcbca4f75a9bac,2025-03-12_22h23.56.637,Tarea de decisión léxica,2024.2.5,Win32,59.88023952,,,,,,,,,,,,,,,,,,,,,,,146.2474,147.2115,l,1,0.2912,1,147.2118,147.7121,,,,,,377,MAS,WORD,DIS,150,hielo,,la,,0.2912,,147.7121,147.7123,-0.888888889,0.5,0,0,0,,0,33,33,376,1,gaulo,,,,
,,,,,,5b94fffdaa1729000192a770,676192165fb32c2e1fb7aee6,67d1fb5ad7dcbca4f75a9bac,2025-03-12_22h23.56.637,Tarea de decisión léxica,2024.2.5,Win32,59.88023952,,,,,,,,,,,,,,,,,,,,,,,147.7137,148.6792,l,1,0.2861,1,148.6795,149.1803,,,,,,75,MAS,WORD,DIS,150,olor,,la,,0.2861,,149.1803,149.1805,-0.888888889,0.5,0,0,0,,0,34,34,74,1,ocer,,,,
,,,,,,5b94fffdaa1729000192a770,676192165fb32c2e1fb7aee6,67d1fb5ad7dcbca4f75a9bac,2025-03-12_22h23.56.637,Tarea de decisión léxica,2024.2.5,Win32,59.88023952,,,,,,,,,,,,,,,,,,,,,,,149.1819,150.1471,l,1,0.3083,1,150.1477,150.6482,,,,,,27,MAS,WORD,DIS,150,baño,,la,,0.3083,,150.65,150.6507,-0.888888889,0.5,0,0,0,,0,35,35,26,1,ravo,,,,
,,,,,,5b94fffdaa1729000192a770,676192165fb32c2e1fb7aee6,67d1fb5ad7dcbca4f75a9bac,2025-03-12_22h23.56.637,Tarea de decisión léxica,2024.2.5,Win32,59.88023952,,,,,,,,,,,,,,,,,,,,,,,150.6516,151.6181,l,1,0.2844,1,151.6182,152.1197,,,,,,321,MAS,WORD,DIS,150,banco,,la,,0.2844,,152.1197,152.1199,-0.888888889,0.5,0,0,0,,0,36,36,320,1,rarco,,,,
,,,,,,5b94fffdaa1729000192a770,676192165fb32c2e1fb7aee6,67d1fb5ad7dcbca4f75a9bac,2025-03-12_22h23.56.637,Tarea de decisión léxica,2024.2.5,Win32,59.88023952,,,,,,,,,,,,,,,,,,,,,,,152.1214,153.1169,l,1,0.3055,1,153.117,153.617,,,,,,237,MAS,WORD,AGR,150,nudo,,el,,0.3055,,153.6172,153.6174,-0.888888889,0.5,0,0,0,,0,37,37,236,1,huco,,,,
,,,,,,5b94fffdaa1729000192a770,676192165fb32c2e1fb7aee6,67d1fb5ad7dcbca4f75a9bac,2025-03-12_22h23.56.637,Tarea de decisión léxica,2024.2.5,Win32,59.88023952,,,,,,,,,,,,,,,,,,,,,,,153.6188,154.5866,l,1,0.2999,1,154.5867,155.0851,,,,,,399,MAS,WORD,AGR,150,techo,,el,,0.2999,,155.0852,155.0853,-0.888888889,0.5,0,0,0,,0,38,38,398,1,serro,,,,
,,,,,,5b94fffdaa1729000192a770,676192165fb32c2e1fb7aee6,67d1fb5ad7dcbca4f75a9bac,2025-03-12_22h23.56.637,Tarea de decisión léxica,2024.2.5,Win32,59.88023952,,,,,,,,,,,,,,,,,,,,,,,155.0868,156.2219,l,0,0.4666,0,156.2229,156.7198,,,,,,60,FEM,NOWORD,AGR,150,tafa,,la,,0.4666,,156.7201,156.7202,-0.888888889,0.5,0,0,0,,0,39,39,59,1,sala,,,,
,,,,,,5b94fffdaa1729000192a770,676192165fb32c2e1fb7aee6,67d1fb5ad7dcbca4f75a9bac,2025-03-12_22h23.56.637,Tarea de decisión léxica,2024.2.5,Win32,59.88023952,,,,,,,,,,,,,,,,,,,,,,,156.7215,157.8723,a,1,0.4976,1,157.8732,158.3714,,,,,,34,FEM,NOWORD,DIS,150,loda,,el,,0.4976,,158.3741,158.3749,-0.888888889,0.5,0,0,0,,0,40,40,33,1,boca,,,,
,,,,,,5b94fffdaa1729000192a770,676192165fb32c2e1fb7aee6,67d1fb5ad7dcbca4f75a9bac,2025-03-12_22h23.56.637,Tarea de decisión léxica,2024.2.5,Win32,59.88023952,,,,,,,,,,,,,,,,,,,,,,,158.3759,159.3409,l,1,0.2843,1,159.341,159.839,,,,,,33,FEM,WORD,DIS,150,boca,,el,,0.2843,,159.8391,159.8394,-0.888888889,0.5,0,0,0,,0,41,41,32,1,loda,,,,
,,,,,,5b94fffdaa1729000192a770,676192165fb32c2e1fb7aee6,67d1fb5ad7dcbca4f75a9bac,2025-03-12_22h23.56.637,Tarea de decisión léxica,2024.2.5,Win32,59.88023952,,,,,,,,,,,,,,,,,,,,,,,159.8409,161.1253,a,1,0.6156,1,161.1254,161.6241,,,,,,180,MAS,NOWORD,AGR,150,sono,,el,,0.6156,,161.6242,161.6244,-0.888888889,0.5,0,0,0,,0,42,42,179,1,toro,,,,
,,,,,,5b94fffdaa1729000192a770,676192165fb32c2e1fb7aee6,67d1fb5ad7dcbca4f75a9bac,2025-03-12_22h23.56.637,Tarea de decisión léxica,2024.2.5,Win32,59.88023952,,,,,,,,,,,,,,,,,,,,,,,161.6257,162.7746,a,1,0.4744,1,162.775,163.2767,,,,,,460,MAS,NOWORD,AGR,150,fraco,,el,,0.4744,,163.2768,163.2769,-0.888888889,0.5,0,0,0,,0,43,43,459,1,grado,,,,
,,,,,,5b94fffdaa1729000192a770,676192165fb32c2e1fb7aee6,67d1fb5ad7dcbca4f75a9bac,2025-03-12_22h23.56.637,Tarea de decisión léxica,2024.2.5,Win32,59.88023952,,,,,,,,,,,,,,,,,,,,,,,163.2784,164.3791,a,1,0.4325,1,164.3793,164.8769,,,,,,194,FEM,NOWORD,DIS,150,foda,,el,,0.4325,,164.877,164.8774,-0.888888889,0.5,0,0,0,,0,44,44,193,1,loca,,,,
,,,,,,5b94fffdaa1729000192a770,676192165fb32c2e1fb7aee6,67d1fb5ad7dcbca4f75a9bac,2025-03-12_22h23.56.637,Tarea de decisión léxica,2024.2.5,Win32,59.88023952,,,,,,,,,,,,,,,,,,,,,,,164.8791,165.9298,a,1,0.3971,1,165.9299,166.4281,,,,,,38,MAS,NOWORD,DIS,150,gaco,,la,,0.3971,,166.4298,166.4304,-0.888888889,0.5,0,0,0,,0,45,45,37,1,rato,,,,
,,,,,,5b94fffdaa1729000192a770,676192165fb32c2e1fb7aee6,67d1fb5ad7dcbca4f75a9bac,2025-03-12_22h23.56.637,Tarea de decisión léxica,2024.2.5,Win32,59.88023952,,,,,,,,,,,,,,,,,,,,,,,166.4312,167.5122,l,1,0.393,1,167.5124,168.0126,,,,,,427,FEM,WORD,AGR,150,oreja,,la,,0.393,,168.0127,168.0129,-0.888888889,0.5,0,0,0,,0,46,46,426,1,oseva,,,,
,,,,,,5b94fffdaa1729000192a770,676192165fb32c2e1fb7aee6,67d1fb5ad7dcbca4f75a9bac,2025-03-12_22h23.56.637,Tarea de decisión léxica,2024.2.5,Win32,59.88023952,,,,,,,,,,,,,,,,,,,,,,,168.0142,169.0494,l,1,0.382,1,169.0496,169.5473,,,,,,395,FEM,WORD,DIS,150,caída,,el,,0.382,,169.5475,169.5477,-0.888888889,0.5,0,0,0,,0,47,47,394,1,paeda,,,,
,,,,,,5b94fffdaa1729000192a770,676192165fb32c2e1fb7aee6,67d1fb5ad7dcbca4f75a9bac,2025-03-12_22h23.56.637,Tarea de decisión léxica,2024.2.5,Win32,59.88023952,,,,,,,,,,,,,,,,,,,,,,,169.5493,170.6984,a,1,0.4929,1,170.6986,171.1994,,,,,,366,FEM,NOWORD,DIS,150,gulla,,el,,0.4929,,171.1995,171.1997,-0.888888889,0.5,0,0,0,,0,48,48,365,1,ducha,,,,
,,,,,,5b94fffdaa1729000192a770,676192165fb32c2e1fb7aee6,67d1fb5ad7dcbca4f75a9bac,2025-03-12_22h23.56.637,Tarea de decisión léxica,2024.2.5,Win32,59.88023952,,,,,,,,,,,,,,,,,,,,,,,171.201,172.2835,l,1,0.4124,1,172.2837,172.7838,,,,,,123,FEM,WORD,AGR,150,flor,,la,,0.4124,,172.784,172.7841,-0.888888889,0.5,0,0,0,,0,49,49,122,1,maba,,,,
,,,,,,5b94fffdaa1729000192a770,676192165fb32c2e1fb7aee6,67d1fb5ad7dcbca4f75a9bac,2025-03-12_22h23.56.637,Tarea de decisión léxica,2024.2.5,Win32,59.88023952,,,,,,,,,,,,,,,,,,,,,,,172.7857,173.9844,l,1,0.5172,1,173.9848,174.4871,,,,,,45,FEM,WORD,AGR,150,mesa,,la,,0.5172,,174.4898,174.4911,-0.888888889,0.5,0,0,0,,0,50,50,44,1,pema,,,,
,,,,,,5b94fffdaa1729000192a770,676192165fb32c2e1fb7aee6,67d1fb5ad7dcbca4f75a9bac,2025-03-12_22h23.56.637,Tarea de decisión léxica,2024.2.5,Win32,59.88023952,,,,,,,,,,,,,,,,,,,,,,,174.4922,175.6032,a,1,0.4398,1,175.6033,176.1049,,,,,,4,FEM,NOWORD,AGR,150,dica,,la,,0.4398,,176.105,176.1052,-0.888888889,0.5,0,0,0,,0,51,51,3,1,vida,,,,
,,,,,,5b94fffdaa1729000192a770,676192165fb32c2e1fb7aee6,67d1fb5ad7dcbca4f75a9bac,2025-03-12_22h23.56.637,Tarea de decisión léxica,2024.2.5,Win32,59.88023952,,,,,,,,,,,,,,,,,,,,,,,176.1066,177.4728,l,1,0.7001,1,177.4728,177.9715,,,,,,265,FEM,WORD,DIS,150,mitad,,el,,0.7001,,177.9715,177.9717,-0.888888889,0.5,0,0,0,,0,52,52,264,1,pitat,,,,
,,,,,,5b94fffdaa1729000192a770,676192165fb32c2e1fb7aee6,67d1fb5ad7dcbca4f75a9bac,2025-03-12_22h23.56.637,Tarea de decisión léxica,2024.2.5,Win32,59.88023952,,,,,,,,,,,,,,,,,,,,,,,177.9729,179.0723,a,1,0.4272,1,179.0725,179.5728,,,,,,158,MAS,NOWORD,DIS,150,hico,,la,,0.4272,,179.5728,179.573,-0.888888889,0.5,0,0,0,,0,53,53,157,1,nido,,,,
,,,,,,5b94fffdaa1729000192a770,676192165fb32c2e1fb7aee6,67d1fb5ad7dcbca4f75a9bac,2025-03-12_22h23.56.637,Tarea de decisión léxica,2024.2.5,Win32,59.88023952,,,,,,,,,,,,,,,,,,,,,,,179.5743,180.8579,l,1,0.6311,1,180.8581,181.3572,,,,,,85,MAS,WORD,DIS,150,lago,,la,,0.6311,,181.3576,181.3577,-0.888888889,0.5,0,0,0,,0,54,54,84,1,babo,,,,
,,,,,,5b94fffdaa1729000192a770,676192165fb32c2e1fb7aee6,67d1fb5ad7dcbca4f75a9bac,2025-03-12_22h23.56.637,Tarea de decisión léxica,2024.2.5,Win32,59.88023952,,,,,,,,,,,,,,,,,,,,,,,181.359,182.5771,l,1,0.5652,1,182.5772,183.0756,,,,,,303,MAS,WORD,DIS,150,barco,,la,,0.5652,,183.0773,183.0781,-0.888888889,0.5,0,0,0,,0,55,55,302,1,lanco,,,,
,,,,,,5b94fffdaa1729000192a770,676192165fb32c2e1fb7aee6,67d1fb5ad7dcbca4f75a9bac,2025-03-12_22h23.56.637,Tarea de decisión léxica,2024.2.5,Win32,59.88023952,,,,,,,,,,,,,,,,,,,,,,,183.0789,184.1625,l,1,0.401,1,184.1627,184.6608,,,,,,301,FEM,WORD,DIS,150,banda,,el,,0.401,,184.6609,184.661,-0.888888889,0.5,0,0,0,,0,56,56,300,1,ranga,,,,
,,,,,,5b94fffdaa1729000192a770,676192165fb32c2e1fb7aee6,67d1fb5ad7dcbca4f75a9bac,2025-03-12_22h23.56.637,Tarea de decisión léxica,2024.2.5,Win32,59.88023952,,,,,,,,,,,,,,,,,,,,,,,184.6629,185.7277,l,1,0.3754,1,185.7281,186.2283,,,,,,367,MAS,WORD,DIS,150,reloj,,la,,0.3754,,186.2284,186.2285,-0.888888889,0.5,0,0,0,,0,57,57,366,1,rerob,,,,
,,,,,,5b94fffdaa1729000192a770,676192165fb32c2e1fb7aee6,67d1fb5ad7dcbca4f75a9bac,2025-03-12_22h23.56.637,Tarea de decisión léxica,2024.2.5,Win32,59.88023952,,,,,,,,,,,,,,,,,,,,,,,186.23,187.2964,a,1,0.385,1,187.2965,187.7975,,,,,,272,FEM,NOWORD,AGR,150,refal,,la,,0.385,,187.7975,187.7976,-0.888888889,0.5,0,0,0,,0,58,58,271,1,señal,,,,
,,,,,,5b94fffdaa1729000192a770,676192165fb32c2e1fb7aee6,67d1fb5ad7dcbca4f75a9bac,2025-03-12_22h23.56.637,Tarea de decisión léxica,2024.2.5,Win32,59.88023952,,,,,,,,,,,,,,,,,,,,,,,187.7989,188.8994,a,1,0.4482,1,188.8994,189.3994,,,,,,288,FEM,NOWORD,AGR,150,fosta,,la,,0.4482,,189.4011,189.4017,-0.888888889,0.5,0,0,0,,0,59,59,287,1,lista,,,,
,,,,,,5b94fffdaa1729000192a770,676192165fb32c2e1fb7aee6,67d1fb5ad7dcbca4f75a9bac,2025-03-12_22h23.56.637,Tarea de decisión léxica,2024.2.5,Win32,59.88023952,,,,,,,,,,,,,,,,,,,,,,,189.4026,190.499,l,1,0.4265,1,190.4992,191.0001,,,,,,161,MAS,WORD,AGR,150,coro,,el,,0.4265,,191.0002,191.0004,-0.888888889,0.5,0,0,0,,0,60,60,160,1,bopo,,,,
,,,,,,5b94fffdaa1729000192a770,676192165fb32c2e1fb7aee6,67d1fb5ad7dcbca4f75a9bac,2025-03-12_22h23.56.637,Tarea de decisión léxica,2024.2.5,Win32,59.88023952,,,,,,,,,,,,,,,,,,,,,,,191.0015,192.3193,a,1,0.6481,1,192.3193,192.8189,,,,,,440,FEM,NOWORD,AGR,150,prema,,la,,0.6481,,192.819,192.8191,-0.888888889,0.5,0,0,0,,0,61,61,439,1,presa,,,,
,,,,,,5b94fffdaa1729000192a770,676192165fb32c2e1fb7aee6,67d1fb5ad7dcbca4f75a9bac,2025-03-12_22h23.56.637,Tarea de decisión léxica,2024.2.5,Win32,59.88023952,,,,,,,,,,,,,,,,,,,,,,,192.8209,193.9183,l,1,0.4049,1,193.9188,194.4196,,,,,,139,MAS,WORD,AGR,150,mago,,el,,0.4049,,194.4199,194.4202,-0.888888889,0.5,0,0,0,,0,62,62,138,1,nila,,,,
,,,,,,5b94fffdaa1729000192a770,676192165fb32c2e1fb7aee6,67d1fb5ad7dcbca4f75a9bac,2025-03-12_22h23.56.637,Tarea de decisión léxica,2024.2.5,Win32,59.88023952,,,,,,,,,,,,,,,,,,,,,,,194.422,195.4386,l,1,0.365,1,195.4387,195.9367,,,,,,359,MAS,WORD,AGR,150,calor,,el,,0.365,,195.9369,195.9371,-0.888888889,0.5,0,0,0,,0,63,63,358,1,cacer,,,,
,,,,,,5b94fffdaa1729000192a770,676192165fb32c2e1fb7aee6,67d1fb5ad7dcbca4f75a9bac,2025-03-12_22h23.56.637,Tarea de decisión léxica,2024.2.5,Win32,59.88023952,,,,,,,,,,,,,,,,,,,,,,,195.9388,197.0545,a,1,0.4364,1,197.0547,197.5547,,,,,,48,MAS,NOWORD,AGR,150,chub,,el,,0.4364,,197.5567,197.5581,-0.888888889,0.5,0,0,0,,0,64,64,47,1,club,,,,
,,,,,,5b94fffdaa1729000192a770,676192165fb32c2e1fb7aee6,67d1fb5ad7dcbca4f75a9bac,2025-03-12_22h23.56.637,Tarea de decisión léxica,2024.2.5,Win32,59.88023952,,,,,,,,,,,,,,,,,,,,,,,197.5592,198.6246,a,1,0.3989,1,198.6247,199.123,,,,,,98,MAS,NOWORD,DIS,150,fopo,,la,,0.3989,,199.1231,199.1232,-0.888888889,0.5,0,0,0,,0,65,65,97,1,mono,,,,
,,,,,,5b94fffdaa1729000192a770,676192165fb32c2e1fb7aee6,67d1fb5ad7dcbca4f75a9bac,2025-03-12_22h23.56.637,Tarea de decisión léxica,2024.2.5,Win32,59.88023952,,,,,,,,,,,,,,,,,,,,,,,199.1249,200.3237,a,1,0.5252,1,200.324,200.8246,,,,,,96,FEM,NOWORD,AGR,151,neda,,la,,0.5252,,200.8246,200.8248,-0.888888889,0.5,0,0,0,,0,66,66,95,1,moda,,,,
,,,,,,5b94fffdaa1729000192a770,676192165fb32c2e1fb7aee6,67d1fb5ad7dcbca4f75a9bac,2025-03-12_22h23.56.637,Tarea de decisión léxica,2024.2.5,Win32,59.88023952,,,,,,,,,,,,,,,,,,,,,,,200.8264,201.8586,l,0,0.337,0,201.8601,202.361,,,,,,28,MAS,NOWORD,AGR,150,ravo,,el,,0.337,,202.3611,202.3613,-0.888888889,0.5,0,0,0,,0,67,67,27,1,baño,,,,
,,,,,,5b94fffdaa1729000192a770,676192165fb32c2e1fb7aee6,67d1fb5ad7dcbca4f75a9bac,2025-03-12_22h23.56.637,Tarea de decisión léxica,2024.2.5,Win32,59.88023952,,,,,,,,,,,,,,,,,,,,,,,202.3631,203.4113,l,1,0.3828,1,203.4123,203.9111,,,,,,355,FEM,WORD,DIS,150,regla,,el,,0.3828,,203.9111,203.9113,-0.888888889,0.5,0,0,0,,0,68,68,354,1,bepla,,,,
,,,,,,5b94fffdaa1729000192a770,676192165fb32c2e1fb7aee6,67d1fb5ad7dcbca4f75a9bac,2025-03-12_22h23.56.637,Tarea de decisión léxica,2024.2.5,Win32,59.88023952,,,,,,,,,,,,,,,,,,,,,,,203.9125,204.9797,l,1,0.3844,1,204.9797,205.4784,,,,,,65,MAS,WORD,DIS,150,dios,,la,,0.3844,,205.4806,205.4818,-0.888888889,0.5,0,0,0,,0,69,69,64,1,nios,,,,
,,,,,,5b94fffdaa1729000192a770,676192165fb32c2e1fb7aee6,67d1fb5ad7dcbca4f75a9bac,2025-03-12_22h23.56.637,Tarea de decisión léxica,2024.2.5,Win32,59.88023952,,,,,,,,,,,,,,,,,,,,,,,205.483,206.6146,a,1,0.4508,1,206.6148,207.1134,,,,,,428,FEM,NOWORD,AGR,150,oseva,,la,,0.4508,,207.1135,207.1137,-0.888888889,0.5,0,0,0,,0,70,70,427,1,oreja,,,,
,,,,,,5b94fffdaa1729000192a770,676192165fb32c2e1fb7aee6,67d1fb5ad7dcbca4f75a9bac,2025-03-12_22h23.56.637,Tarea de decisión léxica,2024.2.5,Win32,59.88023952,,,,,,,,,,,,,,,,,,,,,,,207.1152,208.1835,a,1,0.3849,1,208.1837,208.6821,,,,,,126,MAS,NOWORD,DIS,150,vudo,,la,,0.3849,,208.6822,208.6824,-0.888888889,0.5,0,0,0,,0,71,71,125,1,lujo,,,,
,,,,,,5b94fffdaa1729000192a770,676192165fb32c2e1fb7aee6,67d1fb5ad7dcbca4f75a9bac,2025-03-12_22h23.56.637,Tarea de decisión léxica,2024.2.5,Win32,59.88023952,,,,,,,,,,,,,,,,,,,,,,,208.6842,209.8013,a,1,0.449,1,209.8018,210.2989,,,,,,68,FEM,NOWORD,AGR,150,gesa,,la,,0.449,,210.2991,210.2994,-0.888888889,0.5,0,0,0,,0,72,72,67,1,nena,,,,
,,,,,,5b94fffdaa1729000192a770,676192165fb32c2e1fb7aee6,67d1fb5ad7dcbca4f75a9bac,2025-03-12_22h23.56.637,Tarea de decisión léxica,2024.2.5,Win32,59.88023952,,,,,,,,,,,,,,,,,,,,,,,210.3009,211.3167,l,1,0.3366,1,211.3169,211.8176,,,,,,113,FEM,WORD,AGR,150,miel,,la,,0.3366,,211.8176,211.8178,-0.888888889,0.5,0,0,0,,0,73,73,112,1,tada,,,,
,,,,,,5b94fffdaa1729000192a770,676192165fb32c2e1fb7aee6,67d1fb5ad7dcbca4f75a9bac,2025-03-12_22h23.56.637,Tarea de decisión léxica,2024.2.5,Win32,59.88023952,,,,,,,,,,,,,,,,,,,,,,,211.8196,212.8702,a,1,0.383,1,212.8703,213.3687,,,,,,232,FEM,NOWORD,AGR,150,heta,,la,,0.383,,213.3704,213.3712,-0.888888889,0.5,0,0,0,,0,74,74,231,1,bota,,,,
,,,,,,5b94fffdaa1729000192a770,676192165fb32c2e1fb7aee6,67d1fb5ad7dcbca4f75a9bac,2025-03-12_22h23.56.637,Tarea de decisión léxica,2024.2.5,Win32,59.88023952,,,,,,,,,,,,,,,,,,,,,,,213.372,214.3851,l,1,0.344,1,214.3855,214.8856,,,,,,145,MAS,WORD,AGR,150,león,,el,,0.344,,214.8858,214.8864,-0.888888889,0.5,0,0,0,,0,75,75,144,1,nobo,,,,
,,,,,,5b94fffdaa1729000192a770,676192165fb32c2e1fb7aee6,67d1fb5ad7dcbca4f75a9bac,2025-03-12_22h23.56.637,Tarea de decisión léxica,2024.2.5,Win32,59.88023952,,,,,,,,,,,,,,,,,,,,,,,214.888,215.9229,a,1,0.3508,1,215.923,216.4228,,,,,,224,FEM,NOWORD,AGR,150,cira,,la,,0.3508,,216.423,216.4233,-0.888888889,0.5,0,0,0,,0,76,76,223,1,cera,,,,
,,,,,,5b94fffdaa1729000192a770,676192165fb32c2e1fb7aee6,67d1fb5ad7dcbca4f75a9bac,2025-03-12_22h23.56.637,Tarea de decisión léxica,2024.2.5,Win32,59.88023952,,,,,,,,,,,,,,,,,,,,,,,216.4245,217.524,a,0,0.4177,0,217.5249,218.0222,,,,,,125,MAS,WORD,DIS,150,lujo,,la,,0.4177,,218.0225,218.0225,-0.888888889,0.5,0,0,0,,0,77,77,124,1,vudo,,,,
,,,,,,5b94fffdaa1729000192a770,676192165fb32c2e1fb7aee6,67d1fb5ad7dcbca4f75a9bac,2025-03-12_22h23.56.637,Tarea de decisión léxica,2024.2.5,Win32,59.88023952,,,,,,,,,,,,,,,,,,,,,,,218.0237,219.0568,a,0,0.3511,0,219.0569,219.559,,,,,,459,MAS,WORD,DIS,150,grado,,la,,0.3511,,219.5592,219.5593,-0.888888889,0.5,0,0,0,,0,78,78,458,1,fraco,,,,
,,,,,,5b94fffdaa1729000192a770,676192165fb32c2e1fb7aee6,67d1fb5ad7dcbca4f75a9bac,2025-03-12_22h23.56.637,Tarea de decisión léxica,2024.2.5,Win32,59.88023952,,,,,,,,,,,,,,,,,,,,,,,219.5606,220.927,l,1,0.7,1,220.9279,221.4258,,,,,,433,MAS,WORD,AGR,150,disco,,el,,0.7,,221.428,221.4292,-0.888888889,0.5,0,0,0,,0,79,79,432,1,durco,,,,
,,,,,,5b94fffdaa1729000192a770,676192165fb32c2e1fb7aee6,67d1fb5ad7dcbca4f75a9bac,2025-03-12_22h23.56.637,Tarea de decisión léxica,2024.2.5,Win32,59.88023952,,,,,,,,,,,,,,,,,,,,,,,221.4302,222.5429,l,1,0.4211,1,222.5432,223.0434,,,,,,437,FEM,WORD,AGR,150,plaza,,la,,0.4211,,223.0435,223.0437,-0.888888889,0.5,0,0,0,,0,80,80,436,1,glava,,,,
,,,,,,5b94fffdaa1729000192a770,676192165fb32c2e1fb7aee6,67d1fb5ad7dcbca4f75a9bac,2025-03-12_22h23.56.637,Tarea de decisión léxica,2024.2.5,Win32,59.88023952,,,,,,,,,,,,,,,,,,,,,,,223.0463,224.1419,l,1,0.4126,1,224.1421,224.6299,,,,,,183,FEM,WORD,AGR,150,raya,,la,,0.4126,,224.6301,224.6302,-0.888888889,0.5,0,0,0,,0,81,81,182,1,raad,,,,
,,,,,,5b94fffdaa1729000192a770,676192165fb32c2e1fb7aee6,67d1fb5ad7dcbca4f75a9bac,2025-03-12_22h23.56.637,Tarea de decisión léxica,2024.2.5,Win32,59.88023952,,,,,,,,,,,,,,,,,,,,,,,224.632,225.6482,l,1,0.3484,1,225.6483,226.1465,,,,,,77,MAS,WORD,AGR,150,loco,,el,,0.3484,,226.1466,226.1468,-0.888888889,0.5,0,0,0,,0,82,82,76,1,fodo,,,,
,,,,,,5b94fffdaa1729000192a770,676192165fb32c2e1fb7aee6,67d1fb5ad7dcbca4f75a9bac,2025-03-12_22h23.56.637,Tarea de decisión léxica,2024.2.5,Win32,59.88023952,,,,,,,,,,,,,,,,,,,,,,,226.1484,227.1844,a,1,0.3838,1,227.1845,227.6811,,,,,,452,FEM,NOWORD,AGR,150,clita,,la,,0.3838,,227.683,227.6842,-0.888888889,0.5,0,0,0,,0,83,83,451,1,fruta,,,,
,,,,,,5b94fffdaa1729000192a770,676192165fb32c2e1fb7aee6,67d1fb5ad7dcbca4f75a9bac,2025-03-12_22h23.56.637,Tarea de decisión léxica,2024.2.5,Win32,59.88023952,,,,,,,,,,,,,,,,,,,,,,,227.6854,228.7484,l,1,0.3928,1,228.7486,229.249,,,,,,127,MAS,WORD,AGR,150,pico,,el,,0.3928,,229.2492,229.2492,-0.888888889,0.5,0,0,0,,0,84,84,126,1,itio,,,,
,,,,,,5b94fffdaa1729000192a770,676192165fb32c2e1fb7aee6,67d1fb5ad7dcbca4f75a9bac,2025-03-12_22h23.56.637,Tarea de decisión léxica,2024.2.5,Win32,59.88023952,,,,,,,,,,,,,,,,,,,,,,,229.2504,230.3851,a,1,0.4826,1,230.3853,230.8834,,,,,,388,FEM,NOWORD,AGR,150,bresa,,la,,0.4826,,230.8835,230.8837,-0.888888889,0.5,0,0,0,,0,85,85,387,1,crema,,,,
,,,,,,5b94fffdaa1729000192a770,676192165fb32c2e1fb7aee6,67d1fb5ad7dcbca4f75a9bac,2025-03-12_22h23.56.637,Tarea de decisión léxica,2024.2.5,Win32,59.88023952,,,,,,,,,,,,,,,,,,,,,,,230.8849,232.6338,a,1,1.0793,1,232.6339,233.1344,,,,,,244,MAS,NOWORD,AGR,150,asamo,,el,,1.0793,0.0003,233.1345,233.1345,-0.888888889,0.5,0,0,0,,0,86,86,243,1,amigo,,,,
,,,,,,5b94fffdaa1729000192a770,676192165fb32c2e1fb7aee6,67d1fb5ad7dcbca4f75a9bac,2025-03-12_22h23.56.637,Tarea de decisión léxica,2024.2.5,Win32,59.88023952,,,,,,,,,,,,,,,,,,,,,,,233.1365,234.2353,l,1,0.4269,1,234.2354,234.7356,,,,,,337,MAS,WORD,DIS,150,huevo,,la,,0.4269,,234.7357,234.7358,-0.888888889,0.5,0,0,0,,0,87,87,336,1,nuejo,,,,
,,,,,,5b94fffdaa1729000192a770,676192165fb32c2e1fb7aee6,67d1fb5ad7dcbca4f75a9bac,2025-03-12_22h23.56.637,Tarea de decisión léxica,2024.2.5,Win32,59.88023952,,,,,,,,,,,,,,,,,,,,,,,234.7382,235.7531,l,1,0.3391,1,235.7532,236.2534,,,,,,51,FEM,WORD,AGR,150,caja,,la,,0.3391,,236.2565,236.2574,-0.888888889,0.5,0,0,0,,0,88,88,50,1,mava,,,,
,,,,,,5b94fffdaa1729000192a770,676192165fb32c2e1fb7aee6,67d1fb5ad7dcbca4f75a9bac,2025-03-12_22h23.56.637,Tarea de decisión léxica,2024.2.5,Win32,59.88023952,,,,,,,,,,,,,,,,,,,,,,,236.2585,237.3878,a,1,0.4584,1,237.388,237.8884,,,,,,86,MAS,NOWORD,DIS,150,babo,,la,,0.4584,,237.8885,237.8886,-0.888888889,0.5,0,0,0,,0,89,89,85,1,lago,,,,
,,,,,,5b94fffdaa1729000192a770,676192165fb32c2e1fb7aee6,67d1fb5ad7dcbca4f75a9bac,2025-03-12_22h23.56.637,Tarea de decisión léxica,2024.2.5,Win32,59.88023952,,,,,,,,,,,,,,,,,,,,,,,237.8908,239.0059,a,1,0.437,1,239.006,239.5064,,,,,,32,FEM,NOWORD,AGR,150,bova,,la,,0.437,,239.5066,239.5068,-0.888888889,0.5,0,0,0,,0,90,90,31,1,ropa,,,,
,,,,,,5b94fffdaa1729000192a770,676192165fb32c2e1fb7aee6,67d1fb5ad7dcbca4f75a9bac,2025-03-12_22h23.56.637,Tarea de decisión léxica,2024.2.5,Win32,59.88023952,,,,,,,,,,,,,,,,,,,,,,,239.5093,240.7574,a,1,0.5811,1,240.7575,241.2599,,,,,,384,FEM,NOWORD,AGR,150,brame,,la,,0.5811,,241.26,241.2605,-0.888888889,0.5,0,0,0,,0,91,91,383,1,frase,,,,
,,,,,,5b94fffdaa1729000192a770,676192165fb32c2e1fb7aee6,67d1fb5ad7dcbca4f75a9bac,2025-03-12_22h23.56.637,Tarea de decisión léxica,2024.2.5,Win32,59.88023952,,,,,,,,,,,,,,,,,,,,,,,241.262,242.5265,a,1,0.5747,1,242.527,243.0287,,,,,,282,MAS,NOWORD,DIS,150,cauro,,la,,0.5747,,243.0288,243.0289,-0.888888889,0.5,0,0,0,,0,92,92,281,1,cielo,,,,
,,,,,,5b94fffdaa1729000192a770,676192165fb32c2e1fb7aee6,67d1fb5ad7dcbca4f75a9bac,2025-03-12_22h23.56.637,Tarea de decisión léxica,2024.2.5,Win32,59.88023952,,,,,,,,,,,,,,,,,,,,,,,243.0308,244.1279,l,1,0.4211,1,244.1283,244.6288,,,,,,405,FEM,WORD,AGR,150,barra,,la,,0.4211,,244.6307,244.6317,-0.888888889,0.5,0,0,0,,0,93,93,404,1,rarra,,,,
,,,,,,5b94fffdaa1729000192a770,676192165fb32c2e1fb7aee6,67d1fb5ad7dcbca4f75a9bac,2025-03-12_22h23.56.637,Tarea de decisión léxica,2024.2.5,Win32,59.88023952,,,,,,,,,,,,,,,,,,,,,,,244.633,245.7627,a,1,0.4431,1,245.763,246.2636,,,,,,8,MAS,NOWORD,AGR,150,nivo,,el,,0.4431,,246.2636,246.2638,-0.888888889,0.5,0,0,0,,0,94,94,7,1,hijo,,,,
,,,,,,5b94fffdaa1729000192a770,676192165fb32c2e1fb7aee6,67d1fb5ad7dcbca4f75a9bac,2025-03-12_22h23.56.637,Tarea de decisión léxica,2024.2.5,Win32,59.88023952,,,,,,,,,,,,,,,,,,,,,,,246.2651,247.6506,l,1,0.7014,1,247.6507,248.1484,,,,,,9,MAS,WORD,DIS,150,tipo,,la,,0.7014,,248.1485,248.1487,-0.888888889,0.5,0,0,0,,0,95,95,8,1,sibo,,,,
,,,,,,5b94fffdaa1729000192a770,676192165fb32c2e1fb7aee6,67d1fb5ad7dcbca4f75a9bac,2025-03-12_22h23.56.637,Tarea de decisión léxica,2024.2.5,Win32,59.88023952,,,,,,,,,,,,,,,,,,,,,,,248.1508,249.1997,l,1,0.3753,1,249.1999,249.7012,,,,,,257,FEM,WORD,DIS,150,amiga,,el,,0.3753,,249.7014,249.7016,-0.888888889,0.5,0,0,0,,0,96,96,256,1,asama,,,,
,,,,,,5b94fffdaa1729000192a770,676192165fb32c2e1fb7aee6,67d1fb5ad7dcbca4f75a9bac,2025-03-12_22h23.56.637,Tarea de decisión léxica,2024.2.5,Win32,59.88023952,,,,,,,,,,,,,,,,,,,,,,,249.7034,250.7535,l,1,0.368,1,250.7536,251.2527,,,,,,205,FEM,WORD,AGR,150,rana,,la,,0.368,,251.2528,251.253,-0.888888889,0.5,0,0,0,,0,97,97,204,1,bara,,,,
,,,,,,5b94fffdaa1729000192a770,676192165fb32c2e1fb7aee6,67d1fb5ad7dcbca4f75a9bac,2025-03-12_22h23.56.637,Tarea de decisión léxica,2024.2.5,Win32,59.88023952,,,,,,,,,,,,,,,,,,,,,,,251.2549,252.2878,l,1,0.3512,1,252.2879,252.7859,,,,,,243,MAS,WORD,DIS,150,amigo,,la,,0.3512,,252.7879,252.7888,-0.888888889,0.5,0,0,0,,0,98,98,242,1,asamo,,,,
,,,,,,5b94fffdaa1729000192a770,676192165fb32c2e1fb7aee6,67d1fb5ad7dcbca4f75a9bac,2025-03-12_22h23.56.637,Tarea de decisión léxica,2024.2.5,Win32,59.88023952,,,,,,,,,,,,,,,,,,,,,,,252.7897,253.8864,a,1,0.4253,1,253.8867,254.3872,,,,,,356,FEM,NOWORD,AGR,150,bepla,,la,,0.4253,,254.3873,254.3873,-0.888888889,0.5,0,0,0,,0,99,99,355,1,regla,,,,
,,,,,,5b94fffdaa1729000192a770,676192165fb32c2e1fb7aee6,67d1fb5ad7dcbca4f75a9bac,2025-03-12_22h23.56.637,Tarea de decisión léxica,2024.2.5,Win32,59.88023952,,,,,,,,,,,,,,,,,,,,,,,254.3886,255.5233,a,1,0.4645,1,255.5234,256.0218,,,,,,364,FEM,NOWORD,AGR,150,veida,,la,,0.4645,,256.0218,256.022,-0.888888889,0.5,0,0,0,,0,100,100,363,1,deuda,,,,
,,,,,,5b94fffdaa1729000192a770,676192165fb32c2e1fb7aee6,67d1fb5ad7dcbca4f75a9bac,2025-03-12_22h23.56.637,Tarea de decisión léxica,2024.2.5,Win32,59.88023952,,,,,,,,,,,,,,,,,,,,,,,256.0234,257.1729,l,1,0.4777,1,257.1732,257.6747,,,,,,43,FEM,WORD,DIS,150,pena,,el,,0.4777,,257.6748,257.6748,-0.888888889,0.5,0,0,0,,0,101,101,42,1,meda,,,,
,,,,,,5b94fffdaa1729000192a770,676192165fb32c2e1fb7aee6,67d1fb5ad7dcbca4f75a9bac,2025-03-12_22h23.56.637,Tarea de decisión léxica,2024.2.5,Win32,59.88023952,,,,,,,,,,,,,,,,,,,,,,,257.6764,258.776,l,1,0.4318,1,258.7761,259.2746,,,,,,179,MAS,WORD,AGR,150,toro,,el,,0.4318,,259.2748,259.2751,-0.888888889,0.5,0,0,0,,0,102,102,178,1,sono,,,,
,,,,,,5b94fffdaa1729000192a770,676192165fb32c2e1fb7aee6,67d1fb5ad7dcbca4f75a9bac,2025-03-12_22h23.56.637,Tarea de decisión léxica,2024.2.5,Win32,59.88023952,,,,,,,,,,,,,,,,,,,,,,,259.2766,260.4922,a,1,0.5535,1,260.4924,260.9926,,,,,,138,MAS,NOWORD,DIS,150,pamo,,la,,0.5535,,260.995,260.9959,-0.888888889,0.5,0,0,0,,0,103,103,137,1,nene,,,,
,,,,,,5b94fffdaa1729000192a770,676192165fb32c2e1fb7aee6,67d1fb5ad7dcbca4f75a9bac,2025-03-12_22h23.56.637,Tarea de decisión léxica,2024.2.5,Win32,59.88023952,,,,,,,,,,,,,,,,,,,,,,,260.9969,262.0938,a,1,0.4187,1,262.0941,262.5947,,,,,,216,FEM,NOWORD,AGR,150,raua,,la,,0.4187,,262.5948,262.5949,-0.888888889,0.5,0,0,0,,0,104,104,215,1,raíz,,,,
,,,,,,5b94fffdaa1729000192a770,676192165fb32c2e1fb7aee6,67d1fb5ad7dcbca4f75a9bac,2025-03-12_22h23.56.637,Tarea de decisión léxica,2024.2.5,Win32,59.88023952,,,,,,,,,,,,,,,,,,,,,,,262.5965,263.7621,a,1,0.5089,1,263.7623,264.2623,,,,,,290,FEM,NOWORD,DIS,150,bumpa,,el,,0.5089,,264.2624,264.2626,-0.888888889,0.5,0,0,0,,0,105,105,289,1,bomba,,,,
,,,,,,5b94fffdaa1729000192a770,676192165fb32c2e1fb7aee6,67d1fb5ad7dcbca4f75a9bac,2025-03-12_22h23.56.637,Tarea de decisión léxica,2024.2.5,Win32,59.88023952,,,,,,,,,,,,,,,,,,,,,,,264.2644,265.349,a,1,0.4321,1,265.3492,265.8472,,,,,,280,FEM,NOWORD,AGR,150,grina,,la,,0.4321,,265.8472,265.8474,-0.888888889,0.5,0,0,0,,0,106,106,279,1,prisa,,,,
,,,,,,5b94fffdaa1729000192a770,676192165fb32c2e1fb7aee6,67d1fb5ad7dcbca4f75a9bac,2025-03-12_22h23.56.637,Tarea de decisión léxica,2024.2.5,Win32,59.88023952,,,,,,,,,,,,,,,,,,,,,,,265.85,266.9148,l,1,0.3894,1,266.915,267.415,,,,,,151,MAS,WORD,AGR,150,tomo,,el,,0.3894,,267.417,267.4178,-0.888888889,0.5,0,0,0,,0,107,107,150,1,sogo,,,,
,,,,,,5b94fffdaa1729000192a770,676192165fb32c2e1fb7aee6,67d1fb5ad7dcbca4f75a9bac,2025-03-12_22h23.56.637,Tarea de decisión léxica,2024.2.5,Win32,59.88023952,,,,,,,,,,,,,,,,,,,,,,,267.4187,268.6013,l,1,0.516,1,268.6014,269.1,,,,,,21,MAS,WORD,AGR,150,plan,,el,,0.516,,269.1,269.1002,-0.888888889,0.5,0,0,0,,0,108,108,20,1,blan,,,,
,,,,,,5b94fffdaa1729000192a770,676192165fb32c2e1fb7aee6,67d1fb5ad7dcbca4f75a9bac,2025-03-12_22h23.56.637,Tarea de decisión léxica,2024.2.5,Win32,59.88023952,,,,,,,,,,,,,,,,,,,,,,,269.1014,270.3678,a,1,0.5858,1,270.3679,270.8681,,,,,,322,MAS,NOWORD,DIS,150,rarco,,la,,0.5858,,270.8683,270.8684,-0.888888889,0.5,0,0,0,,0,109,109,321,1,banco,,,,
,,,,,,5b94fffdaa1729000192a770,676192165fb32c2e1fb7aee6,67d1fb5ad7dcbca4f75a9bac,2025-03-12_22h23.56.637,Tarea de decisión léxica,2024.2.5,Win32,59.88023952,,,,,,,,,,,,,,,,,,,,,,,270.8698,272.1375,l,1,0.6152,1,272.1376,272.6357,,,,,,389,MAS,WORD,AGR,150,cerdo,,el,,0.6152,,272.6359,272.6365,-0.888888889,0.5,0,0,0,,0,110,110,388,1,cenco,,,,
,,,,,,5b94fffdaa1729000192a770,676192165fb32c2e1fb7aee6,67d1fb5ad7dcbca4f75a9bac,2025-03-12_22h23.56.637,Tarea de decisión léxica,2024.2.5,Win32,59.88023952,,,,,,,,,,,,,,,,,,,,,,,272.6377,273.8706,l,1,0.5674,1,273.8707,274.3724,,,,,,457,MAS,WORD,AGR,150,plato,,el,,0.5674,,274.3725,274.3726,-0.888888889,0.5,0,0,0,,0,111,111,456,1,glaco,,,,
,,,,,,5b94fffdaa1729000192a770,676192165fb32c2e1fb7aee6,67d1fb5ad7dcbca4f75a9bac,2025-03-12_22h23.56.637,Tarea de decisión léxica,2024.2.5,Win32,59.88023952,,,,,,,,,,,,,,,,,,,,,,,274.3739,275.6577,l,1,0.6012,1,275.6578,276.1573,,,,,,159,MAS,WORD,DIS,150,giro,,la,,0.6012,,276.1593,276.1604,-0.888888889,0.5,0,0,0,,0,112,112,158,1,bilo,,,,
,,,,,,5b94fffdaa1729000192a770,676192165fb32c2e1fb7aee6,67d1fb5ad7dcbca4f75a9bac,2025-03-12_22h23.56.637,Tarea de decisión léxica,2024.2.5,Win32,59.88023952,,,,,,,,,,,,,,,,,,,,,,,276.1616,277.2594,a,1,0.4333,1,277.2596,277.758,,,,,,108,MAS,NOWORD,AGR,150,raot,,el,,0.4333,,277.7581,277.7582,-0.888888889,0.5,0,0,0,,0,113,113,107,1,saco,,,,
,,,,,,5b94fffdaa1729000192a770,676192165fb32c2e1fb7aee6,67d1fb5ad7dcbca4f75a9bac,2025-03-12_22h23.56.637,Tarea de decisión léxica,2024.2.5,Win32,59.88023952,,,,,,,,,,,,,,,,,,,,,,,277.7599,278.8771,a,1,0.4497,1,278.8772,279.377,,,,,,112,MAS,NOWORD,AGR,150,siro,,el,,0.4497,,279.3771,279.3773,-0.888888889,0.5,0,0,0,,0,114,114,111,1,muro,,,,
,,,,,,5b94fffdaa1729000192a770,676192165fb32c2e1fb7aee6,67d1fb5ad7dcbca4f75a9bac,2025-03-12_22h23.56.637,Tarea de decisión léxica,2024.2.5,Win32,59.88023952,,,,,,,,,,,,,,,,,,,,,,,279.3792,280.6929,l,1,0.6223,1,280.6931,281.1937,,,,,,37,MAS,WORD,AGR,150,rato,,el,,0.6223,,281.1938,281.1939,-0.888888889,0.5,0,0,0,,0,115,115,36,1,gaco,,,,
,,,,,,5b94fffdaa1729000192a770,676192165fb32c2e1fb7aee6,67d1fb5ad7dcbca4f75a9bac,2025-03-12_22h23.56.637,Tarea de decisión léxica,2024.2.5,Win32,59.88023952,,,,,,,,,,,,,,,,,,,,,,,281.1951,282.5127,a,1,0.6476,1,282.5128,283.0127,,,,,,56,MAS,NOWORD,AGR,150,jado,,el,,0.6476,,283.0127,283.0129,-0.888888889,0.5,0,0,0,,0,116,116,55,1,gato,,,,
,,,,,,5b94fffdaa1729000192a770,676192165fb32c2e1fb7aee6,67d1fb5ad7dcbca4f75a9bac,2025-03-12_22h23.56.637,Tarea de decisión léxica,2024.2.5,Win32,59.88023952,,,,,,,,,,,,,,,,,,,,,,,283.014,284.5131,a,1,0.8105,1,284.5133,285.0142,,,,,,404,FEM,NOWORD,AGR,150,grisa,,la,,0.8105,,285.0157,285.0164,-0.888888889,0.5,0,0,0,,0,117,117,403,1,prima,,,,
,,,,,,5b94fffdaa1729000192a770,676192165fb32c2e1fb7aee6,67d1fb5ad7dcbca4f75a9bac,2025-03-12_22h23.56.637,Tarea de decisión léxica,2024.2.5,Win32,59.88023952,,,,,,,,,,,,,,,,,,,,,,,285.0171,286.1646,l,1,0.4584,1,286.1647,286.6648,,,,,,175,FEM,WORD,AGR,150,goma,,la,,0.4584,,286.6649,286.6651,-0.888888889,0.5,0,0,0,,0,118,118,174,1,hosa,,,,
,,,,,,5b94fffdaa1729000192a770,676192165fb32c2e1fb7aee6,67d1fb5ad7dcbca4f75a9bac,2025-03-12_22h23.56.637,Tarea de decisión léxica,2024.2.5,Win32,59.88023952,,,,,,,,,,,,,,,,,,,,,,,286.6665,288.0515,a,1,0.7321,1,288.0516,288.5497,,,,,,314,MAS,NOWORD,DIS,150,govio,,la,,0.7321,,288.5499,288.55,-0.888888889,0.5,0,0,0,,0,119,119,313,1,novio,,,,
,,,,,,5b94fffdaa1729000192a770,676192165fb32c2e1fb7aee6,67d1fb5ad7dcbca4f75a9bac,2025-03-12_22h23.56.637,Tarea de decisión léxica,2024.2.5,Win32,59.88023952,,,,,,,,,,,,,,,,,,,,,,,288.5514,289.7342,l,1,0.5019,1,289.7344,290.2368,,,,,,277,MAS,WORD,AGR,150,fuego,,el,,0.5019,,290.237,290.2371,-0.888888889,0.5,0,0,0,,0,120,120,276,1,vuemo,,,,
,,,,,,5b94fffdaa1729000192a770,676192165fb32c2e1fb7aee6,67d1fb5ad7dcbca4f75a9bac,2025-03-12_22h23.56.637,Tarea de decisión léxica,2024.2.5,Win32,59.88023952,,,,,,,,,,,,,,,,,,,,,,,290.2397,291.4036,a,1,0.4839,1,291.4038,291.9026,,,,,,208,MAS,NOWORD,AGR,150,kedo,,el,,0.4839,,291.9027,291.9028,-0.888888889,0.5,0,0,0,,0,121,121,207,1,kilo,,,,
,,,,,,5b94fffdaa1729000192a770,676192165fb32c2e1fb7aee6,67d1fb5ad7dcbca4f75a9bac,2025-03-12_22h23.56.637,Tarea de decisión léxica,2024.2.5,Win32,59.88023952,,,,,,,,,,,,,,,,,,,,,,,291.9043,293.1244,l,1,0.5655,1,293.1246,293.6211,,,,,,333,FEM,WORD,DIS,150,tarea,,el,,0.5655,,293.6226,293.6233,-0.888888889,0.5,0,0,0,,0,122,122,332,1,dalea,,,,
,,,,,,5b94fffdaa1729000192a770,676192165fb32c2e1fb7aee6,67d1fb5ad7dcbca4f75a9bac,2025-03-12_22h23.56.637,Tarea de decisión léxica,2024.2.5,Win32,59.88023952,,,,,,,,,,,,,,,,,,,,,,,293.6242,294.8246,a,1,0.5323,1,294.8248,295.322,,,,,,416,FEM,NOWORD,AGR,150,juira,,la,,0.5323,,295.3225,295.3226,-0.888888889,0.5,0,0,0,,0,123,123,415,1,jaula,,,,
,,,,,,5b94fffdaa1729000192a770,676192165fb32c2e1fb7aee6,67d1fb5ad7dcbca4f75a9bac,2025-03-12_22h23.56.637,Tarea de decisión léxica,2024.2.5,Win32,59.88023952,,,,,,,,,,,,,,,,,,,,,,,295.3244,296.4761,a,1,0.4827,1,296.4763,296.975,,,,,,346,FEM,NOWORD,DIS,150,anera,,el,,0.4827,,296.975,296.9752,-0.888888889,0.5,0,0,0,,0,124,124,345,1,arena,,,,
,,,,,,5b94fffdaa1729000192a770,676192165fb32c2e1fb7aee6,67d1fb5ad7dcbca4f75a9bac,2025-03-12_22h23.56.637,Tarea de decisión léxica,2024.2.5,Win32,59.88023952,,,,,,,,,,,,,,,,,,,,,,,296.977,298.0916,a,1,0.4235,1,298.0918,298.5913,,,,,,408,FEM,NOWORD,AGR,150,cauba,,la,,0.4235,,298.5915,298.5917,-0.888888889,0.5,0,0,0,,0,125,125,407,1,cueva,,,,
,,,,,,5b94fffdaa1729000192a770,676192165fb32c2e1fb7aee6,67d1fb5ad7dcbca4f75a9bac,2025-03-12_22h23.56.637,Tarea de decisión léxica,2024.2.5,Win32,59.88023952,,,,,,,,,,,,,,,,,,,,,,,298.593,299.7265,a,1,0.474,1,299.7267,300.2269,,,,,,438,FEM,NOWORD,DIS,150,glava,,el,,0.474,,300.2269,300.227,-0.888888889,0.5,0,0,0,,0,126,126,437,1,plaza,,,,
,,,,,,5b94fffdaa1729000192a770,676192165fb32c2e1fb7aee6,67d1fb5ad7dcbca4f75a9bac,2025-03-12_22h23.56.637,Tarea de decisión léxica,2024.2.5,Win32,59.88023952,,,,,,,,,,,,,,,,,,,,,,,300.2286,301.6628,l,1,0.7654,1,301.6629,302.1632,,,,,,81,FEM,WORD,DIS,150,dama,,el,,0.7654,,302.1651,302.1661,-0.888888889,0.5,0,0,0,,0,127,127,80,1,vasa,,,,
,,,,,,5b94fffdaa1729000192a770,676192165fb32c2e1fb7aee6,67d1fb5ad7dcbca4f75a9bac,2025-03-12_22h23.56.637,Tarea de decisión léxica,2024.2.5,Win32,59.88023952,,,,,,,,,,,,,,,,,,,,,,,302.1672,303.3311,a,1,0.4846,1,303.3311,303.8308,,,,,,398,FEM,NOWORD,DIS,150,trigi,,el,,0.4846,,303.8309,303.831,-0.888888889,0.5,0,0,0,,0,128,128,397,1,tribu,,,,
,,,,,,5b94fffdaa1729000192a770,676192165fb32c2e1fb7aee6,67d1fb5ad7dcbca4f75a9bac,2025-03-12_22h23.56.637,Tarea de decisión léxica,2024.2.5,Win32,59.88023952,,,,,,,,,,,,,,,,,,,,,,,303.8324,305.3657,a,1,0.8811,1,305.3658,305.8658,,,,,,148,FEM,NOWORD,AGR,150,pama,,la,,0.8811,,305.866,305.8661,-0.888888889,0.5,0,0,0,,0,129,129,147,1,hoja,,,,
,,,,,,5b94fffdaa1729000192a770,676192165fb32c2e1fb7aee6,67d1fb5ad7dcbca4f75a9bac,2025-03-12_22h23.56.637,Tarea de decisión léxica,2024.2.5,Win32,59.88023952,,,,,,,,,,,,,,,,,,,,,,,305.8678,306.982,a,1,0.4204,1,306.9826,307.4843,,,,,,260,MAS,NOWORD,AGR,150,jaumo,,el,,0.4204,,307.4844,307.4846,-0.888888889,0.5,0,0,0,,0,130,130,259,1,juego,,,,
,,,,,,5b94fffdaa1729000192a770,676192165fb32c2e1fb7aee6,67d1fb5ad7dcbca4f75a9bac,2025-03-12_22h23.56.637,Tarea de decisión léxica,2024.2.5,Win32,59.88023952,,,,,,,,,,,,,,,,,,,,,,,307.4865,308.7023,a,1,0.5499,1,308.7025,309.2011,,,,,,316,FEM,NOWORD,AGR,150,riosa,,la,,0.5499,,309.203,309.204,-0.888888889,0.5,0,0,0,,0,131,131,315,1,reina,,,,
,,,,,,5b94fffdaa1729000192a770,676192165fb32c2e1fb7aee6,67d1fb5ad7dcbca4f75a9bac,2025-03-12_22h23.56.637,Tarea de decisión léxica,2024.2.5,Win32,59.88023952,,,,,,,,,,,,,,,,,,,,,,,309.2051,310.252,a,0,0.3728,0,310.2535,310.7524,,,,,,103,FEM,WORD,AGR,150,ruta,,la,,0.3728,,310.7525,310.7527,-0.888888889,0.5,0,0,0,,0,132,132,102,1,rova,,,,
,,,,,,5b94fffdaa1729000192a770,676192165fb32c2e1fb7aee6,67d1fb5ad7dcbca4f75a9bac,2025-03-12_22h23.56.637,Tarea de decisión léxica,2024.2.5,Win32,59.88023952,,,,,,,,,,,,,,,,,,,,,,,310.7545,311.7865,l,1,0.3498,1,311.7877,312.2869,,,,,,261,MAS,WORD,AGR,150,sitio,,el,,0.3498,,312.287,312.2872,-0.888888889,0.5,0,0,0,,0,133,133,260,1,titio,,,,
,,,,,,5b94fffdaa1729000192a770,676192165fb32c2e1fb7aee6,67d1fb5ad7dcbca4f75a9bac,2025-03-12_22h23.56.637,Tarea de decisión léxica,2024.2.5,Win32,59.88023952,,,,,,,,,,,,,,,,,,,,,,,312.2882,313.3064,l,1,0.3648,1,313.3066,313.805,,,,,,357,FEM,WORD,AGR,150,bruja,,la,,0.3648,,313.8052,313.8054,-0.888888889,0.5,0,0,0,,0,134,134,356,1,gruba,,,,
,,,,,,5b94fffdaa1729000192a770,676192165fb32c2e1fb7aee6,67d1fb5ad7dcbca4f75a9bac,2025-03-12_22h23.56.637,Tarea de decisión léxica,2024.2.5,Win32,59.88023952,,,,,,,,,,,,,,,,,,,,,,,313.8073,314.8224,l,1,0.3608,1,314.8226,315.3243,,,,,,39,MAS,WORD,DIS,150,voto,,la,,0.3608,,315.3243,315.3245,-0.888888889,0.5,0,0,0,,0,135,135,38,1,redo,,,,
,,,,,,5b94fffdaa1729000192a770,676192165fb32c2e1fb7aee6,67d1fb5ad7dcbca4f75a9bac,2025-03-12_22h23.56.637,Tarea de decisión léxica,2024.2.5,Win32,59.88023952,,,,,,,,,,,,,,,,,,,,,,,315.3259,316.4742,a,1,0.4616,1,316.4743,316.976,,,,,,64,FEM,NOWORD,AGR,150,funa,,la,,0.4616,,316.978,316.9795,-0.888888889,0.5,0,0,0,,0,136,136,63,1,luna,,,,
,,,,,,5b94fffdaa1729000192a770,676192165fb32c2e1fb7aee6,67d1fb5ad7dcbca4f75a9bac,2025-03-12_22h23.56.637,Tarea de decisión léxica,2024.2.5,Win32,59.88023952,,,,,,,,,,,,,,,,,,,,,,,316.9807,317.9914,l,1,0.3386,1,317.992,318.4927,,,,,,289,FEM,WORD,AGR,150,bomba,,la,,0.3386,,318.4928,318.4929,-0.888888889,0.5,0,0,0,,0,137,137,288,1,bumpa,,,,
,,,,,,5b94fffdaa1729000192a770,676192165fb32c2e1fb7aee6,67d1fb5ad7dcbca4f75a9bac,2025-03-12_22h23.56.637,Tarea de decisión léxica,2024.2.5,Win32,59.88023952,,,,,,,,,,,,,,,,,,,,,,,318.4947,319.527,l,0,0.3582,0,319.528,320.0288,,,,,,160,MAS,NOWORD,AGR,150,bilo,,el,,0.3582,,320.0289,320.029,-0.888888889,0.5,0,0,0,,0,138,138,159,1,giro,,,,
,,,,,,5b94fffdaa1729000192a770,676192165fb32c2e1fb7aee6,67d1fb5ad7dcbca4f75a9bac,2025-03-12_22h23.56.637,Tarea de decisión léxica,2024.2.5,Win32,59.88023952,,,,,,,,,,,,,,,,,,,,,,,320.0307,321.1098,l,1,0.4114,1,321.1115,321.6251,,,,,,323,FEM,WORD,DIS,150,cinta,,el,,0.4114,,321.6252,321.6253,-0.888888889,0.5,0,0,0,,0,139,139,322,1,certa,,,,
,,,,,,5b94fffdaa1729000192a770,676192165fb32c2e1fb7aee6,67d1fb5ad7dcbca4f75a9bac,2025-03-12_22h23.56.637,Tarea de decisión léxica,2024.2.5,Win32,59.88023952,,,,,,,,,,,,,,,,,,,,,,,321.6278,322.7126,l,1,0.4108,1,322.7128,323.2128,,,,,,117,MAS,WORD,AGR,150,palo,,el,,0.4108,,323.2131,323.2132,-0.888888889,0.5,0,0,0,,0,140,140,116,1,movo,,,,
,,,,,,5b94fffdaa1729000192a770,676192165fb32c2e1fb7aee6,67d1fb5ad7dcbca4f75a9bac,2025-03-12_22h23.56.637,Tarea de decisión léxica,2024.2.5,Win32,59.88023952,,,,,,,,,,,,,,,,,,,,,,,323.2145,324.2975,a,1,0.4274,1,324.2976,324.7975,,,,,,162,MAS,NOWORD,DIS,150,bopo,,la,,0.4274,,324.7992,324.8001,-0.888888889,0.5,0,0,0,,0,141,141,161,1,coro,,,,
,,,,,,5b94fffdaa1729000192a770,676192165fb32c2e1fb7aee6,67d1fb5ad7dcbca4f75a9bac,2025-03-12_22h23.56.637,Tarea de decisión léxica,2024.2.5,Win32,59.88023952,,,,,,,,,,,,,,,,,,,,,,,324.801,326.1156,l,0,0.6384,0,326.1166,326.6168,,,,,,336,FEM,NOWORD,AGR,150,pesta,,la,,0.6384,,326.617,326.6171,-0.888888889,0.5,0,0,0,,0,142,142,335,1,costa,,,,
,,,,,,5b94fffdaa1729000192a770,676192165fb32c2e1fb7aee6,67d1fb5ad7dcbca4f75a9bac,2025-03-12_22h23.56.637,Tarea de decisión léxica,2024.2.5,Win32,59.88023952,,,,,,,,,,,,,,,,,,,,,,,326.6184,327.9671,a,1,0.6712,1,327.9686,328.4679,,,,,,54,FEM,NOWORD,DIS,150,rora,,el,,0.6712,,328.468,328.4681,-0.888888889,0.5,0,0,0,,0,143,143,53,1,boda,,,,
,,,,,,5b94fffdaa1729000192a770,676192165fb32c2e1fb7aee6,67d1fb5ad7dcbca4f75a9bac,2025-03-12_22h23.56.637,Tarea de decisión léxica,2024.2.5,Win32,59.88023952,,,,,,,,,,,,,,,,,,,,,,,328.4699,329.7706,l,1,0.6179,1,329.7707,330.27,,,,,,217,MAS,WORD,AGR,150,luto,,el,,0.6179,,330.2702,330.2704,-0.888888889,0.5,0,0,0,,0,144,144,216,1,budo,,,,
,,,,,,5b94fffdaa1729000192a770,676192165fb32c2e1fb7aee6,67d1fb5ad7dcbca4f75a9bac,2025-03-12_22h23.56.637,Tarea de decisión léxica,2024.2.5,Win32,59.88023952,,,,,,,,,,,,,,,,,,,,,,,330.272,331.4387,l,1,0.4843,1,331.4388,331.9371,,,,,,121,MAS,WORD,AGR,150,hoyo,,el,,0.4843,,331.9373,331.9374,-0.888888889,0.5,0,0,0,,0,145,145,120,1,bomo,,,,
,,,,,,5b94fffdaa1729000192a770,676192165fb32c2e1fb7aee6,67d1fb5ad7dcbca4f75a9bac,2025-03-12_22h23.56.637,Tarea de decisión léxica,2024.2.5,Win32,59.88023952,,,,,,,,,,,,,,,,,,,,,,,331.9386,333.0235,l,1,0.4179,1,333.0235,333.5233,,,,,,267,MAS,WORD,DIS,150,libro,,la,,0.4179,,333.525,333.5259,-0.888888889,0.5,0,0,0,,0,146,146,266,1,figro,,,,
,,,,,,5b94fffdaa1729000192a770,676192165fb32c2e1fb7aee6,67d1fb5ad7dcbca4f75a9bac,2025-03-12_22h23.56.637,Tarea de decisión léxica,2024.2.5,Win32,59.88023952,,,,,,,,,,,,,,,,,,,,,,,333.5269,334.6083,l,1,0.4151,1,334.6086,335.1069,,,,,,439,FEM,WORD,DIS,150,presa,,el,,0.4151,,335.1069,335.1071,-0.888888889,0.5,0,0,0,,0,147,147,438,1,prema,,,,
,,,,,,5b94fffdaa1729000192a770,676192165fb32c2e1fb7aee6,67d1fb5ad7dcbca4f75a9bac,2025-03-12_22h23.56.637,Tarea de decisión léxica,2024.2.5,Win32,59.88023952,,,,,,,,,,,,,,,,,,,,,,,335.1087,336.2745,a,1,0.5091,1,336.2747,336.7746,,,,,,22,MAS,NOWORD,DIS,150,blan,,la,,0.5091,,336.7748,336.775,-0.888888889,0.5,0,0,0,,0,148,148,21,1,plan,,,,
,,,,,,5b94fffdaa1729000192a770,676192165fb32c2e1fb7aee6,67d1fb5ad7dcbca4f75a9bac,2025-03-12_22h23.56.637,Tarea de decisión léxica,2024.2.5,Win32,59.88023952,,,,,,,,,,,,,,,,,,,,,,,336.7768,337.8609,a,1,0.4166,1,337.8609,338.3591,,,,,,206,FEM,NOWORD,DIS,150,bara,,el,,0.4166,,338.3593,338.3595,-0.888888889,0.5,0,0,0,,0,149,149,205,1,rana,,,,
,,,,,,5b94fffdaa1729000192a770,676192165fb32c2e1fb7aee6,67d1fb5ad7dcbca4f75a9bac,2025-03-12_22h23.56.637,Tarea de decisión léxica,2024.2.5,Win32,59.88023952,,,,,,,,,,,,,,,,,,,,,,,338.3608,339.6937,l,1,0.6515,1,339.6937,340.195,,,,,,423,MAS,WORD,AGR,150,queso,,el,,0.6515,,340.195,340.1952,-0.888888889,0.5,0,0,0,,0,150,150,422,1,quigo,,,,
,,,,,,5b94fffdaa1729000192a770,676192165fb32c2e1fb7aee6,67d1fb5ad7dcbca4f75a9bac,2025-03-12_22h23.56.637,Tarea de decisión léxica,2024.2.5,Win32,59.88023952,,,,,,,,,,,,,,,,,,,,,,,340.1965,341.5138,a,1,0.6485,1,341.5139,342.0125,,,,,,250,FEM,NOWORD,DIS,150,plane,,el,,0.6485,,342.0143,342.0153,-0.888888889,0.5,0,0,0,,0,151,151,249,1,clase,,,,
,,,,,,5b94fffdaa1729000192a770,676192165fb32c2e1fb7aee6,67d1fb5ad7dcbca4f75a9bac,2025-03-12_22h23.56.637,Tarea de decisión léxica,2024.2.5,Win32,59.88023952,,,,,,,,,,,,,,,,,,,,,,,342.0162,343.0972,l,1,0.4015,1,343.0974,343.5975,,,,,,467,MAS,WORD,AGR,150,piano,,el,,0.4015,,343.5976,343.5978,-0.888888889,0.5,0,0,0,,0,152,152,466,1,peiso,,,,
,,,,,,5b94fffdaa1729000192a770,676192165fb32c2e1fb7aee6,67d1fb5ad7dcbca4f75a9bac,2025-03-12_22h23.56.637,Tarea de decisión léxica,2024.2.5,Win32,59.88023952,,,,,,,,,,,,,,,,,,,,,,,343.5994,344.7482,l,1,0.4782,1,344.7484,345.2485,,,,,,153,MAS,WORD,DIS,150,pato,,la,,0.4782,,345.2486,345.2489,-0.888888889,0.5,0,0,0,,0,153,153,152,1,tado,,,,
,,,,,,5b94fffdaa1729000192a770,676192165fb32c2e1fb7aee6,67d1fb5ad7dcbca4f75a9bac,2025-03-12_22h23.56.637,Tarea de decisión léxica,2024.2.5,Win32,59.88023952,,,,,,,,,,,,,,,,,,,,,,,345.2503,346.3496,a,1,0.4427,1,346.3498,346.8498,,,,,,248,FEM,NOWORD,AGR,150,trida,,la,,0.4427,,346.8501,346.8503,-0.888888889,0.5,0,0,0,,0,154,154,247,1,chica,,,,
,,,,,,5b94fffdaa1729000192a770,676192165fb32c2e1fb7aee6,67d1fb5ad7dcbca4f75a9bac,2025-03-12_22h23.56.637,Tarea de decisión léxica,2024.2.5,Win32,59.88023952,,,,,,,,,,,,,,,,,,,,,,,346.8521,347.9365,l,1,0.3983,1,347.9366,348.4352,,,,,,165,FEM,WORD,DIS,150,vela,,el,,0.3983,,348.4372,348.4384,-0.888888889,0.5,0,0,0,,0,155,155,164,1,dera,,,,
,,,,,,5b94fffdaa1729000192a770,676192165fb32c2e1fb7aee6,67d1fb5ad7dcbca4f75a9bac,2025-03-12_22h23.56.637,Tarea de decisión léxica,2024.2.5,Win32,59.88023952,,,,,,,,,,,,,,,,,,,,,,,348.4398,349.5192,a,1,0.3878,1,349.5193,350.019,,,,,,240,MAS,NOWORD,AGR,150,poño,,el,,0.3878,,350.0192,350.0195,-0.888888889,0.5,0,0,0,,0,156,156,239,1,mozo,,,,
,,,,,,5b94fffdaa1729000192a770,676192165fb32c2e1fb7aee6,67d1fb5ad7dcbca4f75a9bac,2025-03-12_22h23.56.637,Tarea de decisión léxica,2024.2.5,Win32,59.88023952,,,,,,,,,,,,,,,,,,,,,,,350.0215,351.087,a,1,0.4087,1,351.0872,351.5888,,,,,,266,FEM,NOWORD,DIS,150,pitat,,el,,0.4087,,351.589,351.5892,-0.888888889,0.5,0,0,0,,0,157,157,265,1,mitad,,,,
,,,,,,5b94fffdaa1729000192a770,676192165fb32c2e1fb7aee6,67d1fb5ad7dcbca4f75a9bac,2025-03-12_22h23.56.637,Tarea de decisión léxica,2024.2.5,Win32,59.88023952,,,,,,,,,,,,,,,,,,,,,,,351.5911,352.6905,l,1,0.4333,1,352.6907,353.1892,,,,,,149,MAS,WORD,DIS,150,cabo,,la,,0.4333,,353.1894,353.1896,-0.888888889,0.5,0,0,0,,0,158,158,148,1,pafo,,,,
,,,,,,5b94fffdaa1729000192a770,676192165fb32c2e1fb7aee6,67d1fb5ad7dcbca4f75a9bac,2025-03-12_22h23.56.637,Tarea de decisión léxica,2024.2.5,Win32,59.88023952,,,,,,,,,,,,,,,,,,,,,,,353.191,354.2917,l,1,0.432,1,354.2918,354.7915,,,,,,425,FEM,WORD,DIS,150,viuda,,el,,0.432,,354.7916,354.7917,-0.888888889,0.5,0,0,0,,0,159,159,424,1,virca,,,,
,,,,,,5b94fffdaa1729000192a770,676192165fb32c2e1fb7aee6,67d1fb5ad7dcbca4f75a9bac,2025-03-12_22h23.56.637,Tarea de decisión léxica,2024.2.5,Win32,59.88023952,,,,,,,,,,,,,,,,,,,,,,,354.793,355.8242,a,1,0.3445,1,355.8243,356.3258,,,,,,212,FEM,NOWORD,AGR,150,joad,,la,,0.3445,,356.3272,360.101,-0.888888889,0.5,0,0,0,space,0,160,160,211,1,joya,3.7534,,,
,,,,,,5b94fffdaa1729000192a770,676192165fb32c2e1fb7aee6,67d1fb5ad7dcbca4f75a9bac,2025-03-12_22h23.56.637,Tarea de decisión léxica,2024.2.5,Win32,59.88023952,,,,,,,,,,,,,,,,,,,,,,,360.1026,361.2625,l,1,0.4924,1,361.2627,361.7641,,,,,,111,MAS,WORD,DIS,150,muro,,la,,0.4924,,361.7641,361.7643,-0.888888889,0.5,0,0,0,,0,161,161,110,1,siro,,,,
,,,,,,5b94fffdaa1729000192a770,676192165fb32c2e1fb7aee6,67d1fb5ad7dcbca4f75a9bac,2025-03-12_22h23.56.637,Tarea de decisión léxica,2024.2.5,Win32,59.88023952,,,,,,,,,,,,,,,,,,,,,,,361.766,362.7635,l,1,0.3253,1,362.7638,363.2656,,,,,,31,FEM,WORD,AGR,150,ropa,,la,,0.3253,,363.2657,363.2658,-0.888888889,0.5,0,0,0,,0,162,162,30,1,bova,,,,
,,,,,,5b94fffdaa1729000192a770,676192165fb32c2e1fb7aee6,67d1fb5ad7dcbca4f75a9bac,2025-03-12_22h23.56.637,Tarea de decisión léxica,2024.2.5,Win32,59.88023952,,,,,,,,,,,,,,,,,,,,,,,363.2677,364.3819,a,1,0.4371,1,364.3819,364.882,,,,,,6,FEM,NOWORD,DIS,150,poga,,el,,0.4371,,364.8822,364.8825,-0.888888889,0.5,0,0,0,,0,163,163,5,1,cosa,,,,
,,,,,,5b94fffdaa1729000192a770,676192165fb32c2e1fb7aee6,67d1fb5ad7dcbca4f75a9bac,2025-03-12_22h23.56.637,Tarea de decisión léxica,2024.2.5,Win32,59.88023952,,,,,,,,,,,,,,,,,,,,,,,364.8842,366.0356,l,1,0.4823,1,366.0357,366.5333,,,,,,327,MAS,WORD,AGR,150,fondo,,el,,0.4823,,366.5334,366.5335,-0.888888889,0.5,0,0,0,,0,164,164,326,1,lendo,,,,
,,,,,,5b94fffdaa1729000192a770,676192165fb32c2e1fb7aee6,67d1fb5ad7dcbca4f75a9bac,2025-03-12_22h23.56.637,Tarea de decisión léxica,2024.2.5,Win32,59.88023952,,,,,,,,,,,,,,,,,,,,,,,366.5348,368.0371,a,1,0.8326,1,368.0371,368.535,,,,,,40,MAS,NOWORD,AGR,150,redo,,el,,0.8326,,368.5371,368.5379,-0.888888889,0.5,0,0,0,,0,165,165,39,1,voto,,,,
,,,,,,5b94fffdaa1729000192a770,676192165fb32c2e1fb7aee6,67d1fb5ad7dcbca4f75a9bac,2025-03-12_22h23.56.637,Tarea de decisión léxica,2024.2.5,Win32,59.88023952,,,,,,,,,,,,,,,,,,,,,,,368.5388,369.5215,l,1,0.301,1,369.5216,370.0198,,,,,,463,FEM,WORD,DIS,150,cabra,,el,,0.301,,370.0199,370.0201,-0.888888889,0.5,0,0,0,,0,166,166,462,1,matla,,,,
,,,,,,5b94fffdaa1729000192a770,676192165fb32c2e1fb7aee6,67d1fb5ad7dcbca4f75a9bac,2025-03-12_22h23.56.637,Tarea de decisión léxica,2024.2.5,Win32,59.88023952,,,,,,,,,,,,,,,,,,,,,,,370.0214,371.1378,a,1,0.4422,1,371.1379,371.6389,,,,,,320,MAS,NOWORD,AGR,150,tuero,,el,,0.4422,,371.6391,371.6393,-0.888888889,0.5,0,0,0,,0,167,167,319,1,suelo,,,,
,,,,,,5b94fffdaa1729000192a770,676192165fb32c2e1fb7aee6,67d1fb5ad7dcbca4f75a9bac,2025-03-12_22h23.56.637,Tarea de decisión léxica,2024.2.5,Win32,59.88023952,,,,,,,,,,,,,,,,,,,,,,,371.6411,372.675,l,1,0.3515,1,372.6751,373.1749,,,,,,295,MAS,WORD,DIS,150,dolor,,la,,0.3515,,373.1749,373.1755,-0.888888889,0.5,0,0,0,,0,168,168,294,1,goler,,,,
,,,,,,5b94fffdaa1729000192a770,676192165fb32c2e1fb7aee6,67d1fb5ad7dcbca4f75a9bac,2025-03-12_22h23.56.637,Tarea de decisión léxica,2024.2.5,Win32,59.88023952,,,,,,,,,,,,,,,,,,,,,,,373.178,374.3421,l,1,0.4981,1,374.3423,374.8421,,,,,,361,FEM,WORD,DIS,150,torre,,el,,0.4981,,374.8421,374.8423,-0.888888889,0.5,0,0,0,,0,169,169,360,1,solle,,,,
,,,,,,5b94fffdaa1729000192a770,676192165fb32c2e1fb7aee6,67d1fb5ad7dcbca4f75a9bac,2025-03-12_22h23.56.637,Tarea de decisión léxica,2024.2.5,Win32,59.88023952,,,,,,,,,,,,,,,,,,,,,,,374.8443,375.9102,a,1,0.3981,1,375.9103,376.4087,,,,,,166,FEM,NOWORD,DIS,150,dera,,el,,0.3981,,376.4108,376.4117,-0.888888889,0.5,0,0,0,,0,170,170,165,1,vela,,,,
,,,,,,5b94fffdaa1729000192a770,676192165fb32c2e1fb7aee6,67d1fb5ad7dcbca4f75a9bac,2025-03-12_22h23.56.637,Tarea de decisión léxica,2024.2.5,Win32,59.88023952,,,,,,,,,,,,,,,,,,,,,,,376.413,377.4116,l,1,0.3178,1,377.4118,377.9114,,,,,,419,MAS,WORD,AGR,150,truco,,el,,0.3178,,377.9115,377.9117,-0.888888889,0.5,0,0,0,,0,171,171,418,1,chudo,,,,
,,,,,,5b94fffdaa1729000192a770,676192165fb32c2e1fb7aee6,67d1fb5ad7dcbca4f75a9bac,2025-03-12_22h23.56.637,Tarea de decisión léxica,2024.2.5,Win32,59.88023952,,,,,,,,,,,,,,,,,,,,,,,377.9135,379.0473,a,1,0.4519,1,379.0473,379.5456,,,,,,242,MAS,NOWORD,DIS,150,mirdo,,la,,0.4519,,379.5458,379.5459,-0.888888889,0.5,0,0,0,,0,172,172,241,1,mundo,,,,
,,,,,,5b94fffdaa1729000192a770,676192165fb32c2e1fb7aee6,67d1fb5ad7dcbca4f75a9bac,2025-03-12_22h23.56.637,Tarea de decisión léxica,2024.2.5,Win32,59.88023952,,,,,,,,,,,,,,,,,,,,,,,379.5472,380.6957,a,1,0.4698,1,380.6959,381.1959,,,,,,312,MAS,NOWORD,AGR,150,nosor,,el,,0.4698,,381.1961,381.1963,-0.888888889,0.5,0,0,0,,0,173,173,311,1,honor,,,,
,,,,,,5b94fffdaa1729000192a770,676192165fb32c2e1fb7aee6,67d1fb5ad7dcbca4f75a9bac,2025-03-12_22h23.56.637,Tarea de decisión léxica,2024.2.5,Win32,59.88023952,,,,,,,,,,,,,,,,,,,,,,,381.1976,382.1973,l,1,0.3281,1,382.1974,382.6988,,,,,,181,FEM,WORD,DIS,150,seda,,el,,0.3281,,382.6989,382.699,-0.888888889,0.5,0,0,0,,0,174,174,180,1,teda,,,,
,,,,,,5b94fffdaa1729000192a770,676192165fb32c2e1fb7aee6,67d1fb5ad7dcbca4f75a9bac,2025-03-12_22h23.56.637,Tarea de decisión léxica,2024.2.5,Win32,59.88023952,,,,,,,,,,,,,,,,,,,,,,,382.7005,383.7317,l,1,0.3513,1,383.7319,384.2316,,,,,,461,FEM,WORD,AGR,150,tabla,,la,,0.3513,,384.2336,384.2361,-0.888888889,0.5,0,0,0,,0,175,175,460,1,pagra,,,,
,,,,,,5b94fffdaa1729000192a770,676192165fb32c2e1fb7aee6,67d1fb5ad7dcbca4f75a9bac,2025-03-12_22h23.56.637,Tarea de decisión léxica,2024.2.5,Win32,59.88023952,,,,,,,,,,,,,,,,,,,,,,,384.2371,385.2517,l,1,0.3486,1,385.2518,385.7503,,,,,,241,MAS,WORD,AGR,150,mundo,,el,,0.3486,,385.7504,385.7506,-0.888888889,0.5,0,0,0,,0,176,176,240,1,mirdo,,,,
,,,,,,5b94fffdaa1729000192a770,676192165fb32c2e1fb7aee6,67d1fb5ad7dcbca4f75a9bac,2025-03-12_22h23.56.637,Tarea de decisión léxica,2024.2.5,Win32,59.88023952,,,,,,,,,,,,,,,,,,,,,,,385.7518,386.8359,a,1,0.4004,1,386.836,387.3368,,,,,,88,MAS,NOWORD,AGR,150,damo,,el,,0.4004,,387.3369,387.3372,-0.888888889,0.5,0,0,0,,0,177,177,87,1,vaso,,,,
,,,,,,5b94fffdaa1729000192a770,676192165fb32c2e1fb7aee6,67d1fb5ad7dcbca4f75a9bac,2025-03-12_22h23.56.637,Tarea de decisión léxica,2024.2.5,Win32,59.88023952,,,,,,,,,,,,,,,,,,,,,,,387.3388,388.3714,l,0,0.3648,0,388.3742,388.8699,,,,,,134,FEM,NOWORD,DIS,150,vesa,,el,,0.3648,,388.8699,388.8702,-0.888888889,0.5,0,0,0,,0,178,178,133,1,vaca,,,,
,,,,,,5b94fffdaa1729000192a770,676192165fb32c2e1fb7aee6,67d1fb5ad7dcbca4f75a9bac,2025-03-12_22h23.56.637,Tarea de decisión léxica,2024.2.5,Win32,59.88023952,,,,,,,,,,,,,,,,,,,,,,,388.8724,389.939,a,1,0.4009,1,389.9406,390.439,,,,,,318,FEM,NOWORD,DIS,150,plaad,,el,,0.4009,,390.4408,390.4418,-0.888888889,0.5,0,0,0,,0,179,179,317,1,playa,,,,
,,,,,,5b94fffdaa1729000192a770,676192165fb32c2e1fb7aee6,67d1fb5ad7dcbca4f75a9bac,2025-03-12_22h23.56.637,Tarea de decisión léxica,2024.2.5,Win32,59.88023952,,,,,,,,,,,,,,,,,,,,,,,390.443,391.474,l,1,0.351,1,391.4742,391.9722,,,,,,99,MAS,WORD,DIS,150,lobo,,la,,0.351,,391.9723,391.9724,-0.888888889,0.5,0,0,0,,0,180,180,98,1,soro,,,,
,,,,,,5b94fffdaa1729000192a770,676192165fb32c2e1fb7aee6,67d1fb5ad7dcbca4f75a9bac,2025-03-12_22h23.56.637,Tarea de decisión léxica,2024.2.5,Win32,59.88023952,,,,,,,,,,,,,,,,,,,,,,,391.9741,392.9916,l,1,0.365,1,392.9918,393.4912,,,,,,63,FEM,WORD,AGR,150,luna,,la,,0.365,,393.4913,393.4914,-0.888888889,0.5,0,0,0,,0,181,181,62,1,funa,,,,
,,,,,,5b94fffdaa1729000192a770,676192165fb32c2e1fb7aee6,67d1fb5ad7dcbca4f75a9bac,2025-03-12_22h23.56.637,Tarea de decisión léxica,2024.2.5,Win32,59.88023952,,,,,,,,,,,,,,,,,,,,,,,393.4927,394.6435,a,1,0.452,1,394.6436,395.1414,,,,,,178,MAS,NOWORD,DIS,150,bito,,la,,0.452,,395.1417,395.1418,-0.888888889,0.5,0,0,0,,0,182,182,177,1,reto,,,,
,,,,,,5b94fffdaa1729000192a770,676192165fb32c2e1fb7aee6,67d1fb5ad7dcbca4f75a9bac,2025-03-12_22h23.56.637,Tarea de decisión léxica,2024.2.5,Win32,59.88023952,,,,,,,,,,,,,,,,,,,,,,,395.1429,396.1091,l,0,0.3105,0,396.1108,396.6106,,,,,,430,FEM,NOWORD,DIS,150,tenta,,el,,0.3105,,396.6107,396.6108,-0.888888889,0.5,0,0,0,,0,183,183,429,1,tarta,,,,
,,,,,,5b94fffdaa1729000192a770,676192165fb32c2e1fb7aee6,67d1fb5ad7dcbca4f75a9bac,2025-03-12_22h23.56.637,Tarea de decisión léxica,2024.2.5,Win32,59.88023952,,,,,,,,,,,,,,,,,,,,,,,396.612,398.1463,a,1,0.8659,1,398.1472,398.645,,,,,,130,MAS,NOWORD,DIS,150,pima,,la,,0.8659,,398.6467,398.6476,-0.888888889,0.5,0,0,0,,0,184,184,129,1,oído,,,,
,,,,,,5b94fffdaa1729000192a770,676192165fb32c2e1fb7aee6,67d1fb5ad7dcbca4f75a9bac,2025-03-12_22h23.56.637,Tarea de decisión léxica,2024.2.5,Win32,59.88023952,,,,,,,,,,,,,,,,,,,,,,,398.6484,399.8141,l,1,0.4985,1,399.8144,400.3126,,,,,,29,MAS,WORD,AGR,150,modo,,el,,0.4985,,400.3127,400.3128,-0.888888889,0.5,0,0,0,,0,185,185,28,1,pono,,,,
,,,,,,5b94fffdaa1729000192a770,676192165fb32c2e1fb7aee6,67d1fb5ad7dcbca4f75a9bac,2025-03-12_22h23.56.637,Tarea de decisión léxica,2024.2.5,Win32,59.88023952,,,,,,,,,,,,,,,,,,,,,,,400.3142,401.4303,l,1,0.4378,1,401.4303,401.9304,,,,,,11,MAS,WORD,AGR,150,lado,,el,,0.4378,,401.9305,401.9306,-0.888888889,0.5,0,0,0,,0,186,186,10,1,bapo,,,,
,,,,,,5b94fffdaa1729000192a770,676192165fb32c2e1fb7aee6,67d1fb5ad7dcbca4f75a9bac,2025-03-12_22h23.56.637,Tarea de decisión léxica,2024.2.5,Win32,59.88023952,,,,,,,,,,,,,,,,,,,,,,,401.9318,403.0006,l,1,0.4157,1,403.0008,403.4984,,,,,,391,MAS,WORD,DIS,150,dueño,,la,,0.4157,,403.4987,403.4988,-0.888888889,0.5,0,0,0,,0,187,187,390,1,dievo,,,,
,,,,,,5b94fffdaa1729000192a770,676192165fb32c2e1fb7aee6,67d1fb5ad7dcbca4f75a9bac,2025-03-12_22h23.56.637,Tarea de decisión léxica,2024.2.5,Win32,59.88023952,,,,,,,,,,,,,,,,,,,,,,,403.5002,404.585,a,1,0.4315,1,404.585,405.0847,,,,,,410,MAS,NOWORD,DIS,150,pafro,,la,,0.4315,,405.0848,405.0849,-0.888888889,0.5,0,0,0,,0,188,188,409,1,carro,,,,
,,,,,,5b94fffdaa1729000192a770,676192165fb32c2e1fb7aee6,67d1fb5ad7dcbca4f75a9bac,2025-03-12_22h23.56.637,Tarea de decisión léxica,2024.2.5,Win32,59.88023952,,,,,,,,,,,,,,,,,,,,,,,405.0863,406.1843,a,1,0.4161,1,406.1845,406.6862,,,,,,186,MAS,NOWORD,DIS,150,raol,,la,,0.4161,,406.6878,406.6885,-0.888888889,0.5,0,0,0,,0,189,189,185,1,baúl,,,,
,,,,,,5b94fffdaa1729000192a770,676192165fb32c2e1fb7aee6,67d1fb5ad7dcbca4f75a9bac,2025-03-12_22h23.56.637,Tarea de decisión léxica,2024.2.5,Win32,59.88023952,,,,,,,,,,,,,,,,,,,,,,,406.6894,407.8044,l,1,0.4349,1,407.8046,408.303,,,,,,273,FEM,WORD,DIS,150,broma,,el,,0.4349,,408.303,408.3032,-0.888888889,0.5,0,0,0,,0,190,190,272,1,frosa,,,,
,,,,,,5b94fffdaa1729000192a770,676192165fb32c2e1fb7aee6,67d1fb5ad7dcbca4f75a9bac,2025-03-12_22h23.56.637,Tarea de decisión léxica,2024.2.5,Win32,59.88023952,,,,,,,,,,,,,,,,,,,,,,,408.3044,409.4884,a,1,0.5147,1,409.4886,409.989,,,,,,128,MAS,NOWORD,AGR,150,itio,,el,,0.5147,,409.989,409.9891,-0.888888889,0.5,0,0,0,,0,191,191,127,1,pico,,,,
,,,,,,5b94fffdaa1729000192a770,676192165fb32c2e1fb7aee6,67d1fb5ad7dcbca4f75a9bac,2025-03-12_22h23.56.637,Tarea de decisión léxica,2024.2.5,Win32,59.88023952,,,,,,,,,,,,,,,,,,,,,,,409.9904,411.0235,l,1,0.3649,1,411.0236,411.5236,,,,,,69,FEM,WORD,AGR,150,zona,,la,,0.3649,,411.5236,411.5238,-0.888888889,0.5,0,0,0,,0,192,192,68,1,ñola,,,,
,,,,,,5b94fffdaa1729000192a770,676192165fb32c2e1fb7aee6,67d1fb5ad7dcbca4f75a9bac,2025-03-12_22h23.56.637,Tarea de decisión léxica,2024.2.5,Win32,59.88023952,,,,,,,,,,,,,,,,,,,,,,,411.5249,412.5728,a,1,0.377,1,412.5731,413.0736,,,,,,456,MAS,NOWORD,AGR,150,riaso,,el,,0.377,,413.0737,413.0739,-0.888888889,0.5,0,0,0,,0,193,193,455,1,reino,,,,
,,,,,,5b94fffdaa1729000192a770,676192165fb32c2e1fb7aee6,67d1fb5ad7dcbca4f75a9bac,2025-03-12_22h23.56.637,Tarea de decisión léxica,2024.2.5,Win32,59.88023952,,,,,,,,,,,,,,,,,,,,,,,413.0754,414.26,a,1,0.5152,1,414.2602,414.758,,,,,,214,FEM,NOWORD,DIS,150,bana,,el,,0.5152,,414.7601,414.7611,-0.888888889,0.5,0,0,0,,0,194,194,213,1,rama,,,,
,,,,,,5b94fffdaa1729000192a770,676192165fb32c2e1fb7aee6,67d1fb5ad7dcbca4f75a9bac,2025-03-12_22h23.56.637,Tarea de decisión léxica,2024.2.5,Win32,59.88023952,,,,,,,,,,,,,,,,,,,,,,,414.762,415.8099,l,1,0.3648,1,415.8101,416.3113,,,,,,147,FEM,WORD,AGR,150,hoja,,la,,0.3648,,416.3113,416.3115,-0.888888889,0.5,0,0,0,,0,195,195,146,1,pama,,,,
,,,,,,5b94fffdaa1729000192a770,676192165fb32c2e1fb7aee6,67d1fb5ad7dcbca4f75a9bac,2025-03-12_22h23.56.637,Tarea de decisión léxica,2024.2.5,Win32,59.88023952,,,,,,,,,,,,,,,,,,,,,,,416.3131,417.3466,a,1,0.3519,1,417.3468,417.8444,,,,,,328,MAS,NOWORD,AGR,150,lendo,,el,,0.3519,,417.8446,417.8447,-0.888888889,0.5,0,0,0,,0,196,196,327,1,fondo,,,,
,,,,,,5b94fffdaa1729000192a770,676192165fb32c2e1fb7aee6,67d1fb5ad7dcbca4f75a9bac,2025-03-12_22h23.56.637,Tarea de decisión léxica,2024.2.5,Win32,59.88023952,,,,,,,,,,,,,,,,,,,,,,,417.8465,419.1122,a,0,0.5784,0,419.1137,419.6128,,,,,,225,MAS,WORD,DIS,150,lodo,,la,,0.5784,,419.6129,419.6131,-0.888888889,0.5,0,0,0,,0,197,197,224,1,boco,,,,
,,,,,,5b94fffdaa1729000192a770,676192165fb32c2e1fb7aee6,67d1fb5ad7dcbca4f75a9bac,2025-03-12_22h23.56.637,Tarea de decisión léxica,2024.2.5,Win32,59.88023952,,,,,,,,,,,,,,,,,,,,,,,419.6147,420.7632,a,1,0.4752,1,420.7647,421.2647,,,,,,292,FEM,NOWORD,AGR,150,mesta,,la,,0.4752,,421.2648,421.2649,-0.888888889,0.5,0,0,0,,0,198,198,291,1,pista,,,,
,,,,,,5b94fffdaa1729000192a770,676192165fb32c2e1fb7aee6,67d1fb5ad7dcbca4f75a9bac,2025-03-12_22h23.56.637,Tarea de decisión léxica,2024.2.5,Win32,59.88023952,,,,,,,,,,,,,,,,,,,,,,,421.2667,422.3345,l,1,0.4019,1,422.3346,422.8318,,,,,,471,FEM,WORD,DIS,150,grasa,,el,,0.4019,,422.834,422.835,-0.888888889,0.5,0,0,0,,0,199,199,470,1,prana,,,,
,,,,,,5b94fffdaa1729000192a770,676192165fb32c2e1fb7aee6,67d1fb5ad7dcbca4f75a9bac,2025-03-12_22h23.56.637,Tarea de decisión léxica,2024.2.5,Win32,59.88023952,,,,,,,,,,,,,,,,,,,,,,,422.8361,423.8998,a,1,0.3858,1,423.9001,424.3999,,,,,,338,MAS,NOWORD,DIS,150,nuejo,,la,,0.3858,,424.4,424.4003,-0.888888889,0.5,0,0,0,,0,200,200,337,1,huevo,,,,
,,,,,,5b94fffdaa1729000192a770,676192165fb32c2e1fb7aee6,67d1fb5ad7dcbca4f75a9bac,2025-03-12_22h23.56.637,Tarea de decisión léxica,2024.2.5,Win32,59.88023952,,,,,,,,,,,,,,,,,,,,,,,424.4019,425.468,l,1,0.3721,1,425.4681,425.968,,,,,,53,FEM,WORD,DIS,150,boda,,el,,0.3721,,425.9682,425.9683,-0.888888889,0.5,0,0,0,,0,201,201,52,1,rora,,,,
,,,,,,5b94fffdaa1729000192a770,676192165fb32c2e1fb7aee6,67d1fb5ad7dcbca4f75a9bac,2025-03-12_22h23.56.637,Tarea de decisión léxica,2024.2.5,Win32,59.88023952,,,,,,,,,,,,,,,,,,,,,,,425.97,427.0022,a,1,0.3577,1,427.0024,427.5039,,,,,,58,MAS,NOWORD,DIS,150,heco,,la,,0.3577,,427.504,427.5041,-0.888888889,0.5,0,0,0,,0,202,202,57,1,dedo,,,,
,,,,,,5b94fffdaa1729000192a770,676192165fb32c2e1fb7aee6,67d1fb5ad7dcbca4f75a9bac,2025-03-12_22h23.56.637,Tarea de decisión léxica,2024.2.5,Win32,59.88023952,,,,,,,,,,,,,,,,,,,,,,,427.5054,428.672,a,1,0.4985,1,428.6721,429.1723,,,,,,462,FEM,NOWORD,DIS,150,pagra,,el,,0.4985,,429.174,429.1749,-0.888888889,0.5,0,0,0,,0,203,203,461,1,tabla,,,,
,,,,,,5b94fffdaa1729000192a770,676192165fb32c2e1fb7aee6,67d1fb5ad7dcbca4f75a9bac,2025-03-12_22h23.56.637,Tarea de decisión léxica,2024.2.5,Win32,59.88023952,,,,,,,,,,,,,,,,,,,,,,,429.1759,430.6374,a,1,0.7763,1,430.6375,431.1379,,,,,,144,MAS,NOWORD,AGR,150,pezo,,el,,0.7763,,431.1379,431.1381,-0.888888889,0.5,0,0,0,,0,204,204,143,1,pavo,,,,
,,,,,,5b94fffdaa1729000192a770,676192165fb32c2e1fb7aee6,67d1fb5ad7dcbca4f75a9bac,2025-03-12_22h23.56.637,Tarea de decisión léxica,2024.2.5,Win32,59.88023952,,,,,,,,,,,,,,,,,,,,,,,431.1402,432.2221,l,1,0.4113,1,432.2222,432.7224,,,,,,283,MAS,WORD,AGR,150,sueño,,el,,0.4113,,432.7225,432.7227,-0.888888889,0.5,0,0,0,,0,205,205,282,1,tuevo,,,,
,,,,,,5b94fffdaa1729000192a770,676192165fb32c2e1fb7aee6,67d1fb5ad7dcbca4f75a9bac,2025-03-12_22h23.56.637,Tarea de decisión léxica,2024.2.5,Win32,59.88023952,,,,,,,,,,,,,,,,,,,,,,,432.7253,433.6734,a,1,0.269,1,433.6735,434.1769,,,,,,390,MAS,NOWORD,DIS,150,cenco,,la,,0.269,,434.1769,434.1772,-0.888888889,0.5,0,0,0,,0,206,206,389,1,cerdo,,,,
,,,,,,5b94fffdaa1729000192a770,676192165fb32c2e1fb7aee6,67d1fb5ad7dcbca4f75a9bac,2025-03-12_22h23.56.637,Tarea de decisión léxica,2024.2.5,Win32,59.88023952,,,,,,,,,,,,,,,,,,,,,,,434.1784,435.2428,a,1,0.3617,1,435.243,435.744,,,,,,478,MAS,NOWORD,DIS,150,hocon,,la,,0.3617,,435.744,435.7442,-0.888888889,0.5,0,0,0,,0,207,207,477,1,botón,,,,
,,,,,,5b94fffdaa1729000192a770,676192165fb32c2e1fb7aee6,67d1fb5ad7dcbca4f75a9bac,2025-03-12_22h23.56.637,Tarea de decisión léxica,2024.2.5,Win32,59.88023952,,,,,,,,,,,,,,,,,,,,,,,435.7458,436.8608,a,1,0.4209,1,436.861,437.3629,,,,,,44,FEM,NOWORD,AGR,150,meda,,la,,0.4209,,437.3646,437.3655,-0.888888889,0.5,0,0,0,,0,208,208,43,1,pena,,,,
,,,,,,5b94fffdaa1729000192a770,676192165fb32c2e1fb7aee6,67d1fb5ad7dcbca4f75a9bac,2025-03-12_22h23.56.637,Tarea de decisión léxica,2024.2.5,Win32,59.88023952,,,,,,,,,,,,,,,,,,,,,,,437.3666,438.5471,a,1,0.5148,1,438.5473,439.0457,,,,,,74,MAS,NOWORD,DIS,150,omio,,la,,0.5148,,439.0459,439.0461,-0.888888889,0.5,0,0,0,,0,209,209,73,1,odio,,,,
,,,,,,5b94fffdaa1729000192a770,676192165fb32c2e1fb7aee6,67d1fb5ad7dcbca4f75a9bac,2025-03-12_22h23.56.637,Tarea de decisión léxica,2024.2.5,Win32,59.88023952,,,,,,,,,,,,,,,,,,,,,,,439.0474,440.1468,l,1,0.4284,1,440.147,440.6485,,,,,,101,MAS,WORD,AGR,150,tono,,el,,0.4284,,440.6485,440.6486,-0.888888889,0.5,0,0,0,,0,210,210,100,1,gito,,,,
,,,,,,5b94fffdaa1729000192a770,676192165fb32c2e1fb7aee6,67d1fb5ad7dcbca4f75a9bac,2025-03-12_22h23.56.637,Tarea de decisión léxica,2024.2.5,Win32,59.88023952,,,,,,,,,,,,,,,,,,,,,,,440.6497,441.6978,a,1,0.3938,1,441.698,442.1982,,,,,,350,MAS,NOWORD,DIS,150,cosir,,la,,0.3938,,442.1984,442.1987,-0.888888889,0.5,0,0,0,,0,211,211,349,1,color,,,,
,,,,,,5b94fffdaa1729000192a770,676192165fb32c2e1fb7aee6,67d1fb5ad7dcbca4f75a9bac,2025-03-12_22h23.56.637,Tarea de decisión léxica,2024.2.5,Win32,59.88023952,,,,,,,,,,,,,,,,,,,,,,,442.1997,443.2494,a,0,0.376,0,443.2506,443.7508,,,,,,189,MAS,WORD,DIS,150,puño,,la,,0.376,,443.751,443.751,-0.888888889,0.5,0,0,0,,0,212,212,188,1,muvo,,,,
,,,,,,5b94fffdaa1729000192a770,676192165fb32c2e1fb7aee6,67d1fb5ad7dcbca4f75a9bac,2025-03-12_22h23.56.637,Tarea de decisión léxica,2024.2.5,Win32,59.88023952,,,,,,,,,,,,,,,,,,,,,,,443.7524,444.8697,l,1,0.451,1,444.8711,445.3686,,,,,,417,FEM,WORD,AGR,150,barba,,la,,0.451,,445.3708,445.3717,-0.888888889,0.5,0,0,0,,0,213,213,416,1,banja,,,,
,,,,,,5b94fffdaa1729000192a770,676192165fb32c2e1fb7aee6,67d1fb5ad7dcbca4f75a9bac,2025-03-12_22h23.56.637,Tarea de decisión léxica,2024.2.5,Win32,59.88023952,,,,,,,,,,,,,,,,,,,,,,,445.3729,446.4709,a,1,0.4172,1,446.471,446.9708,,,,,,468,MAS,NOWORD,AGR,150,peiso,,el,,0.4172,,446.9709,446.971,-0.888888889,0.5,0,0,0,,0,214,214,467,1,piano,,,,
,,,,,,5b94fffdaa1729000192a770,676192165fb32c2e1fb7aee6,67d1fb5ad7dcbca4f75a9bac,2025-03-12_22h23.56.637,Tarea de decisión léxica,2024.2.5,Win32,59.88023952,,,,,,,,,,,,,,,,,,,,,,,446.9724,448.089,l,1,0.4483,1,448.0891,448.5873,,,,,,347,FEM,WORD,DIS,150,pieza,,el,,0.4483,,448.5875,448.5875,-0.888888889,0.5,0,0,0,,0,215,215,346,1,mueza,,,,
,,,,,,5b94fffdaa1729000192a770,676192165fb32c2e1fb7aee6,67d1fb5ad7dcbca4f75a9bac,2025-03-12_22h23.56.637,Tarea de decisión léxica,2024.2.5,Win32,59.88023952,,,,,,,,,,,,,,,,,,,,,,,448.5889,449.6221,a,1,0.3474,1,449.6222,450.1224,,,,,,344,FEM,NOWORD,AGR,150,trada,,la,,0.3474,,450.1225,450.1228,-0.888888889,0.5,0,0,0,,0,216,216,343,1,plata,,,,
,,,,,,5b94fffdaa1729000192a770,676192165fb32c2e1fb7aee6,67d1fb5ad7dcbca4f75a9bac,2025-03-12_22h23.56.637,Tarea de decisión léxica,2024.2.5,Win32,59.88023952,,,,,,,,,,,,,,,,,,,,,,,450.1241,451.2897,l,1,0.4748,1,451.2898,451.7903,,,,,,281,MAS,WORD,DIS,150,cielo,,la,,0.4748,,451.7905,451.7906,-0.888888889,0.5,0,0,0,,0,217,217,280,1,cauro,,,,
,,,,,,5b94fffdaa1729000192a770,676192165fb32c2e1fb7aee6,67d1fb5ad7dcbca4f75a9bac,2025-03-12_22h23.56.637,Tarea de decisión léxica,2024.2.5,Win32,59.88023952,,,,,,,,,,,,,,,,,,,,,,,451.7922,452.9935,l,1,0.5487,1,452.9936,453.4933,,,,,,453,FEM,WORD,DIS,150,mafia,,el,,0.5487,,453.4952,453.4962,-0.888888889,0.5,0,0,0,,0,218,218,452,1,pafia,,,,
,,,,,,5b94fffdaa1729000192a770,676192165fb32c2e1fb7aee6,67d1fb5ad7dcbca4f75a9bac,2025-03-12_22h23.56.637,Tarea de decisión léxica,2024.2.5,Win32,59.88023952,,,,,,,,,,,,,,,,,,,,,,,453.4971,454.8451,a,1,0.6678,1,454.8453,455.3435,,,,,,400,MAS,NOWORD,AGR,150,serro,,el,,0.6678,,455.3436,455.3437,-0.888888889,0.5,0,0,0,,0,219,219,399,1,techo,,,,
,,,,,,5b94fffdaa1729000192a770,676192165fb32c2e1fb7aee6,67d1fb5ad7dcbca4f75a9bac,2025-03-12_22h23.56.637,Tarea de decisión léxica,2024.2.5,Win32,59.88023952,,,,,,,,,,,,,,,,,,,,,,,455.346,456.4766,a,1,0.4577,1,456.4767,456.9767,,,,,,14,FEM,NOWORD,DIS,150,nola,,el,,0.4577,,456.9768,456.977,-0.888888889,0.5,0,0,0,,0,220,220,13,1,hora,,,,
,,,,,,5b94fffdaa1729000192a770,676192165fb32c2e1fb7aee6,67d1fb5ad7dcbca4f75a9bac,2025-03-12_22h23.56.637,Tarea de decisión léxica,2024.2.5,Win32,59.88023952,,,,,,,,,,,,,,,,,,,,,,,456.9799,458.0276,a,0,0.3739,0,458.0287,458.5281,,,,,,271,FEM,WORD,AGR,150,señal,,la,,0.3739,,458.5282,458.5283,-0.888888889,0.5,0,0,0,,0,221,221,270,1,refal,,,,
,,,,,,5b94fffdaa1729000192a770,676192165fb32c2e1fb7aee6,67d1fb5ad7dcbca4f75a9bac,2025-03-12_22h23.56.637,Tarea de decisión léxica,2024.2.5,Win32,59.88023952,,,,,,,,,,,,,,,,,,,,,,,458.5306,459.7465,a,1,0.5457,1,459.7494,460.2466,,,,,,106,FEM,NOWORD,DIS,150,vina,,el,,0.5457,,460.2466,460.2468,-0.888888889,0.5,0,0,0,,0,222,222,105,1,sopa,,,,
,,,,,,5b94fffdaa1729000192a770,676192165fb32c2e1fb7aee6,67d1fb5ad7dcbca4f75a9bac,2025-03-12_22h23.56.637,Tarea de decisión léxica,2024.2.5,Win32,59.88023952,,,,,,,,,,,,,,,,,,,,,,,460.2496,461.3142,l,1,0.3925,1,461.3143,461.8145,,,,,,19,MAS,WORD,DIS,150,niño,,la,,0.3925,,461.8183,461.82,-0.888888889,0.5,0,0,0,,0,223,223,18,1,himo,,,,
,,,,,,5b94fffdaa1729000192a770,676192165fb32c2e1fb7aee6,67d1fb5ad7dcbca4f75a9bac,2025-03-12_22h23.56.637,Tarea de decisión léxica,2024.2.5,Win32,59.88023952,,,,,,,,,,,,,,,,,,,,,,,461.8211,462.8318,a,1,0.3357,1,462.8319,463.3326,,,,,,434,MAS,NOWORD,DIS,150,durco,,la,,0.3357,,463.3326,463.3328,-0.888888889,0.5,0,0,0,,0,224,224,433,1,disco,,,,
,,,,,,5b94fffdaa1729000192a770,676192165fb32c2e1fb7aee6,67d1fb5ad7dcbca4f75a9bac,2025-03-12_22h23.56.637,Tarea de decisión léxica,2024.2.5,Win32,59.88023952,,,,,,,,,,,,,,,,,,,,,,,463.3355,464.3832,l,1,0.3807,1,464.3833,464.8836,,,,,,83,FEM,WORD,AGR,150,bala,,la,,0.3807,,464.8836,464.8837,-0.888888889,0.5,0,0,0,,0,225,225,82,1,taga,,,,
,,,,,,5b94fffdaa1729000192a770,676192165fb32c2e1fb7aee6,67d1fb5ad7dcbca4f75a9bac,2025-03-12_22h23.56.637,Tarea de decisión léxica,2024.2.5,Win32,59.88023952,,,,,,,,,,,,,,,,,,,,,,,464.886,465.9187,l,1,0.3705,1,465.9189,466.4183,,,,,,449,FEM,WORD,DIS,150,pluma,,el,,0.3705,,466.4184,466.4186,-0.888888889,0.5,0,0,0,,0,226,226,448,1,crusa,,,,
,,,,,,5b94fffdaa1729000192a770,676192165fb32c2e1fb7aee6,67d1fb5ad7dcbca4f75a9bac,2025-03-12_22h23.56.637,Tarea de decisión léxica,2024.2.5,Win32,59.88023952,,,,,,,,,,,,,,,,,,,,,,,466.4208,467.3856,l,1,0.284,1,467.3858,467.8864,,,,,,73,MAS,WORD,AGR,150,odio,,el,,0.284,,467.8892,467.89,-0.888888889,0.5,0,0,0,,0,227,227,72,1,omio,,,,
,,,,,,5b94fffdaa1729000192a770,676192165fb32c2e1fb7aee6,67d1fb5ad7dcbca4f75a9bac,2025-03-12_22h23.56.637,Tarea de decisión léxica,2024.2.5,Win32,59.88023952,,,,,,,,,,,,,,,,,,,,,,,467.8908,468.887,a,1,0.3253,1,468.8871,469.3874,,,,,,374,FEM,NOWORD,DIS,150,pogza,,el,,0.3253,,469.3875,469.3877,-0.888888889,0.5,0,0,0,,0,228,228,373,1,pizza,,,,
,,,,,,5b94fffdaa1729000192a770,676192165fb32c2e1fb7aee6,67d1fb5ad7dcbca4f75a9bac,2025-03-12_22h23.56.637,Tarea de decisión léxica,2024.2.5,Win32,59.88023952,,,,,,,,,,,,,,,,,,,,,,,469.3897,470.3717,l,1,0.3003,1,470.3718,470.8722,,,,,,411,MAS,WORD,DIS,150,pollo,,la,,0.3003,,470.8722,470.8722,-0.888888889,0.5,0,0,0,,0,229,229,410,1,mobro,,,,
,,,,,,5b94fffdaa1729000192a770,676192165fb32c2e1fb7aee6,67d1fb5ad7dcbca4f75a9bac,2025-03-12_22h23.56.637,Tarea de decisión léxica,2024.2.5,Win32,59.88023952,,,,,,,,,,,,,,,,,,,,,,,470.8742,471.8562,l,1,0.3019,1,471.8564,472.357,,,,,,307,MAS,WORD,DIS,150,hotel,,la,,0.3019,,472.3571,472.3572,-0.888888889,0.5,0,0,0,,0,230,230,306,1,holol,,,,
,,,,,,5b94fffdaa1729000192a770,676192165fb32c2e1fb7aee6,67d1fb5ad7dcbca4f75a9bac,2025-03-12_22h23.56.637,Tarea de decisión léxica,2024.2.5,Win32,59.88023952,,,,,,,,,,,,,,,,,,,,,,,472.3602,473.4077,a,1,0.3696,1,473.4078,473.908,,,,,,442,FEM,NOWORD,DIS,150,telza,,el,,0.3696,,473.9081,473.9082,-0.888888889,0.5,0,0,0,,0,231,231,441,1,selva,,,,
,,,,,,5b94fffdaa1729000192a770,676192165fb32c2e1fb7aee6,67d1fb5ad7dcbca4f75a9bac,2025-03-12_22h23.56.637,Tarea de decisión léxica,2024.2.5,Win32,59.88023952,,,,,,,,,,,,,,,,,,,,,,,473.911,474.9757,a,1,0.3919,1,474.9759,475.4759,,,,,,170,MAS,NOWORD,DIS,150,mibo,,la,,0.3919,,475.4785,475.4792,-0.888888889,0.5,0,0,0,,0,232,232,169,1,cubo,,,,
,,,,,,5b94fffdaa1729000192a770,676192165fb32c2e1fb7aee6,67d1fb5ad7dcbca4f75a9bac,2025-03-12_22h23.56.637,Tarea de decisión léxica,2024.2.5,Win32,59.88023952,,,,,,,,,,,,,,,,,,,,,,,475.4799,476.7271,a,1,0.5744,1,476.7273,477.2275,,,,,,474,FEM,NOWORD,DIS,150,felia,,el,,0.5744,,477.2276,477.2277,-0.888888889,0.5,0,0,0,,0,233,233,473,1,feria,,,,
,,,,,,5b94fffdaa1729000192a770,676192165fb32c2e1fb7aee6,67d1fb5ad7dcbca4f75a9bac,2025-03-12_22h23.56.637,Tarea de decisión léxica,2024.2.5,Win32,59.88023952,,,,,,,,,,,,,,,,,,,,,,,477.2298,478.629,a,1,0.7233,1,478.6291,479.1298,,,,,,422,MAS,NOWORD,DIS,150,griso,,la,,0.7233,,479.1299,479.13,-0.888888889,0.5,0,0,0,,0,234,234,421,1,primo,,,,
,,,,,,5b94fffdaa1729000192a770,676192165fb32c2e1fb7aee6,67d1fb5ad7dcbca4f75a9bac,2025-03-12_22h23.56.637,Tarea de decisión léxica,2024.2.5,Win32,59.88023952,,,,,,,,,,,,,,,,,,,,,,,479.1319,480.1634,l,1,0.3594,1,480.1635,480.6639,,,,,,429,FEM,WORD,DIS,150,tarta,,el,,0.3594,,480.6641,480.6641,-0.888888889,0.5,0,0,0,,0,235,235,428,1,tenta,,,,
,,,,,,5b94fffdaa1729000192a770,676192165fb32c2e1fb7aee6,67d1fb5ad7dcbca4f75a9bac,2025-03-12_22h23.56.637,Tarea de decisión léxica,2024.2.5,Win32,59.88023952,,,,,,,,,,,,,,,,,,,,,,,480.6665,481.6981,l,1,0.351,1,481.6983,482.199,,,,,,329,MAS,WORD,DIS,150,hueso,,la,,0.351,,482.1992,482.1994,-0.888888889,0.5,0,0,0,,0,236,236,328,1,nueno,,,,
,,,,,,5b94fffdaa1729000192a770,676192165fb32c2e1fb7aee6,67d1fb5ad7dcbca4f75a9bac,2025-03-12_22h23.56.637,Tarea de decisión léxica,2024.2.5,Win32,59.88023952,,,,,,,,,,,,,,,,,,,,,,,482.2029,483.1994,l,1,0.3397,1,483.1996,483.6997,,,,,,269,MAS,WORD,AGR,150,perro,,el,,0.3397,,483.7025,483.7034,-0.888888889,0.5,0,0,0,,0,237,237,268,1,mello,,,,
,,,,,,5b94fffdaa1729000192a770,676192165fb32c2e1fb7aee6,67d1fb5ad7dcbca4f75a9bac,2025-03-12_22h23.56.637,Tarea de decisión léxica,2024.2.5,Win32,59.88023952,,,,,,,,,,,,,,,,,,,,,,,483.7045,484.7673,a,1,0.3866,1,484.7674,485.2678,,,,,,304,MAS,NOWORD,AGR,150,lanco,,el,,0.3866,,485.2679,485.2681,-0.888888889,0.5,0,0,0,,0,238,238,303,1,barco,,,,
,,,,,,5b94fffdaa1729000192a770,676192165fb32c2e1fb7aee6,67d1fb5ad7dcbca4f75a9bac,2025-03-12_22h23.56.637,Tarea de decisión léxica,2024.2.5,Win32,59.88023952,,,,,,,,,,,,,,,,,,,,,,,485.2708,486.3688,a,1,0.42,1,486.3689,486.8692,,,,,,358,FEM,NOWORD,DIS,150,gruba,,el,,0.42,,486.8693,486.8694,-0.888888889,0.5,0,0,0,,0,239,239,357,1,bruja,,,,
,,,,,,5b94fffdaa1729000192a770,676192165fb32c2e1fb7aee6,67d1fb5ad7dcbca4f75a9bac,2025-03-12_22h23.56.637,Tarea de decisión léxica,2024.2.5,Win32,59.88023952,,,,,,,,,,,,,,,,,,,,,,,486.8723,488.087,l,1,0.5344,1,488.0872,488.5901,,,,,,227,MAS,WORD,AGR,150,faro,,el,,0.5344,,488.5902,488.5904,-0.888888889,0.5,0,0,0,,0,240,240,226,1,laro,,,,
,,,,,,5b94fffdaa1729000192a770,676192165fb32c2e1fb7aee6,67d1fb5ad7dcbca4f75a9bac,2025-03-12_22h23.56.637,Tarea de decisión léxica,2024.2.5,Win32,59.88023952,,,,,,,,,,,,,,,,,,,,,,,488.5916,489.7086,l,1,0.4344,1,489.7087,490.2073,,,,,,137,MAS,WORD,DIS,150,nene,,la,,0.4344,,490.2074,490.2076,-0.888888889,0.5,0,0,0,,0,241,241,136,1,pamo,,,,
,,,,,,5b94fffdaa1729000192a770,676192165fb32c2e1fb7aee6,67d1fb5ad7dcbca4f75a9bac,2025-03-12_22h23.56.637,Tarea de decisión léxica,2024.2.5,Win32,59.88023952,,,,,,,,,,,,,,,,,,,,,,,490.2104,491.36,a,1,0.4824,1,491.3601,491.858,,,,,,414,FEM,NOWORD,DIS,150,bieda,,el,,0.4824,,491.8605,491.8614,-0.888888889,0.5,0,0,0,,0,242,242,413,1,rueda,,,,
,,,,,,5b94fffdaa1729000192a770,676192165fb32c2e1fb7aee6,67d1fb5ad7dcbca4f75a9bac,2025-03-12_22h23.56.637,Tarea de decisión léxica,2024.2.5,Win32,59.88023952,,,,,,,,,,,,,,,,,,,,,,,491.8624,493.0603,a,1,0.5309,1,493.0607,493.5598,,,,,,114,FEM,NOWORD,DIS,150,tada,,el,,0.5309,,493.56,493.5602,-0.888888889,0.5,0,0,0,,0,243,243,113,1,miel,,,,
,,,,,,5b94fffdaa1729000192a770,676192165fb32c2e1fb7aee6,67d1fb5ad7dcbca4f75a9bac,2025-03-12_22h23.56.637,Tarea de decisión léxica,2024.2.5,Win32,59.88023952,,,,,,,,,,,,,,,,,,,,,,,493.5619,494.7123,a,1,0.4839,1,494.7125,495.2125,,,,,,92,FEM,NOWORD,AGR,150,sava,,la,,0.4839,,495.2125,495.2127,-0.888888889,0.5,0,0,0,,0,244,244,91,1,taza,,,,
,,,,,,5b94fffdaa1729000192a770,676192165fb32c2e1fb7aee6,67d1fb5ad7dcbca4f75a9bac,2025-03-12_22h23.56.637,Tarea de decisión léxica,2024.2.5,Win32,59.88023952,,,,,,,,,,,,,,,,,,,,,,,495.2142,496.3622,a,0,0.4763,0,496.3638,496.8638,,,,,,363,FEM,WORD,AGR,150,deuda,,la,,0.4763,,496.8639,496.8641,-0.888888889,0.5,0,0,0,,0,245,245,362,1,veida,,,,
,,,,,,5b94fffdaa1729000192a770,676192165fb32c2e1fb7aee6,67d1fb5ad7dcbca4f75a9bac,2025-03-12_22h23.56.637,Tarea de decisión léxica,2024.2.5,Win32,59.88023952,,,,,,,,,,,,,,,,,,,,,,,496.866,498.1492,l,1,0.616,1,498.1508,498.6487,,,,,,259,MAS,WORD,DIS,150,juego,,la,,0.616,,498.6487,498.6488,-0.888888889,0.5,0,0,0,,0,246,246,258,1,jaumo,,,,
,,,,,,5b94fffdaa1729000192a770,676192165fb32c2e1fb7aee6,67d1fb5ad7dcbca4f75a9bac,2025-03-12_22h23.56.637,Tarea de decisión léxica,2024.2.5,Win32,59.88023952,,,,,,,,,,,,,,,,,,,,,,,498.6912,499.6976,l,1,0.3796,1,499.698,500.1986,,,,,,317,FEM,WORD,AGR,150,playa,,la,,0.3796,,500.2004,500.2017,-0.888888889,0.5,0,0,0,,0,247,247,316,1,plaad,,,,
,,,,,,5b94fffdaa1729000192a770,676192165fb32c2e1fb7aee6,67d1fb5ad7dcbca4f75a9bac,2025-03-12_22h23.56.637,Tarea de decisión léxica,2024.2.5,Win32,59.88023952,,,,,,,,,,,,,,,,,,,,,,,500.2027,502.033,,0,0.3796,-1,502.0353,502.0591,,,,,,95,FEM,WORD,DIS,151,moda,,el,,,,502.0592,502.0593,-0.888888889,0.5,0,0,0,,0,248,248,94,1,neda,,,,
,,,,,,5b94fffdaa1729000192a770,676192165fb32c2e1fb7aee6,67d1fb5ad7dcbca4f75a9bac,2025-03-12_22h23.56.637,Tarea de decisión léxica,2024.2.5,Win32,59.88023952,,,,,,,,,,,,,,,,,,,,,,,502.0604,504.702,,0,0.3796,-1,504.7023,505.2038,,,,,,254,MAS,NOWORD,DIS,150,trido,,la,,,,505.2039,505.2041,-0.888888889,0.5,0,0,0,,0,249,249,253,1,chico,,,,
,,,,,,5b94fffdaa1729000192a770,676192165fb32c2e1fb7aee6,67d1fb5ad7dcbca4f75a9bac,2025-03-12_22h23.56.637,Tarea de decisión léxica,2024.2.5,Win32,59.88023952,,,,,,,,,,,,,,,,,,,,,,,505.2056,506.422,l,1,0.5468,1,506.423,506.9226,,,,,,415,FEM,WORD,DIS,150,jaula,,el,,0.5468,,506.9227,506.9228,-0.888888889,0.5,0,0,0,,0,250,250,414,1,juira,,,,
,,,,,,5b94fffdaa1729000192a770,676192165fb32c2e1fb7aee6,67d1fb5ad7dcbca4f75a9bac,2025-03-12_22h23.56.637,Tarea de decisión léxica,2024.2.5,Win32,59.88023952,,,,,,,,,,,,,,,,,,,,,,,506.9241,508.0237,a,1,0.4317,1,508.0239,508.5226,,,,,,264,FEM,NOWORD,AGR,150,dosta,,la,,0.4317,,508.5249,508.5276,-0.888888889,0.5,0,0,0,,0,251,251,263,1,vista,,,,
,,,,,,5b94fffdaa1729000192a770,676192165fb32c2e1fb7aee6,67d1fb5ad7dcbca4f75a9bac,2025-03-12_22h23.56.637,Tarea de decisión léxica,2024.2.5,Win32,59.88023952,,,,,,,,,,,,,,,,,,,,,,,508.5288,509.5565,l,1,0.3386,1,509.5568,510.0571,,,,,,173,FEM,WORD,DIS,150,rosa,,el,,0.3386,,510.0572,510.0573,-0.888888889,0.5,0,0,0,,0,252,252,172,1,boma,,,,
,,,,,,5b94fffdaa1729000192a770,676192165fb32c2e1fb7aee6,67d1fb5ad7dcbca4f75a9bac,2025-03-12_22h23.56.637,Tarea de decisión léxica,2024.2.5,Win32,59.88023952,,,,,,,,,,,,,,,,,,,,,,,510.0589,511.1273,a,1,0.3987,1,511.1276,511.6253,,,,,,342,MAS,NOWORD,DIS,150,daror,,la,,0.3987,,511.6254,511.6256,-0.888888889,0.5,0,0,0,,0,253,253,341,1,valor,,,,
,,,,,,5b94fffdaa1729000192a770,676192165fb32c2e1fb7aee6,67d1fb5ad7dcbca4f75a9bac,2025-03-12_22h23.56.637,Tarea de decisión léxica,2024.2.5,Win32,59.88023952,,,,,,,,,,,,,,,,,,,,,,,511.6276,512.7448,l,0,0.4651,0,512.7458,513.2447,,,,,,82,FEM,NOWORD,DIS,150,vasa,,el,,0.4651,,513.2448,513.245,-0.888888889,0.5,0,0,0,,0,254,254,81,1,dama,,,,
,,,,,,5b94fffdaa1729000192a770,676192165fb32c2e1fb7aee6,67d1fb5ad7dcbca4f75a9bac,2025-03-12_22h23.56.637,Tarea de decisión léxica,2024.2.5,Win32,59.88023952,,,,,,,,,,,,,,,,,,,,,,,513.2468,514.3637,a,1,0.4506,1,514.3646,514.8631,,,,,,16,FEM,NOWORD,AGR,150,odea,,la,,0.4506,,514.8633,514.8634,-0.888888889,0.5,0,0,0,,0,255,255,15,1,idea,,,,
,,,,,,5b94fffdaa1729000192a770,676192165fb32c2e1fb7aee6,67d1fb5ad7dcbca4f75a9bac,2025-03-12_22h23.56.637,Tarea de decisión léxica,2024.2.5,Win32,59.88023952,,,,,,,,,,,,,,,,,,,,,,,514.8652,515.8789,l,1,0.3244,1,515.8792,516.3807,,,,,,373,FEM,WORD,DIS,150,pizza,,el,,0.3244,,516.3827,516.3839,-0.888888889,0.5,0,0,0,,0,256,256,372,1,pogza,,,,
,,,,,,5b94fffdaa1729000192a770,676192165fb32c2e1fb7aee6,67d1fb5ad7dcbca4f75a9bac,2025-03-12_22h23.56.637,Tarea de decisión léxica,2024.2.5,Win32,59.88023952,,,,,,,,,,,,,,,,,,,,,,,516.3853,517.4495,a,1,0.3843,1,517.4496,517.949,,,,,,152,MAS,NOWORD,AGR,150,sogo,,el,,0.3843,,517.9492,517.9493,-0.888888889,0.5,0,0,0,,0,257,257,151,1,tomo,,,,
,,,,,,5b94fffdaa1729000192a770,676192165fb32c2e1fb7aee6,67d1fb5ad7dcbca4f75a9bac,2025-03-12_22h23.56.637,Tarea de decisión léxica,2024.2.5,Win32,59.88023952,,,,,,,,,,,,,,,,,,,,,,,517.9511,519.0481,a,1,0.4034,1,519.0483,519.549,,,,,,124,FEM,NOWORD,AGR,150,maba,,la,,0.4034,,519.5491,519.5492,-0.888888889,0.5,0,0,0,,0,258,258,123,1,flor,,,,
,,,,,,5b94fffdaa1729000192a770,676192165fb32c2e1fb7aee6,67d1fb5ad7dcbca4f75a9bac,2025-03-12_22h23.56.637,Tarea de decisión léxica,2024.2.5,Win32,59.88023952,,,,,,,,,,,,,,,,,,,,,,,519.5507,520.6664,a,0,0.4389,0,520.6677,521.167,,,,,,191,FEM,WORD,DIS,150,pila,,el,,0.4389,,521.167,521.1672,-0.888888889,0.5,0,0,0,,0,259,259,190,1,bila,,,,
,,,,,,5b94fffdaa1729000192a770,676192165fb32c2e1fb7aee6,67d1fb5ad7dcbca4f75a9bac,2025-03-12_22h23.56.637,Tarea de decisión léxica,2024.2.5,Win32,59.88023952,,,,,,,,,,,,,,,,,,,,,,,521.1688,522.1865,l,1,0.3487,1,522.1878,522.6861,,,,,,97,MAS,WORD,AGR,150,mono,,el,,0.3487,,522.6862,522.6864,-0.888888889,0.5,0,0,0,,0,260,260,96,1,fopo,,,,
,,,,,,5b94fffdaa1729000192a770,676192165fb32c2e1fb7aee6,67d1fb5ad7dcbca4f75a9bac,2025-03-12_22h23.56.637,Tarea de decisión léxica,2024.2.5,Win32,59.88023952,,,,,,,,,,,,,,,,,,,,,,,522.6883,523.7189,a,1,0.3392,1,523.719,524.221,,,,,,278,MAS,NOWORD,DIS,150,vuemo,,la,,0.3392,,524.2226,524.2236,-0.888888889,0.5,0,0,0,,0,261,261,277,1,fuego,,,,
,,,,,,5b94fffdaa1729000192a770,676192165fb32c2e1fb7aee6,67d1fb5ad7dcbca4f75a9bac,2025-03-12_22h23.56.637,Tarea de decisión léxica,2024.2.5,Win32,59.88023952,,,,,,,,,,,,,,,,,,,,,,,524.2246,525.2371,l,1,0.3426,1,525.2372,525.7379,,,,,,7,MAS,WORD,AGR,150,hijo,,el,,0.3426,,525.7379,525.7381,-0.888888889,0.5,0,0,0,,0,262,262,6,1,nivo,,,,
,,,,,,5b94fffdaa1729000192a770,676192165fb32c2e1fb7aee6,67d1fb5ad7dcbca4f75a9bac,2025-03-12_22h23.56.637,Tarea de decisión léxica,2024.2.5,Win32,59.88023952,,,,,,,,,,,,,,,,,,,,,,,525.7399,526.8552,a,0,0.4399,0,526.8567,527.3557,,,,,,187,MAS,WORD,AGR,150,mito,,el,,0.4399,,527.3557,527.3559,-0.888888889,0.5,0,0,0,,0,263,263,186,1,suto,,,,
,,,,,,5b94fffdaa1729000192a770,676192165fb32c2e1fb7aee6,67d1fb5ad7dcbca4f75a9bac,2025-03-12_22h23.56.637,Tarea de decisión léxica,2024.2.5,Win32,59.88023952,,,,,,,,,,,,,,,,,,,,,,,527.3587,528.5255,a,1,0.4988,1,528.5269,529.0247,,,,,,204,FEM,NOWORD,AGR,150,beja,,la,,0.4988,,529.0249,529.025,-0.888888889,0.5,0,0,0,,0,264,264,203,1,leña,,,,
,,,,,,5b94fffdaa1729000192a770,676192165fb32c2e1fb7aee6,67d1fb5ad7dcbca4f75a9bac,2025-03-12_22h23.56.637,Tarea de decisión léxica,2024.2.5,Win32,59.88023952,,,,,,,,,,,,,,,,,,,,,,,529.0263,530.1268,a,1,0.4327,1,530.1269,530.6264,,,,,,188,MAS,NOWORD,AGR,150,suto,,el,,0.4327,,530.6266,530.6268,-0.888888889,0.5,0,0,0,,0,265,265,187,1,mito,,,,
,,,,,,5b94fffdaa1729000192a770,676192165fb32c2e1fb7aee6,67d1fb5ad7dcbca4f75a9bac,2025-03-12_22h23.56.637,Tarea de decisión léxica,2024.2.5,Win32,59.88023952,,,,,,,,,,,,,,,,,,,,,,,530.6288,533.2791,,0,0.4327,-1,533.2802,533.7791,,,,,,55,MAS,WORD,DIS,150,gato,,la,,,,533.7811,533.7822,-0.888888889,0.5,0,0,0,,0,266,266,54,1,jado,,,,
,,,,,,5b94fffdaa1729000192a770,676192165fb32c2e1fb7aee6,67d1fb5ad7dcbca4f75a9bac,2025-03-12_22h23.56.637,Tarea de decisión léxica,2024.2.5,Win32,59.88023952,,,,,,,,,,,,,,,,,,,,,,,533.7835,535.3457,a,1,0.8858,1,535.3469,535.846,,,,,,132,FEM,NOWORD,AGR,150,fada,,la,,0.8858,,535.8461,535.8464,-0.888888889,0.5,0,0,0,,0,267,267,131,1,mina,,,,
,,,,,,5b94fffdaa1729000192a770,676192165fb32c2e1fb7aee6,67d1fb5ad7dcbca4f75a9bac,2025-03-12_22h23.56.637,Tarea de decisión léxica,2024.2.5,Win32,59.88023952,,,,,,,,,,,,,,,,,,,,,,,535.849,537.0661,a,1,0.549,1,537.0662,537.5655,,,,,,348,FEM,NOWORD,AGR,150,mueza,,la,,0.549,,537.5656,537.5657,-0.888888889,0.5,0,0,0,,0,268,268,347,1,pieza,,,,
,,,,,,5b94fffdaa1729000192a770,676192165fb32c2e1fb7aee6,67d1fb5ad7dcbca4f75a9bac,2025-03-12_22h23.56.637,Tarea de decisión léxica,2024.2.5,Win32,59.88023952,,,,,,,,,,,,,,,,,,,,,,,537.5673,538.6836,l,1,0.4343,1,538.6836,539.1839,,,,,,135,MAS,WORD,AGR,150,tubo,,el,,0.4343,,539.1839,539.184,-0.888888889,0.5,0,0,0,,0,269,269,134,1,geso,,,,
,,,,,,5b94fffdaa1729000192a770,676192165fb32c2e1fb7aee6,67d1fb5ad7dcbca4f75a9bac,2025-03-12_22h23.56.637,Tarea de decisión léxica,2024.2.5,Win32,59.88023952,,,,,,,,,,,,,,,,,,,,,,,539.1856,540.2853,a,1,0.4176,1,540.2853,540.7845,,,,,,284,MAS,NOWORD,AGR,150,tuevo,,el,,0.4176,,540.7845,540.7847,-0.888888889,0.5,0,0,0,,0,270,270,283,1,sueño,,,,
