counterbalancing_condition,consent_prescreening.block_1/declare_consent,consent_prescreening.block_1/age_years,consent_prescreening.block_1/gender,consent_prescreening.block_1/language_disorder,consent_prescreening.block_1/first_language,PROLIFIC_PID,STUDY_ID,SESSION_ID,date,expName,psychopyVersion,OS,frameRate,check_prescreening_answers.started,check_prescreening_answers.stopped,Instructions.started,Instructions.stopped,instr_done_keyboard.keys,instr_done_keyboard.rt,instr_done_keyboard.duration,instr_done_touch.x,instr_done_touch.y,instr_done_touch.leftButton,instr_done_touch.midButton,instr_done_touch.rightButton,instruction_pages.thisRepN,instruction_pages.thisTrialN,instruction_pages.thisN,instruction_pages.thisIndex,instruction_pages.ran,pageN,phase,instruct_text,has_image,instruct_image,presentTrial.started,presentTrial.stopped,response.keys,response.corr,response.rt,response.duration,rt,corr,feedback.started,feedback.stopped,practice_trials.thisRepN,practice_trials.thisTrialN,practice_trials.thisN,practice_trials.thisIndex,practice_trials.ran,TrialID,Gender,StimulusType,Condition,PrimeDuration,Prime,len,Flanker,corrAns,Break.started,Break.stopped,break_done_touch.x,break_done_touch.y,break_done_touch.leftButton,break_done_touch.midButton,break_done_touch.rightButton,break_done_keyboard.keys,experiment_trials.thisRepN,experiment_trials.thisTrialN,experiment_trials.thisN,experiment_trials.thisIndex,experiment_trials.ran,PairedWith,break_done_keyboard.rt,break_done_keyboard.duration,End.started,End.stopped
1,"[""over_18"",""comfortable"",""read_info"",""consent_given""]",29,F,"[""none""]","[""spanish""]",5baa866b7c0ebe000127a8eb,676192165fb32c2e1fb7aee6,67d169881580d2627f6df2be,2025-03-12_12h01.38.671,Tarea de decisión léxica,2024.2.5,Win32,142.8571429,,,,,,,,,,,,,,,,,,,,,,,,,,,,,,,,,,,,,,,,,,,,,,,,,,,,,,,,,,,,,,,,
,,,,,,5baa866b7c0ebe000127a8eb,676192165fb32c2e1fb7aee6,67d169881580d2627f6df2be,2025-03-12_12h01.38.671,Tarea de decisión léxica,2024.2.5,Win32,142.8571429,17.8008,17.801,,,,,,,,,,,,,,,,,,,,,,,,,,,,,,,,,,,,,,,,,,,,,,,,,,,,,,,,,,,,,,
,,,,,,5baa866b7c0ebe000127a8eb,676192165fb32c2e1fb7aee6,67d169881580d2627f6df2be,2025-03-12_12h01.38.671,Tarea de decisión léxica,2024.2.5,Win32,142.8571429,,,17.8084,32.2017,space,14.374,,0.107407407,-0.180555556,0,0,0,0,0,0,0,1,1,instructions,"INSTRUCCIONES
Va a realizar una prueba de decisión léxica. Desde el comienzo de la prueba mire siempre al centro de la pantalla. Se presentará una serie de cadenas de letras, una a la vez, en la pantalla. Su tarea consiste en determinar si cada cadena de letras constituye una palabra real en español o una no-palabra (una secuencia de letras que no constituye una palabra real). 

Pulse la tecla ESPACIO para continuar.",0,keyboardresponseNW.png,,,,,,,,,,,,,,,,,,,,,,,,,,,,,,,,,,,,,,,,,,
,,,,,,5baa866b7c0ebe000127a8eb,676192165fb32c2e1fb7aee6,67d169881580d2627f6df2be,2025-03-12_12h01.38.671,Tarea de decisión léxica,2024.2.5,Win32,142.8571429,,,32.203,42.2933,space,10.0782,,0.108333333,-0.178703704,0,0,0,0,1,1,1,1,2,instructions,"El procedimiento es el siguiente: Aparecerán dos barras verticales posicionadas en el centro de la pantalla, separadas por un pequeño espacio.Por favor, enfoque su atención en el espacio entre las barras. Esto preparará sus ojos para la siguiente cadena de letras, que aparecerá entre las dos barras durante un instante.

Pulse la tecla ESPACIO para continuar.",0,keyboardresponseNW.png,,,,,,,,,,,,,,,,,,,,,,,,,,,,,,,,,,,,,,,,,,
,,,,,,5baa866b7c0ebe000127a8eb,676192165fb32c2e1fb7aee6,67d169881580d2627f6df2be,2025-03-12_12h01.38.671,Tarea de decisión léxica,2024.2.5,Win32,142.8571429,,,42.2943,63.3097,space,20.984,,0.108333333,-0.178703704,0,0,0,0,2,2,2,1,3,instructions,"En el teclado de su dispositivo, pulse la tecla ""L"" si la cadena de letras es una palabra real en español (por ejemplo: ""mano"") y la tecla ""A"" si la cadena de letras es una no-palabra (por ejemplo: ""minu"").
Pulse la tecla ESPACIO para continuar.",1,keyboardresponseNW.png,,,,,,,,,,,,,,,,,,,,,,,,,,,,,,,,,,,,,,,,,,
,,,,,,5baa866b7c0ebe000127a8eb,676192165fb32c2e1fb7aee6,67d169881580d2627f6df2be,2025-03-12_12h01.38.671,Tarea de decisión léxica,2024.2.5,Win32,142.8571429,,,63.311,71.9708,space,8.6523,,0.108333333,-0.178703704,0,0,0,0,3,3,3,1,4,instructions,"Es muy importante que responda con la mayor rapidez y precisión posibles. Si no responde dentro de 2 segundos, aparecerá el mensaje ""Muy lento"" y el experimento pasará a la siguiente palabra. Inmediatamente después de su respuesta se indicará si fue correcta o no. Los primeros 15 intentos serán de práctica y habrá dos descansos durante la prueba.

Pulse la tecla ESPACIO  para iniciar la parte de práctica.",0,keyboardresponseNW.png,,,,,,,,,,,,,,,,,,,,,,,,,,,,,,,,,,,,,,,,,,
,,,,,,5baa866b7c0ebe000127a8eb,676192165fb32c2e1fb7aee6,67d169881580d2627f6df2be,2025-03-12_12h01.38.671,Tarea de decisión léxica,2024.2.5,Win32,142.8571429,,,,,,,,,,,,,,,,,,,,,,,71.9773,74.2627,a,1,1.6253,,1.6253,1,74.2629,74.7628,0,0,0,3,1,1004,FEM,NOWORD,AGR,150,bireo,5,la,a,,,,,,,,,,,,,,,,,,
,,,,,,5baa866b7c0ebe000127a8eb,676192165fb32c2e1fb7aee6,67d169881580d2627f6df2be,2025-03-12_12h01.38.671,Tarea de decisión léxica,2024.2.5,Win32,142.8571429,,,,,,,,,,,,,,,,,,,,,,,74.7635,76.3809,l,1,0.9609,,0.9609,1,76.3809,76.881,0,1,1,7,1,1008,MAS,WORD,DIS,150,frío,4,la,l,,,,,,,,,,,,,,,,,,
,,,,,,5baa866b7c0ebe000127a8eb,676192165fb32c2e1fb7aee6,67d169881580d2627f6df2be,2025-03-12_12h01.38.671,Tarea de decisión léxica,2024.2.5,Win32,142.8571429,,,,,,,,,,,,,,,,,,,,,,,76.8816,77.9367,l,1,0.3987,,0.3987,1,77.9368,78.4368,0,2,2,9,1,1010,MAS,WORD,DIS,150,video,5,la,l,,,,,,,,,,,,,,,,,,
,,,,,,5baa866b7c0ebe000127a8eb,676192165fb32c2e1fb7aee6,67d169881580d2627f6df2be,2025-03-12_12h01.38.671,Tarea de decisión léxica,2024.2.5,Win32,142.8571429,,,,,,,,,,,,,,,,,,,,,,,78.4373,79.5063,a,1,0.4107,,0.4107,1,79.5063,80.0064,0,3,3,4,1,1005,MAS,NOWORD,DIS,150,nobad,5,la,a,,,,,,,,,,,,,,,,,,
,,,,,,5baa866b7c0ebe000127a8eb,676192165fb32c2e1fb7aee6,67d169881580d2627f6df2be,2025-03-12_12h01.38.671,Tarea de decisión léxica,2024.2.5,Win32,142.8571429,,,,,,,,,,,,,,,,,,,,,,,80.0071,81.1107,l,1,0.4492,,0.4492,1,81.1108,81.6108,0,4,4,6,1,1007,MAS,WORD,DIS,150,masa,4,la,l,,,,,,,,,,,,,,,,,,
,,,,,,5baa866b7c0ebe000127a8eb,676192165fb32c2e1fb7aee6,67d169881580d2627f6df2be,2025-03-12_12h01.38.671,Tarea de decisión léxica,2024.2.5,Win32,142.8571429,,,,,,,,,,,,,,,,,,,,,,,81.6114,82.5902,l,1,0.321,,0.321,1,82.5903,83.0901,0,5,5,5,1,1006,FEM,WORD,AGR,150,cara,4,la,l,,,,,,,,,,,,,,,,,,
,,,,,,5baa866b7c0ebe000127a8eb,676192165fb32c2e1fb7aee6,67d169881580d2627f6df2be,2025-03-12_12h01.38.671,Tarea de decisión léxica,2024.2.5,Win32,142.8571429,,,,,,,,,,,,,,,,,,,,,,,83.0905,84.132,a,1,0.3821,,0.3821,1,84.132,84.632,0,6,6,1,1,1002,FEM,NOWORD,DIS,150,mabo,4,el,a,,,,,,,,,,,,,,,,,,
,,,,,,5baa866b7c0ebe000127a8eb,676192165fb32c2e1fb7aee6,67d169881580d2627f6df2be,2025-03-12_12h01.38.671,Tarea de decisión léxica,2024.2.5,Win32,142.8571429,,,,,,,,,,,,,,,,,,,,,,,84.6325,85.6807,a,1,0.3891,,0.3891,1,85.6807,86.1808,0,7,7,2,1,1003,FEM,NOWORD,DIS,150,muvor,5,el,a,,,,,,,,,,,,,,,,,,
,,,,,,5baa866b7c0ebe000127a8eb,676192165fb32c2e1fb7aee6,67d169881580d2627f6df2be,2025-03-12_12h01.38.671,Tarea de decisión léxica,2024.2.5,Win32,142.8571429,,,,,,,,,,,,,,,,,,,,,,,86.1813,87.1324,l,1,0.292,,0.292,1,87.1324,87.6323,0,8,8,8,1,1009,FEM,WORD,AGR,150,viejo,5,la,l,,,,,,,,,,,,,,,,,,
,,,,,,5baa866b7c0ebe000127a8eb,676192165fb32c2e1fb7aee6,67d169881580d2627f6df2be,2025-03-12_12h01.38.671,Tarea de decisión léxica,2024.2.5,Win32,142.8571429,,,,,,,,,,,,,,,,,,,,,,,87.6329,88.6602,a,1,0.3722,,0.3722,1,88.6603,89.1603,0,9,9,0,1,1001,FEM,NOWORD,AGR,150,croz,4,la,a,,,,,,,,,,,,,,,,,,
,,,,,,5baa866b7c0ebe000127a8eb,676192165fb32c2e1fb7aee6,67d169881580d2627f6df2be,2025-03-12_12h01.38.671,Tarea de decisión léxica,2024.2.5,Win32,142.8571429,,,92.2034,99.6756,space,7.4638,,0.108333333,-0.178703704,0,0,0,,,,,,,,,,,99.6912,100.773,l,1,0.4282,,0.4282,1,100.773,101.273,,,,,,373,FEM,WORD,AGR,150,pizza,,la,,101.2732,101.2751,0.108333333,-0.178703704,0,0,0,,0,0,0,372,1,pogza,,,,
,,,,,,5baa866b7c0ebe000127a8eb,676192165fb32c2e1fb7aee6,67d169881580d2627f6df2be,2025-03-12_12h01.38.671,Tarea de decisión léxica,2024.2.5,Win32,142.8571429,,,,,,,,,,,,,,,,,,,,,,,101.2755,102.2038,l,1,0.2725,,0.2725,1,102.2038,102.7038,,,,,,365,FEM,WORD,AGR,150,ducha,,la,,102.7039,102.7039,0.108333333,-0.178703704,0,0,0,,0,1,1,364,1,gulla,,,,
,,,,,,5baa866b7c0ebe000127a8eb,676192165fb32c2e1fb7aee6,67d169881580d2627f6df2be,2025-03-12_12h01.38.671,Tarea de decisión léxica,2024.2.5,Win32,142.8571429,,,,,,,,,,,,,,,,,,,,,,,102.7044,103.5927,l,1,0.2339,,0.2339,1,103.5927,104.0927,,,,,,121,MAS,WORD,DIS,150,hoyo,,la,,104.0934,104.0937,0.108333333,-0.178703704,0,0,0,,0,2,2,120,1,bomo,,,,
,,,,,,5baa866b7c0ebe000127a8eb,676192165fb32c2e1fb7aee6,67d169881580d2627f6df2be,2025-03-12_12h01.38.671,Tarea de decisión léxica,2024.2.5,Win32,142.8571429,,,,,,,,,,,,,,,,,,,,,,,104.0939,105.0513,l,1,0.3007,,0.3007,1,105.0514,105.5513,,,,,,89,MAS,WORD,AGR,150,humo,,el,,105.5513,105.5514,0.108333333,-0.178703704,0,0,0,,0,3,3,88,1,guso,,,,
,,,,,,5baa866b7c0ebe000127a8eb,676192165fb32c2e1fb7aee6,67d169881580d2627f6df2be,2025-03-12_12h01.38.671,Tarea de decisión léxica,2024.2.5,Win32,142.8571429,,,,,,,,,,,,,,,,,,,,,,,105.5518,106.5653,a,0,0.3593,,0.3593,0,106.5658,107.0654,,,,,,453,FEM,WORD,AGR,150,mafia,,la,,107.0654,107.0655,0.108333333,-0.178703704,0,0,0,,0,4,4,452,1,pafia,,,,
,,,,,,5baa866b7c0ebe000127a8eb,676192165fb32c2e1fb7aee6,67d169881580d2627f6df2be,2025-03-12_12h01.38.671,Tarea de decisión léxica,2024.2.5,Win32,142.8571429,,,,,,,,,,,,,,,,,,,,,,,107.0659,108.1489,l,1,0.4246,,0.4246,1,108.1491,108.649,,,,,,23,FEM,WORD,DIS,150,hija,,el,,108.649,108.649,0.108333333,-0.178703704,0,0,0,,0,5,5,22,1,giva,,,,
,,,,,,5baa866b7c0ebe000127a8eb,676192165fb32c2e1fb7aee6,67d169881580d2627f6df2be,2025-03-12_12h01.38.671,Tarea de decisión léxica,2024.2.5,Win32,142.8571429,,,,,,,,,,,,,,,,,,,,,,,108.6495,109.7185,a,1,0.4098,,0.4098,1,109.7186,110.2187,,,,,,198,MAS,NOWORD,AGR,150,dade,,el,,110.2187,110.2188,0.108333333,-0.178703704,0,0,0,,0,6,6,197,1,bate,,,,
,,,,,,5baa866b7c0ebe000127a8eb,676192165fb32c2e1fb7aee6,67d169881580d2627f6df2be,2025-03-12_12h01.38.671,Tarea de decisión léxica,2024.2.5,Win32,142.8571429,,,,,,,,,,,,,,,,,,,,,,,110.2191,111.2187,a,1,0.3433,,0.3433,1,111.2187,111.7189,,,,,,448,MAS,NOWORD,DIS,150,buaso,,la,,111.7194,111.7197,0.108333333,-0.178703704,0,0,0,,0,7,7,447,1,bolso,,,,
,,,,,,5baa866b7c0ebe000127a8eb,676192165fb32c2e1fb7aee6,67d169881580d2627f6df2be,2025-03-12_12h01.38.671,Tarea de decisión léxica,2024.2.5,Win32,142.8571429,,,,,,,,,,,,,,,,,,,,,,,111.7199,112.7328,a,1,0.3552,,0.3552,1,112.7329,113.2329,,,,,,214,FEM,NOWORD,AGR,150,bana,,la,,113.2329,113.2329,0.108333333,-0.178703704,0,0,0,,0,8,8,213,1,rama,,,,
,,,,,,5baa866b7c0ebe000127a8eb,676192165fb32c2e1fb7aee6,67d169881580d2627f6df2be,2025-03-12_12h01.38.671,Tarea de decisión léxica,2024.2.5,Win32,142.8571429,,,,,,,,,,,,,,,,,,,,,,,113.2334,114.1774,a,1,0.2889,,0.2889,1,114.1775,114.6776,,,,,,184,FEM,NOWORD,DIS,150,raad,,el,,114.6776,114.6777,0.108333333,-0.178703704,0,0,0,,0,9,9,183,1,raya,,,,
,,,,,,5baa866b7c0ebe000127a8eb,676192165fb32c2e1fb7aee6,67d169881580d2627f6df2be,2025-03-12_12h01.38.671,Tarea de decisión léxica,2024.2.5,Win32,142.8571429,,,,,,,,,,,,,,,,,,,,,,,114.6781,115.6707,l,1,0.3367,,0.3367,1,115.6707,116.1707,,,,,,401,MAS,WORD,AGR,150,polvo,,el,,116.1707,116.1708,0.108333333,-0.178703704,0,0,0,,0,10,10,400,1,pirvo,,,,
,,,,,,5baa866b7c0ebe000127a8eb,676192165fb32c2e1fb7aee6,67d169881580d2627f6df2be,2025-03-12_12h01.38.671,Tarea de decisión léxica,2024.2.5,Win32,142.8571429,,,,,,,,,,,,,,,,,,,,,,,116.1713,117.1917,l,1,0.3614,,0.3614,1,117.1918,117.6918,,,,,,149,MAS,WORD,AGR,150,cabo,,el,,117.6923,117.6926,0.108333333,-0.178703704,0,0,0,,0,11,11,148,1,pafo,,,,
,,,,,,5baa866b7c0ebe000127a8eb,676192165fb32c2e1fb7aee6,67d169881580d2627f6df2be,2025-03-12_12h01.38.671,Tarea de decisión léxica,2024.2.5,Win32,142.8571429,,,,,,,,,,,,,,,,,,,,,,,117.6929,119.0462,a,1,0.6951,,0.6951,1,119.0462,119.5463,,,,,,64,FEM,NOWORD,DIS,150,funa,,el,,119.5463,119.5463,0.108333333,-0.178703704,0,0,0,,0,12,12,63,1,luna,,,,
,,,,,,5baa866b7c0ebe000127a8eb,676192165fb32c2e1fb7aee6,67d169881580d2627f6df2be,2025-03-12_12h01.38.671,Tarea de decisión léxica,2024.2.5,Win32,142.8571429,,,,,,,,,,,,,,,,,,,,,,,119.5468,120.5254,l,1,0.3208,,0.3208,1,120.5255,121.0256,,,,,,17,FEM,WORD,AGR,150,mamá,,la,,121.0257,121.0257,0.108333333,-0.178703704,0,0,0,,0,13,13,16,1,paba,,,,
,,,,,,5baa866b7c0ebe000127a8eb,676192165fb32c2e1fb7aee6,67d169881580d2627f6df2be,2025-03-12_12h01.38.671,Tarea de decisión léxica,2024.2.5,Win32,142.8571429,,,,,,,,,,,,,,,,,,,,,,,121.0261,122.0117,l,1,0.3294,,0.3294,1,122.0118,122.5118,,,,,,193,FEM,WORD,DIS,150,loca,,el,,122.5118,122.5119,0.108333333,-0.178703704,0,0,0,,0,14,14,192,1,foda,,,,
,,,,,,5baa866b7c0ebe000127a8eb,676192165fb32c2e1fb7aee6,67d169881580d2627f6df2be,2025-03-12_12h01.38.671,Tarea de decisión léxica,2024.2.5,Win32,142.8571429,,,,,,,,,,,,,,,,,,,,,,,122.5122,123.4079,l,1,0.2392,,0.2392,1,123.4079,123.9078,,,,,,99,MAS,WORD,AGR,150,lobo,,el,,123.9078,123.9079,0.108333333,-0.178703704,0,0,0,,0,15,15,98,1,soro,,,,
,,,,,,5baa866b7c0ebe000127a8eb,676192165fb32c2e1fb7aee6,67d169881580d2627f6df2be,2025-03-12_12h01.38.671,Tarea de decisión léxica,2024.2.5,Win32,142.8571429,,,,,,,,,,,,,,,,,,,,,,,123.9085,124.8315,l,1,0.2637,,0.2637,1,124.8316,125.3317,,,,,,257,FEM,WORD,AGR,150,amiga,,la,,125.3323,125.3326,0.108333333,-0.178703704,0,0,0,,0,16,16,256,1,asama,,,,
,,,,,,5baa866b7c0ebe000127a8eb,676192165fb32c2e1fb7aee6,67d169881580d2627f6df2be,2025-03-12_12h01.38.671,Tarea de decisión léxica,2024.2.5,Win32,142.8571429,,,,,,,,,,,,,,,,,,,,,,,125.3329,126.3666,a,1,0.3753,,0.3753,1,126.3667,126.8666,,,,,,28,MAS,NOWORD,DIS,150,ravo,,la,,126.8666,126.8666,0.108333333,-0.178703704,0,0,0,,0,17,17,27,1,baño,,,,
,,,,,,5baa866b7c0ebe000127a8eb,676192165fb32c2e1fb7aee6,67d169881580d2627f6df2be,2025-03-12_12h01.38.671,Tarea de decisión léxica,2024.2.5,Win32,142.8571429,,,,,,,,,,,,,,,,,,,,,,,126.867,127.8807,l,1,0.3572,,0.3572,1,127.8807,128.3807,,,,,,223,FEM,WORD,DIS,150,cera,,el,,128.3808,128.3809,0.108333333,-0.178703704,0,0,0,,0,18,18,222,1,cira,,,,
,,,,,,5baa866b7c0ebe000127a8eb,676192165fb32c2e1fb7aee6,67d169881580d2627f6df2be,2025-03-12_12h01.38.671,Tarea de decisión léxica,2024.2.5,Win32,142.8571429,,,,,,,,,,,,,,,,,,,,,,,128.3812,129.4294,a,1,0.3911,,0.3911,1,129.4295,129.9295,,,,,,374,FEM,NOWORD,AGR,150,pogza,,la,,129.9295,129.9295,0.108333333,-0.178703704,0,0,0,,0,19,19,373,1,pizza,,,,
,,,,,,5baa866b7c0ebe000127a8eb,676192165fb32c2e1fb7aee6,67d169881580d2627f6df2be,2025-03-12_12h01.38.671,Tarea de decisión léxica,2024.2.5,Win32,142.8571429,,,,,,,,,,,,,,,,,,,,,,,129.93,130.8879,l,1,0.3027,,0.3027,1,130.888,131.388,,,,,,255,MAS,WORD,DIS,150,miedo,,la,,131.388,131.3881,0.108333333,-0.178703704,0,0,0,,0,20,20,254,1,mauco,,,,
,,,,,,5baa866b7c0ebe000127a8eb,676192165fb32c2e1fb7aee6,67d169881580d2627f6df2be,2025-03-12_12h01.38.671,Tarea de decisión léxica,2024.2.5,Win32,142.8571429,,,,,,,,,,,,,,,,,,,,,,,131.3886,132.298,l,1,0.2499,,0.2499,1,132.298,132.798,,,,,,305,MAS,WORD,DIS,150,avión,,la,,132.7985,132.7989,0.108333333,-0.178703704,0,0,0,,0,21,21,304,1,adiol,,,,
,,,,,,5baa866b7c0ebe000127a8eb,676192165fb32c2e1fb7aee6,67d169881580d2627f6df2be,2025-03-12_12h01.38.671,Tarea de decisión léxica,2024.2.5,Win32,142.8571429,,,,,,,,,,,,,,,,,,,,,,,132.7991,133.6869,l,1,0.23,,0.23,1,133.687,134.1869,,,,,,327,MAS,WORD,DIS,150,fondo,,la,,134.187,134.187,0.108333333,-0.178703704,0,0,0,,0,22,22,326,1,lendo,,,,
,,,,,,5baa866b7c0ebe000127a8eb,676192165fb32c2e1fb7aee6,67d169881580d2627f6df2be,2025-03-12_12h01.38.671,Tarea de decisión léxica,2024.2.5,Win32,142.8571429,,,,,,,,,,,,,,,,,,,,,,,134.1875,135.1108,l,0,0.2648,,0.2648,0,135.1111,135.6107,,,,,,350,MAS,NOWORD,AGR,150,cosir,,el,,135.6107,135.6108,0.108333333,-0.178703704,0,0,0,,0,23,23,349,1,color,,,,
,,,,,,5baa866b7c0ebe000127a8eb,676192165fb32c2e1fb7aee6,67d169881580d2627f6df2be,2025-03-12_12h01.38.671,Tarea de decisión léxica,2024.2.5,Win32,142.8571429,,,,,,,,,,,,,,,,,,,,,,,135.6111,136.8193,l,1,0.5529,,0.5529,1,136.8196,137.3195,,,,,,309,FEM,WORD,DIS,150,silla,,el,,137.3195,137.3195,0.108333333,-0.178703704,0,0,0,,0,24,24,308,1,tirra,,,,
,,,,,,5baa866b7c0ebe000127a8eb,676192165fb32c2e1fb7aee6,67d169881580d2627f6df2be,2025-03-12_12h01.38.671,Tarea de decisión léxica,2024.2.5,Win32,142.8571429,,,,,,,,,,,,,,,,,,,,,,,137.3199,138.4444,a,1,0.4696,,0.4696,1,138.4445,138.9445,,,,,,164,FEM,NOWORD,DIS,150,laga,,el,,138.9445,138.9446,0.108333333,-0.178703704,0,0,0,,0,25,25,163,1,fama,,,,
,,,,,,5baa866b7c0ebe000127a8eb,676192165fb32c2e1fb7aee6,67d169881580d2627f6df2be,2025-03-12_12h01.38.671,Tarea de decisión léxica,2024.2.5,Win32,142.8571429,,,,,,,,,,,,,,,,,,,,,,,138.9453,139.9794,a,1,0.3763,,0.3763,1,139.9794,140.4795,,,,,,208,MAS,NOWORD,DIS,150,kedo,,la,,140.4799,140.4802,0.108333333,-0.178703704,0,0,0,,0,26,26,207,1,kilo,,,,
,,,,,,5baa866b7c0ebe000127a8eb,676192165fb32c2e1fb7aee6,67d169881580d2627f6df2be,2025-03-12_12h01.38.671,Tarea de decisión léxica,2024.2.5,Win32,142.8571429,,,,,,,,,,,,,,,,,,,,,,,140.4805,141.5144,a,1,0.3776,,0.3776,1,141.5145,142.0145,,,,,,52,FEM,NOWORD,DIS,150,mava,,el,,142.0145,142.0146,0.108333333,-0.178703704,0,0,0,,0,27,27,51,1,caja,,,,
,,,,,,5baa866b7c0ebe000127a8eb,676192165fb32c2e1fb7aee6,67d169881580d2627f6df2be,2025-03-12_12h01.38.671,Tarea de decisión léxica,2024.2.5,Win32,142.8571429,,,,,,,,,,,,,,,,,,,,,,,142.015,143.0145,a,1,0.3427,,0.3427,1,143.0146,143.5145,,,,,,394,FEM,NOWORD,AGR,150,ashea,,la,,143.5145,143.5146,0.108333333,-0.178703704,0,0,0,,0,28,28,393,1,aldea,,,,
,,,,,,5baa866b7c0ebe000127a8eb,676192165fb32c2e1fb7aee6,67d169881580d2627f6df2be,2025-03-12_12h01.38.671,Tarea de decisión léxica,2024.2.5,Win32,142.8571429,,,,,,,,,,,,,,,,,,,,,,,143.5151,144.5495,l,1,0.3757,,0.3757,1,144.5495,145.0496,,,,,,261,MAS,WORD,DIS,150,sitio,,la,,145.0496,145.0496,0.108333333,-0.178703704,0,0,0,,0,29,29,260,1,titio,,,,
,,,,,,5baa866b7c0ebe000127a8eb,676192165fb32c2e1fb7aee6,67d169881580d2627f6df2be,2025-03-12_12h01.38.671,Tarea de decisión léxica,2024.2.5,Win32,142.8571429,,,,,,,,,,,,,,,,,,,,,,,145.0501,145.9454,l,1,0.2395,,0.2395,1,145.9455,146.4455,,,,,,299,FEM,WORD,DIS,150,bolsa,,el,,146.4455,146.4456,0.108333333,-0.178703704,0,0,0,,0,30,30,298,1,bosga,,,,
,,,,,,5baa866b7c0ebe000127a8eb,676192165fb32c2e1fb7aee6,67d169881580d2627f6df2be,2025-03-12_12h01.38.671,Tarea de decisión léxica,2024.2.5,Win32,142.8571429,,,,,,,,,,,,,,,,,,,,,,,146.4459,147.536,a,1,0.4307,,0.4307,1,147.5361,148.036,,,,,,150,MAS,NOWORD,AGR,150,pafo,,el,,148.0367,148.0369,0.108333333,-0.178703704,0,0,0,,0,31,31,149,1,cabo,,,,
,,,,,,5baa866b7c0ebe000127a8eb,676192165fb32c2e1fb7aee6,67d169881580d2627f6df2be,2025-03-12_12h01.38.671,Tarea de decisión léxica,2024.2.5,Win32,142.8571429,,,,,,,,,,,,,,,,,,,,,,,148.0374,149.0502,a,1,0.3541,,0.3541,1,149.0502,149.5501,,,,,,210,MAS,NOWORD,AGR,150,dero,,el,,149.5501,149.5501,0.108333333,-0.178703704,0,0,0,,0,32,32,209,1,velo,,,,
,,,,,,5baa866b7c0ebe000127a8eb,676192165fb32c2e1fb7aee6,67d169881580d2627f6df2be,2025-03-12_12h01.38.671,Tarea de decisión léxica,2024.2.5,Win32,142.8571429,,,,,,,,,,,,,,,,,,,,,,,149.5505,150.5294,l,1,0.3199,,0.3199,1,150.5295,151.0296,,,,,,139,MAS,WORD,DIS,150,mago,,la,,151.0296,151.0297,0.108333333,-0.178703704,0,0,0,,0,33,33,138,1,nila,,,,
,,,,,,5baa866b7c0ebe000127a8eb,676192165fb32c2e1fb7aee6,67d169881580d2627f6df2be,2025-03-12_12h01.38.671,Tarea de decisión léxica,2024.2.5,Win32,142.8571429,,,,,,,,,,,,,,,,,,,,,,,151.0299,152.1269,l,1,0.4376,,0.4376,1,152.1269,152.627,,,,,,211,FEM,WORD,AGR,150,joya,,la,,152.627,152.627,0.108333333,-0.178703704,0,0,0,,0,34,34,210,1,joad,,,,
,,,,,,5baa866b7c0ebe000127a8eb,676192165fb32c2e1fb7aee6,67d169881580d2627f6df2be,2025-03-12_12h01.38.671,Tarea de decisión léxica,2024.2.5,Win32,142.8571429,,,,,,,,,,,,,,,,,,,,,,,152.6274,153.6549,l,1,0.3678,,0.3678,1,153.655,154.1548,,,,,,227,MAS,WORD,DIS,150,faro,,la,,154.1553,154.1556,0.108333333,-0.178703704,0,0,0,,0,35,35,226,1,laro,,,,
,,,,,,5baa866b7c0ebe000127a8eb,676192165fb32c2e1fb7aee6,67d169881580d2627f6df2be,2025-03-12_12h01.38.671,Tarea de decisión léxica,2024.2.5,Win32,142.8571429,,,,,,,,,,,,,,,,,,,,,,,154.156,155.1619,a,1,0.3512,,0.3512,1,155.1619,155.6621,,,,,,352,MAS,NOWORD,DIS,150,duepo,,la,,155.6622,155.6622,0.108333333,-0.178703704,0,0,0,,0,36,36,351,1,vuelo,,,,
,,,,,,5baa866b7c0ebe000127a8eb,676192165fb32c2e1fb7aee6,67d169881580d2627f6df2be,2025-03-12_12h01.38.671,Tarea de decisión léxica,2024.2.5,Win32,142.8571429,,,,,,,,,,,,,,,,,,,,,,,155.6625,156.7176,a,1,0.3958,,0.3958,1,156.7177,157.2178,,,,,,124,FEM,NOWORD,DIS,150,maba,,el,,157.2178,157.2178,0.108333333,-0.178703704,0,0,0,,0,37,37,123,1,flor,,,,
,,,,,,5baa866b7c0ebe000127a8eb,676192165fb32c2e1fb7aee6,67d169881580d2627f6df2be,2025-03-12_12h01.38.671,Tarea de decisión léxica,2024.2.5,Win32,142.8571429,,,,,,,,,,,,,,,,,,,,,,,157.2183,158.2387,l,1,0.3641,,0.3641,1,158.2387,158.7388,,,,,,171,MAS,WORD,DIS,150,hilo,,la,,158.7388,158.7388,0.108333333,-0.178703704,0,0,0,,0,38,38,170,1,niro,,,,
,,,,,,5baa866b7c0ebe000127a8eb,676192165fb32c2e1fb7aee6,67d169881580d2627f6df2be,2025-03-12_12h01.38.671,Tarea de decisión léxica,2024.2.5,Win32,142.8571429,,,,,,,,,,,,,,,,,,,,,,,158.7392,159.85,a,1,0.4551,,0.4551,1,159.85,160.3501,,,,,,46,FEM,NOWORD,AGR,150,pema,,la,,160.3501,160.3501,0.108333333,-0.178703704,0,0,0,,0,39,39,45,1,mesa,,,,
,,,,,,5baa866b7c0ebe000127a8eb,676192165fb32c2e1fb7aee6,67d169881580d2627f6df2be,2025-03-12_12h01.38.671,Tarea de decisión léxica,2024.2.5,Win32,142.8571429,,,,,,,,,,,,,,,,,,,,,,,160.3506,161.4337,a,1,0.4237,,0.4237,1,161.4337,161.9336,,,,,,156,FEM,NOWORD,DIS,150,luma,,el,,161.9342,161.9345,0.108333333,-0.178703704,0,0,0,,0,40,40,155,1,fuga,,,,
,,,,,,5baa866b7c0ebe000127a8eb,676192165fb32c2e1fb7aee6,67d169881580d2627f6df2be,2025-03-12_12h01.38.671,Tarea de decisión léxica,2024.2.5,Win32,142.8571429,,,,,,,,,,,,,,,,,,,,,,,161.9349,162.8713,l,1,0.2814,,0.2814,1,162.8714,163.3713,,,,,,311,MAS,WORD,DIS,150,honor,,la,,163.3714,163.3714,0.108333333,-0.178703704,0,0,0,,0,41,41,310,1,nosor,,,,
,,,,,,5baa866b7c0ebe000127a8eb,676192165fb32c2e1fb7aee6,67d169881580d2627f6df2be,2025-03-12_12h01.38.671,Tarea de decisión léxica,2024.2.5,Win32,142.8571429,,,,,,,,,,,,,,,,,,,,,,,163.3718,164.4479,a,1,0.4166,,0.4166,1,164.448,164.9479,,,,,,356,FEM,NOWORD,DIS,150,bepla,,el,,164.9479,164.9479,0.108333333,-0.178703704,0,0,0,,0,42,42,355,1,regla,,,,
,,,,,,5baa866b7c0ebe000127a8eb,676192165fb32c2e1fb7aee6,67d169881580d2627f6df2be,2025-03-12_12h01.38.671,Tarea de decisión léxica,2024.2.5,Win32,142.8571429,,,,,,,,,,,,,,,,,,,,,,,164.9484,165.8855,l,1,0.2791,,0.2791,1,165.8856,166.3857,,,,,,119,MAS,WORD,AGR,150,pozo,,el,,166.3858,166.3858,0.108333333,-0.178703704,0,0,0,,0,43,43,118,1,hooy,,,,
,,,,,,5baa866b7c0ebe000127a8eb,676192165fb32c2e1fb7aee6,67d169881580d2627f6df2be,2025-03-12_12h01.38.671,Tarea de decisión léxica,2024.2.5,Win32,142.8571429,,,,,,,,,,,,,,,,,,,,,,,166.3863,167.4276,a,1,0.3854,,0.3854,1,167.4276,167.9276,,,,,,18,FEM,NOWORD,AGR,150,paba,,la,,167.9276,167.9276,0.108333333,-0.178703704,0,0,0,,0,44,44,17,1,mamá,,,,
,,,,,,5baa866b7c0ebe000127a8eb,676192165fb32c2e1fb7aee6,67d169881580d2627f6df2be,2025-03-12_12h01.38.671,Tarea de decisión léxica,2024.2.5,Win32,142.8571429,,,,,,,,,,,,,,,,,,,,,,,167.9281,168.9485,a,0,0.3615,,0.3615,0,168.9488,169.4486,,,,,,425,FEM,WORD,AGR,150,viuda,,la,,169.449,169.4494,0.108333333,-0.178703704,0,0,0,,0,45,45,424,1,virca,,,,
,,,,,,5baa866b7c0ebe000127a8eb,676192165fb32c2e1fb7aee6,67d169881580d2627f6df2be,2025-03-12_12h01.38.671,Tarea de decisión léxica,2024.2.5,Win32,142.8571429,,,,,,,,,,,,,,,,,,,,,,,169.4497,170.6709,a,1,0.5663,,0.5663,1,170.6712,171.171,,,,,,454,FEM,NOWORD,AGR,150,pafia,,la,,171.171,171.171,0.108333333,-0.178703704,0,0,0,,0,46,46,453,1,mafia,,,,
,,,,,,5baa866b7c0ebe000127a8eb,676192165fb32c2e1fb7aee6,67d169881580d2627f6df2be,2025-03-12_12h01.38.671,Tarea de decisión léxica,2024.2.5,Win32,142.8571429,,,,,,,,,,,,,,,,,,,,,,,171.1715,172.2198,a,1,0.3888,,0.3888,1,172.2198,172.7199,,,,,,390,MAS,NOWORD,AGR,150,cenco,,el,,172.7199,172.7199,0.108333333,-0.178703704,0,0,0,,0,47,47,389,1,cerdo,,,,
,,,,,,5baa866b7c0ebe000127a8eb,676192165fb32c2e1fb7aee6,67d169881580d2627f6df2be,2025-03-12_12h01.38.671,Tarea de decisión léxica,2024.2.5,Win32,142.8571429,,,,,,,,,,,,,,,,,,,,,,,172.7203,173.7617,a,1,0.3823,,0.3823,1,173.7617,174.2617,,,,,,140,MAS,NOWORD,DIS,150,nila,,la,,174.2617,174.2617,0.108333333,-0.178703704,0,0,0,,0,48,48,139,1,mago,,,,
,,,,,,5baa866b7c0ebe000127a8eb,676192165fb32c2e1fb7aee6,67d169881580d2627f6df2be,2025-03-12_12h01.38.671,Tarea de decisión léxica,2024.2.5,Win32,142.8571429,,,,,,,,,,,,,,,,,,,,,,,174.2621,175.2687,l,1,0.3478,,0.3478,1,175.2688,175.7687,,,,,,85,MAS,WORD,AGR,150,lago,,el,,175.7688,175.7688,0.108333333,-0.178703704,0,0,0,,0,49,49,84,1,babo,,,,
,,,,,,5baa866b7c0ebe000127a8eb,676192165fb32c2e1fb7aee6,67d169881580d2627f6df2be,2025-03-12_12h01.38.671,Tarea de decisión léxica,2024.2.5,Win32,142.8571429,,,,,,,,,,,,,,,,,,,,,,,175.7692,176.8037,a,1,0.3751,,0.3751,1,176.8037,177.3037,,,,,,302,FEM,NOWORD,AGR,150,ranga,,la,,177.3041,177.3044,0.108333333,-0.178703704,0,0,0,,0,50,50,301,1,banda,,,,
,,,,,,5baa866b7c0ebe000127a8eb,676192165fb32c2e1fb7aee6,67d169881580d2627f6df2be,2025-03-12_12h01.38.671,Tarea de decisión léxica,2024.2.5,Win32,142.8571429,,,,,,,,,,,,,,,,,,,,,,,177.3048,178.3456,l,1,0.3822,,0.3822,1,178.3456,178.8457,,,,,,201,FEM,WORD,DIS,150,cuna,,el,,178.8457,178.8457,0.108333333,-0.178703704,0,0,0,,0,51,51,200,1,cusa,,,,
,,,,,,5baa866b7c0ebe000127a8eb,676192165fb32c2e1fb7aee6,67d169881580d2627f6df2be,2025-03-12_12h01.38.671,Tarea de decisión léxica,2024.2.5,Win32,142.8571429,,,,,,,,,,,,,,,,,,,,,,,178.8462,179.8597,a,1,0.3582,,0.3582,1,179.8597,180.3597,,,,,,218,MAS,NOWORD,AGR,150,budo,,el,,180.3597,180.3598,0.108333333,-0.178703704,0,0,0,,0,52,52,217,1,luto,,,,
,,,,,,5baa866b7c0ebe000127a8eb,676192165fb32c2e1fb7aee6,67d169881580d2627f6df2be,2025-03-12_12h01.38.671,Tarea de decisión léxica,2024.2.5,Win32,142.8571429,,,,,,,,,,,,,,,,,,,,,,,180.3602,181.3044,l,1,0.2851,,0.2851,1,181.3044,181.8044,,,,,,275,MAS,WORD,AGR,150,punto,,el,,181.8044,181.8045,0.108333333,-0.178703704,0,0,0,,0,53,53,274,1,musto,,,,
,,,,,,5baa866b7c0ebe000127a8eb,676192165fb32c2e1fb7aee6,67d169881580d2627f6df2be,2025-03-12_12h01.38.671,Tarea de decisión léxica,2024.2.5,Win32,142.8571429,,,,,,,,,,,,,,,,,,,,,,,181.8049,182.8113,l,1,0.3484,,0.3484,1,182.8114,183.3114,,,,,,465,FEM,WORD,DIS,150,aguja,,el,,183.3114,183.3114,0.108333333,-0.178703704,0,0,0,,0,54,54,464,1,asuba,,,,
,,,,,,5baa866b7c0ebe000127a8eb,676192165fb32c2e1fb7aee6,67d169881580d2627f6df2be,2025-03-12_12h01.38.671,Tarea de decisión léxica,2024.2.5,Win32,142.8571429,,,,,,,,,,,,,,,,,,,,,,,183.3119,184.3741,a,1,0.403,,0.403,1,184.3741,184.8741,,,,,,154,MAS,NOWORD,AGR,150,tado,,el,,184.8746,184.8748,0.108333333,-0.178703704,0,0,0,,0,55,55,153,1,pato,,,,
,,,,,,5baa866b7c0ebe000127a8eb,676192165fb32c2e1fb7aee6,67d169881580d2627f6df2be,2025-03-12_12h01.38.671,Tarea de decisión léxica,2024.2.5,Win32,142.8571429,,,,,,,,,,,,,,,,,,,,,,,184.8751,185.7979,l,1,0.2645,,0.2645,1,185.7979,186.2979,,,,,,147,FEM,WORD,DIS,150,hoja,,el,,186.2979,186.298,0.108333333,-0.178703704,0,0,0,,0,56,56,146,1,pama,,,,
,,,,,,5baa866b7c0ebe000127a8eb,676192165fb32c2e1fb7aee6,67d169881580d2627f6df2be,2025-03-12_12h01.38.671,Tarea de decisión léxica,2024.2.5,Win32,142.8571429,,,,,,,,,,,,,,,,,,,,,,,186.2985,187.4508,l,1,0.4949,,0.4949,1,187.4509,187.951,,,,,,287,FEM,WORD,AGR,150,lista,,la,,187.951,187.951,0.108333333,-0.178703704,0,0,0,,0,57,57,286,1,fosta,,,,
,,,,,,5baa866b7c0ebe000127a8eb,676192165fb32c2e1fb7aee6,67d169881580d2627f6df2be,2025-03-12_12h01.38.671,Tarea de decisión léxica,2024.2.5,Win32,142.8571429,,,,,,,,,,,,,,,,,,,,,,,187.9515,188.8539,l,0,0.2444,,0.2444,0,188.8542,189.3538,,,,,,174,FEM,NOWORD,AGR,150,boma,,la,,189.3539,189.354,0.108333333,-0.178703704,0,0,0,,0,58,58,173,1,rosa,,,,
,,,,,,5baa866b7c0ebe000127a8eb,676192165fb32c2e1fb7aee6,67d169881580d2627f6df2be,2025-03-12_12h01.38.671,Tarea de decisión léxica,2024.2.5,Win32,142.8571429,,,,,,,,,,,,,,,,,,,,,,,189.3544,190.6873,l,1,0.676,,0.676,1,190.6876,191.1874,,,,,,137,MAS,WORD,AGR,150,nene,,el,,191.1879,191.1882,0.108333333,-0.178703704,0,0,0,,0,59,59,136,1,pamo,,,,
,,,,,,5baa866b7c0ebe000127a8eb,676192165fb32c2e1fb7aee6,67d169881580d2627f6df2be,2025-03-12_12h01.38.671,Tarea de decisión léxica,2024.2.5,Win32,142.8571429,,,,,,,,,,,,,,,,,,,,,,,191.1886,192.1875,a,1,0.3426,,0.3426,1,192.1876,192.6877,,,,,,74,MAS,NOWORD,AGR,150,omio,,el,,192.6877,192.6877,0.108333333,-0.178703704,0,0,0,,0,60,60,73,1,odio,,,,
,,,,,,5baa866b7c0ebe000127a8eb,676192165fb32c2e1fb7aee6,67d169881580d2627f6df2be,2025-03-12_12h01.38.671,Tarea de decisión léxica,2024.2.5,Win32,142.8571429,,,,,,,,,,,,,,,,,,,,,,,192.6881,193.8754,a,1,0.5279,,0.5279,1,193.8754,194.3754,,,,,,100,MAS,NOWORD,DIS,150,soro,,la,,194.3754,194.3755,0.108333333,-0.178703704,0,0,0,,0,61,61,99,1,lobo,,,,
,,,,,,5baa866b7c0ebe000127a8eb,676192165fb32c2e1fb7aee6,67d169881580d2627f6df2be,2025-03-12_12h01.38.671,Tarea de decisión léxica,2024.2.5,Win32,142.8571429,,,,,,,,,,,,,,,,,,,,,,,194.3759,195.4797,l,1,0.4448,,0.4448,1,195.4798,195.9799,,,,,,183,FEM,WORD,DIS,150,raya,,el,,195.9799,195.9799,0.108333333,-0.178703704,0,0,0,,0,62,62,182,1,raad,,,,
,,,,,,5baa866b7c0ebe000127a8eb,676192165fb32c2e1fb7aee6,67d169881580d2627f6df2be,2025-03-12_12h01.38.671,Tarea de decisión léxica,2024.2.5,Win32,142.8571429,,,,,,,,,,,,,,,,,,,,,,,195.9804,197.0006,l,1,0.3619,,0.3619,1,197.0006,197.5007,,,,,,399,MAS,WORD,DIS,150,techo,,la,,197.5007,197.5008,0.108333333,-0.178703704,0,0,0,,0,63,63,398,1,serro,,,,
,,,,,,5baa866b7c0ebe000127a8eb,676192165fb32c2e1fb7aee6,67d169881580d2627f6df2be,2025-03-12_12h01.38.671,Tarea de decisión léxica,2024.2.5,Win32,142.8571429,,,,,,,,,,,,,,,,,,,,,,,197.5012,198.6884,a,1,0.529,,0.529,1,198.6884,199.1884,,,,,,182,FEM,NOWORD,AGR,150,teda,,la,,199.1888,199.189,0.108333333,-0.178703704,0,0,0,,0,64,64,181,1,seda,,,,
,,,,,,5baa866b7c0ebe000127a8eb,676192165fb32c2e1fb7aee6,67d169881580d2627f6df2be,2025-03-12_12h01.38.671,Tarea de decisión léxica,2024.2.5,Win32,142.8571429,,,,,,,,,,,,,,,,,,,,,,,199.1893,200.3066,l,1,0.4583,,0.4583,1,200.3067,200.8068,,,,,,81,FEM,WORD,AGR,150,dama,,la,,200.8068,200.8068,0.108333333,-0.178703704,0,0,0,,0,65,65,80,1,vasa,,,,
,,,,,,5baa866b7c0ebe000127a8eb,676192165fb32c2e1fb7aee6,67d169881580d2627f6df2be,2025-03-12_12h01.38.671,Tarea de decisión léxica,2024.2.5,Win32,142.8571429,,,,,,,,,,,,,,,,,,,,,,,200.8072,201.7584,l,1,0.2922,,0.2922,1,201.7584,202.2585,,,,,,77,MAS,WORD,DIS,150,loco,,la,,202.2585,202.2585,0.108333333,-0.178703704,0,0,0,,0,66,66,76,1,fodo,,,,
,,,,,,5baa866b7c0ebe000127a8eb,676192165fb32c2e1fb7aee6,67d169881580d2627f6df2be,2025-03-12_12h01.38.671,Tarea de decisión léxica,2024.2.5,Win32,142.8571429,,,,,,,,,,,,,,,,,,,,,,,202.259,203.1822,l,1,0.2643,,0.2643,1,203.1822,203.6823,,,,,,125,MAS,WORD,AGR,150,lujo,,el,,203.6823,203.6823,0.108333333,-0.178703704,0,0,0,,0,67,67,124,1,vudo,,,,
,,,,,,5baa866b7c0ebe000127a8eb,676192165fb32c2e1fb7aee6,67d169881580d2627f6df2be,2025-03-12_12h01.38.671,Tarea de decisión léxica,2024.2.5,Win32,142.8571429,,,,,,,,,,,,,,,,,,,,,,,203.6827,204.6683,l,1,0.3286,,0.3286,1,204.6684,205.1684,,,,,,265,FEM,WORD,AGR,150,mitad,,la,,205.1684,205.1684,0.108333333,-0.178703704,0,0,0,,0,68,68,264,1,pitat,,,,
,,,,,,5baa866b7c0ebe000127a8eb,676192165fb32c2e1fb7aee6,67d169881580d2627f6df2be,2025-03-12_12h01.38.671,Tarea de decisión léxica,2024.2.5,Win32,142.8571429,,,,,,,,,,,,,,,,,,,,,,,205.1688,206.4394,l,1,0.6141,,0.6141,1,206.4395,206.9395,,,,,,247,FEM,WORD,AGR,150,chica,,la,,206.9398,206.9401,0.108333333,-0.178703704,0,0,0,,0,69,69,246,1,trida,,,,
,,,,,,5baa866b7c0ebe000127a8eb,676192165fb32c2e1fb7aee6,67d169881580d2627f6df2be,2025-03-12_12h01.38.671,Tarea de decisión léxica,2024.2.5,Win32,142.8571429,,,,,,,,,,,,,,,,,,,,,,,206.9404,207.8771,l,1,0.2779,,0.2779,1,207.8772,208.3772,,,,,,25,FEM,WORD,AGR,150,cama,,la,,208.3772,208.3773,0.108333333,-0.178703704,0,0,0,,0,70,70,24,1,paza,,,,
,,,,,,5baa866b7c0ebe000127a8eb,676192165fb32c2e1fb7aee6,67d169881580d2627f6df2be,2025-03-12_12h01.38.671,Tarea de decisión léxica,2024.2.5,Win32,142.8571429,,,,,,,,,,,,,,,,,,,,,,,208.3777,209.4677,a,1,0.4344,,0.4344,1,209.4677,209.9678,,,,,,16,FEM,NOWORD,DIS,150,odea,,el,,209.9678,209.9678,0.108333333,-0.178703704,0,0,0,,0,71,71,15,1,idea,,,,
,,,,,,5baa866b7c0ebe000127a8eb,676192165fb32c2e1fb7aee6,67d169881580d2627f6df2be,2025-03-12_12h01.38.671,Tarea de decisión léxica,2024.2.5,Win32,142.8571429,,,,,,,,,,,,,,,,,,,,,,,209.9682,210.9609,l,1,0.3326,,0.3326,1,210.9609,211.4609,,,,,,443,MAS,WORD,DIS,150,salón,,la,,211.461,211.461,0.108333333,-0.178703704,0,0,0,,0,72,72,442,1,taron,,,,
,,,,,,5baa866b7c0ebe000127a8eb,676192165fb32c2e1fb7aee6,67d169881580d2627f6df2be,2025-03-12_12h01.38.671,Tarea de decisión léxica,2024.2.5,Win32,142.8571429,,,,,,,,,,,,,,,,,,,,,,,211.4614,212.5999,a,1,0.4827,,0.4827,1,212.5999,213.1,,,,,,50,FEM,NOWORD,AGR,150,ecat,,la,,213.1,213.1,0.108333333,-0.178703704,0,0,0,,0,73,73,49,1,edad,,,,
,,,,,,5baa866b7c0ebe000127a8eb,676192165fb32c2e1fb7aee6,67d169881580d2627f6df2be,2025-03-12_12h01.38.671,Tarea de decisión léxica,2024.2.5,Win32,142.8571429,,,,,,,,,,,,,,,,,,,,,,,213.1005,214.0586,l,0,0.2996,,0.2996,0,214.0589,214.5586,,,,,,40,MAS,NOWORD,DIS,150,redo,,la,,214.5591,214.5593,0.108333333,-0.178703704,0,0,0,,0,74,74,39,1,voto,,,,
,,,,,,5baa866b7c0ebe000127a8eb,676192165fb32c2e1fb7aee6,67d169881580d2627f6df2be,2025-03-12_12h01.38.671,Tarea de decisión léxica,2024.2.5,Win32,142.8571429,,,,,,,,,,,,,,,,,,,,,,,214.5595,215.4892,l,1,0.2732,,0.2732,1,215.4894,215.9893,,,,,,245,FEM,WORD,DIS,150,madre,,el,,215.9893,215.9893,0.108333333,-0.178703704,0,0,0,,0,75,75,244,1,pafle,,,,
,,,,,,5baa866b7c0ebe000127a8eb,676192165fb32c2e1fb7aee6,67d169881580d2627f6df2be,2025-03-12_12h01.38.671,Tarea de decisión léxica,2024.2.5,Win32,142.8571429,,,,,,,,,,,,,,,,,,,,,,,215.9897,217.163,a,1,0.5145,,0.5145,1,217.163,217.6631,,,,,,282,MAS,NOWORD,AGR,150,cauro,,el,,217.6632,217.6632,0.108333333,-0.178703704,0,0,0,,0,76,76,281,1,cielo,,,,
,,,,,,5baa866b7c0ebe000127a8eb,676192165fb32c2e1fb7aee6,67d169881580d2627f6df2be,2025-03-12_12h01.38.671,Tarea de decisión léxica,2024.2.5,Win32,142.8571429,,,,,,,,,,,,,,,,,,,,,,,217.6636,218.6215,a,0,0.2987,,0.2987,0,218.6219,219.1216,,,,,,333,FEM,WORD,AGR,150,tarea,,la,,219.1216,219.1217,0.108333333,-0.178703704,0,0,0,,0,77,77,332,1,dalea,,,,
,,,,,,5baa866b7c0ebe000127a8eb,676192165fb32c2e1fb7aee6,67d169881580d2627f6df2be,2025-03-12_12h01.38.671,Tarea de decisión léxica,2024.2.5,Win32,142.8571429,,,,,,,,,,,,,,,,,,,,,,,219.1223,220.2606,a,1,0.483,,0.483,1,220.2609,220.7607,,,,,,270,MAS,NOWORD,AGR,150,mello,,el,,220.7608,220.7608,0.108333333,-0.178703704,0,0,0,,0,78,78,269,1,perro,,,,
,,,,,,5baa866b7c0ebe000127a8eb,676192165fb32c2e1fb7aee6,67d169881580d2627f6df2be,2025-03-12_12h01.38.671,Tarea de decisión léxica,2024.2.5,Win32,142.8571429,,,,,,,,,,,,,,,,,,,,,,,220.7613,221.8372,l,1,0.42,,0.42,1,221.8372,222.3373,,,,,,133,FEM,WORD,DIS,150,vaca,,el,,222.3378,222.338,0.108333333,-0.178703704,0,0,0,,0,79,79,132,1,vesa,,,,
,,,,,,5baa866b7c0ebe000127a8eb,676192165fb32c2e1fb7aee6,67d169881580d2627f6df2be,2025-03-12_12h01.38.671,Tarea de decisión léxica,2024.2.5,Win32,142.8571429,,,,,,,,,,,,,,,,,,,,,,,222.3383,223.4763,l,1,0.4793,,0.4793,1,223.4764,223.9764,,,,,,459,MAS,WORD,AGR,150,grado,,el,,223.9765,223.9765,0.108333333,-0.178703704,0,0,0,,0,80,80,458,1,fraco,,,,
,,,,,,5baa866b7c0ebe000127a8eb,676192165fb32c2e1fb7aee6,67d169881580d2627f6df2be,2025-03-12_12h01.38.671,Tarea de decisión léxica,2024.2.5,Win32,142.8571429,,,,,,,,,,,,,,,,,,,,,,,223.977,224.9905,l,1,0.3565,,0.3565,1,224.9906,225.4906,,,,,,97,MAS,WORD,DIS,150,mono,,la,,225.4906,225.4906,0.108333333,-0.178703704,0,0,0,,0,81,81,96,1,fopo,,,,
,,,,,,5baa866b7c0ebe000127a8eb,676192165fb32c2e1fb7aee6,67d169881580d2627f6df2be,2025-03-12_12h01.38.671,Tarea de decisión léxica,2024.2.5,Win32,142.8571429,,,,,,,,,,,,,,,,,,,,,,,225.491,226.56,a,1,0.4142,,0.4142,1,226.5602,227.0601,,,,,,332,MAS,NOWORD,DIS,150,erato,,la,,227.0601,227.0602,0.108333333,-0.178703704,0,0,0,,0,82,82,331,1,éxito,,,,
,,,,,,5baa866b7c0ebe000127a8eb,676192165fb32c2e1fb7aee6,67d169881580d2627f6df2be,2025-03-12_12h01.38.671,Tarea de decisión léxica,2024.2.5,Win32,142.8571429,,,,,,,,,,,,,,,,,,,,,,,227.0605,228.234,a,1,0.5142,,0.5142,1,228.2341,228.734,,,,,,166,FEM,NOWORD,AGR,150,dera,,la,,228.7346,228.7348,0.108333333,-0.178703704,0,0,0,,0,83,83,165,1,vela,,,,
,,,,,,5baa866b7c0ebe000127a8eb,676192165fb32c2e1fb7aee6,67d169881580d2627f6df2be,2025-03-12_12h01.38.671,Tarea de decisión léxica,2024.2.5,Win32,142.8571429,,,,,,,,,,,,,,,,,,,,,,,228.7351,229.7966,a,1,0.4037,,0.4037,1,229.7967,230.2967,,,,,,392,MAS,NOWORD,DIS,150,dievo,,la,,230.2967,230.2968,0.108333333,-0.178703704,0,0,0,,0,84,84,391,1,dueño,,,,
,,,,,,5baa866b7c0ebe000127a8eb,676192165fb32c2e1fb7aee6,67d169881580d2627f6df2be,2025-03-12_12h01.38.671,Tarea de decisión léxica,2024.2.5,Win32,142.8571429,,,,,,,,,,,,,,,,,,,,,,,230.2974,231.3525,l,1,0.3971,,0.3971,1,231.3525,231.8525,,,,,,271,FEM,WORD,DIS,150,señal,,el,,231.8526,231.8526,0.108333333,-0.178703704,0,0,0,,0,85,85,270,1,refal,,,,
,,,,,,5baa866b7c0ebe000127a8eb,676192165fb32c2e1fb7aee6,67d169881580d2627f6df2be,2025-03-12_12h01.38.671,Tarea de decisión léxica,2024.2.5,Win32,142.8571429,,,,,,,,,,,,,,,,,,,,,,,231.8531,232.8386,a,1,0.3266,,0.3266,1,232.8387,233.3388,,,,,,136,MAS,NOWORD,DIS,150,geso,,la,,233.3388,233.3388,0.108333333,-0.178703704,0,0,0,,0,86,86,135,1,tubo,,,,
,,,,,,5baa866b7c0ebe000127a8eb,676192165fb32c2e1fb7aee6,67d169881580d2627f6df2be,2025-03-12_12h01.38.671,Tarea de decisión léxica,2024.2.5,Win32,142.8571429,,,,,,,,,,,,,,,,,,,,,,,233.3393,234.575,a,1,0.5789,,0.5789,1,234.575,235.0751,,,,,,212,FEM,NOWORD,DIS,150,joad,,el,,235.0751,235.0751,0.108333333,-0.178703704,0,0,0,,0,87,87,211,1,joya,,,,
,,,,,,5baa866b7c0ebe000127a8eb,676192165fb32c2e1fb7aee6,67d169881580d2627f6df2be,2025-03-12_12h01.38.671,Tarea de decisión léxica,2024.2.5,Win32,142.8571429,,,,,,,,,,,,,,,,,,,,,,,235.0755,235.9987,a,1,0.2646,,0.2646,1,235.9988,236.499,,,,,,104,FEM,NOWORD,DIS,150,rova,,el,,236.4994,236.4996,0.108333333,-0.178703704,0,0,0,,0,88,88,103,1,ruta,,,,
,,,,,,5baa866b7c0ebe000127a8eb,676192165fb32c2e1fb7aee6,67d169881580d2627f6df2be,2025-03-12_12h01.38.671,Tarea de decisión léxica,2024.2.5,Win32,142.8571429,,,,,,,,,,,,,,,,,,,,,,,236.4999,237.5337,l,1,0.3746,,0.3746,1,237.5337,238.0338,,,,,,391,MAS,WORD,AGR,150,dueño,,el,,238.0338,238.0338,0.108333333,-0.178703704,0,0,0,,0,89,89,390,1,dievo,,,,
,,,,,,5baa866b7c0ebe000127a8eb,676192165fb32c2e1fb7aee6,67d169881580d2627f6df2be,2025-03-12_12h01.38.671,Tarea de decisión léxica,2024.2.5,Win32,142.8571429,,,,,,,,,,,,,,,,,,,,,,,238.0343,239.02,l,1,0.3262,,0.3262,1,239.0201,239.5202,,,,,,225,MAS,WORD,AGR,150,lodo,,el,,239.5202,239.5202,0.108333333,-0.178703704,0,0,0,,0,90,90,224,1,boco,,,,
,,,,,,5baa866b7c0ebe000127a8eb,676192165fb32c2e1fb7aee6,67d169881580d2627f6df2be,2025-03-12_12h01.38.671,Tarea de decisión léxica,2024.2.5,Win32,142.8571429,,,,,,,,,,,,,,,,,,,,,,,239.5207,240.4578,l,1,0.2791,,0.2791,1,240.4578,240.9579,,,,,,167,FEM,WORD,DIS,150,jefa,,el,,240.9579,240.9579,0.108333333,-0.178703704,0,0,0,,0,91,91,166,1,zifa,,,,
,,,,,,5baa866b7c0ebe000127a8eb,676192165fb32c2e1fb7aee6,67d169881580d2627f6df2be,2025-03-12_12h01.38.671,Tarea de decisión léxica,2024.2.5,Win32,142.8571429,,,,,,,,,,,,,,,,,,,,,,,240.9583,241.9581,a,0,0.344,,0.344,0,241.9583,242.4581,,,,,,479,MAS,WORD,AGR,150,rumbo,,el,,242.4581,242.4581,0.108333333,-0.178703704,0,0,0,,0,92,92,478,1,rimpo,,,,
,,,,,,5baa866b7c0ebe000127a8eb,676192165fb32c2e1fb7aee6,67d169881580d2627f6df2be,2025-03-12_12h01.38.671,Tarea de decisión léxica,2024.2.5,Win32,142.8571429,,,,,,,,,,,,,,,,,,,,,,,242.4586,243.5345,a,0,0.4202,,0.4202,0,243.5345,244.0346,,,,,,457,MAS,WORD,DIS,150,plato,,la,,244.035,244.0352,0.108333333,-0.178703704,0,0,0,,0,93,93,456,1,glaco,,,,
,,,,,,5baa866b7c0ebe000127a8eb,676192165fb32c2e1fb7aee6,67d169881580d2627f6df2be,2025-03-12_12h01.38.671,Tarea de decisión léxica,2024.2.5,Win32,142.8571429,,,,,,,,,,,,,,,,,,,,,,,244.0355,245.1667,a,1,0.4722,,0.4722,1,245.167,245.6668,,,,,,266,FEM,NOWORD,AGR,150,pitat,,la,,245.6668,245.6668,0.108333333,-0.178703704,0,0,0,,0,94,94,265,1,mitad,,,,
,,,,,,5baa866b7c0ebe000127a8eb,676192165fb32c2e1fb7aee6,67d169881580d2627f6df2be,2025-03-12_12h01.38.671,Tarea de decisión léxica,2024.2.5,Win32,142.8571429,,,,,,,,,,,,,,,,,,,,,,,245.6672,246.7918,l,1,0.4691,,0.4691,1,246.7918,247.2919,,,,,,279,FEM,WORD,DIS,150,prisa,,el,,247.2919,247.2919,0.108333333,-0.178703704,0,0,0,,0,95,95,278,1,grina,,,,
,,,,,,5baa866b7c0ebe000127a8eb,676192165fb32c2e1fb7aee6,67d169881580d2627f6df2be,2025-03-12_12h01.38.671,Tarea de decisión léxica,2024.2.5,Win32,142.8571429,,,,,,,,,,,,,,,,,,,,,,,247.2924,248.4587,a,1,0.5076,,0.5076,1,248.4588,248.9588,,,,,,366,FEM,NOWORD,AGR,150,gulla,,la,,248.9588,248.9588,0.108333333,-0.178703704,0,0,0,,0,96,96,365,1,ducha,,,,
,,,,,,5baa866b7c0ebe000127a8eb,676192165fb32c2e1fb7aee6,67d169881580d2627f6df2be,2025-03-12_12h01.38.671,Tarea de decisión léxica,2024.2.5,Win32,142.8571429,,,,,,,,,,,,,,,,,,,,,,,248.9592,250.1465,a,1,0.5292,,0.5292,1,250.1466,250.6466,,,,,,36,MAS,NOWORD,DIS,150,meno,,la,,250.6466,250.6466,0.108333333,-0.178703704,0,0,0,,0,97,97,35,1,pelo,,,,
,,,,,,5baa866b7c0ebe000127a8eb,676192165fb32c2e1fb7aee6,67d169881580d2627f6df2be,2025-03-12_12h01.38.671,Tarea de decisión léxica,2024.2.5,Win32,142.8571429,,,,,,,,,,,,,,,,,,,,,,,250.6471,251.7092,l,1,0.4029,,0.4029,1,251.7092,252.2093,,,,,,39,MAS,WORD,AGR,150,voto,,el,,252.2096,252.2098,0.108333333,-0.178703704,0,0,0,,0,98,98,38,1,redo,,,,
,,,,,,5baa866b7c0ebe000127a8eb,676192165fb32c2e1fb7aee6,67d169881580d2627f6df2be,2025-03-12_12h01.38.671,Tarea de decisión léxica,2024.2.5,Win32,142.8571429,,,,,,,,,,,,,,,,,,,,,,,252.2101,253.3414,l,0,0.4726,,0.4726,0,253.3418,253.8414,,,,,,206,FEM,NOWORD,AGR,150,bara,,la,,253.8415,253.8415,0.108333333,-0.178703704,0,0,0,,0,99,99,205,1,rana,,,,
,,,,,,5baa866b7c0ebe000127a8eb,676192165fb32c2e1fb7aee6,67d169881580d2627f6df2be,2025-03-12_12h01.38.671,Tarea de decisión léxica,2024.2.5,Win32,142.8571429,,,,,,,,,,,,,,,,,,,,,,,253.8422,254.9109,l,1,0.4142,,0.4142,1,254.9113,255.411,,,,,,83,FEM,WORD,DIS,150,bala,,el,,255.4111,255.4111,0.108333333,-0.178703704,0,0,0,,0,100,100,82,1,taga,,,,
,,,,,,5baa866b7c0ebe000127a8eb,676192165fb32c2e1fb7aee6,67d169881580d2627f6df2be,2025-03-12_12h01.38.671,Tarea de decisión léxica,2024.2.5,Win32,142.8571429,,,,,,,,,,,,,,,,,,,,,,,255.4115,256.4182,l,1,0.3472,,0.3472,1,256.4182,256.9183,,,,,,413,FEM,WORD,DIS,150,rueda,,el,,256.9183,256.9184,0.108333333,-0.178703704,0,0,0,,0,101,101,412,1,bieda,,,,
,,,,,,5baa866b7c0ebe000127a8eb,676192165fb32c2e1fb7aee6,67d169881580d2627f6df2be,2025-03-12_12h01.38.671,Tarea de decisión léxica,2024.2.5,Win32,142.8571429,,,,,,,,,,,,,,,,,,,,,,,256.9187,257.9323,l,1,0.3585,,0.3585,1,257.9324,258.4323,,,,,,203,FEM,WORD,AGR,150,leña,,la,,258.4323,258.4324,0.108333333,-0.178703704,0,0,0,,0,102,102,202,1,beja,,,,
,,,,,,5baa866b7c0ebe000127a8eb,676192165fb32c2e1fb7aee6,67d169881580d2627f6df2be,2025-03-12_12h01.38.671,Tarea de decisión léxica,2024.2.5,Win32,142.8571429,,,,,,,,,,,,,,,,,,,,,,,258.4328,259.6547,a,1,0.5626,,0.5626,1,259.6548,260.1547,,,,,,362,FEM,NOWORD,AGR,150,solle,,la,,260.1551,260.1553,0.108333333,-0.178703704,0,0,0,,0,103,103,361,1,torre,,,,
,,,,,,5baa866b7c0ebe000127a8eb,676192165fb32c2e1fb7aee6,67d169881580d2627f6df2be,2025-03-12_12h01.38.671,Tarea de decisión léxica,2024.2.5,Win32,142.8571429,,,,,,,,,,,,,,,,,,,,,,,260.1556,261.2451,l,1,0.4342,,0.4342,1,261.2451,261.7452,,,,,,377,MAS,WORD,AGR,150,hielo,,el,,261.7452,261.7452,0.108333333,-0.178703704,0,0,0,,0,104,104,376,1,gaulo,,,,
,,,,,,5baa866b7c0ebe000127a8eb,676192165fb32c2e1fb7aee6,67d169881580d2627f6df2be,2025-03-12_12h01.38.671,Tarea de decisión léxica,2024.2.5,Win32,142.8571429,,,,,,,,,,,,,,,,,,,,,,,261.7457,262.7385,l,1,0.3336,,0.3336,1,262.7386,263.2386,,,,,,393,FEM,WORD,DIS,150,aldea,,el,,263.2386,263.2386,0.108333333,-0.178703704,0,0,0,,0,105,105,392,1,ashea,,,,
,,,,,,5baa866b7c0ebe000127a8eb,676192165fb32c2e1fb7aee6,67d169881580d2627f6df2be,2025-03-12_12h01.38.671,Tarea de decisión léxica,2024.2.5,Win32,142.8571429,,,,,,,,,,,,,,,,,,,,,,,263.2391,264.1692,l,1,0.2711,,0.2711,1,264.1692,264.6691,,,,,,179,MAS,WORD,DIS,150,toro,,la,,264.6692,264.6692,0.108333333,-0.178703704,0,0,0,,0,106,106,178,1,sono,,,,
,,,,,,5baa866b7c0ebe000127a8eb,676192165fb32c2e1fb7aee6,67d169881580d2627f6df2be,2025-03-12_12h01.38.671,Tarea de decisión léxica,2024.2.5,Win32,142.8571429,,,,,,,,,,,,,,,,,,,,,,,264.6696,265.5514,l,0,0.2221,,0.2221,0,265.5517,266.0514,,,,,,440,FEM,NOWORD,DIS,150,prema,,el,,266.0518,266.0521,0.108333333,-0.178703704,0,0,0,,0,107,107,439,1,presa,,,,
,,,,,,5baa866b7c0ebe000127a8eb,676192165fb32c2e1fb7aee6,67d169881580d2627f6df2be,2025-03-12_12h01.38.671,Tarea de decisión léxica,2024.2.5,Win32,142.8571429,,,,,,,,,,,,,,,,,,,,,,,266.0524,267.2806,a,1,0.5705,,0.5705,1,267.281,267.7807,,,,,,4,FEM,NOWORD,DIS,150,dica,,el,,267.7807,267.7808,0.108333333,-0.178703704,0,0,0,,0,108,108,3,1,vida,,,,
,,,,,,5baa866b7c0ebe000127a8eb,676192165fb32c2e1fb7aee6,67d169881580d2627f6df2be,2025-03-12_12h01.38.671,Tarea de decisión léxica,2024.2.5,Win32,142.8571429,,,,,,,,,,,,,,,,,,,,,,,267.7812,269.1144,a,1,0.6736,,0.6736,1,269.1144,269.6144,,,,,,314,MAS,NOWORD,AGR,150,govio,,el,,269.6144,269.6144,0.108333333,-0.178703704,0,0,0,,0,109,109,313,1,novio,,,,
,,,,,,5baa866b7c0ebe000127a8eb,676192165fb32c2e1fb7aee6,67d169881580d2627f6df2be,2025-03-12_12h01.38.671,Tarea de decisión léxica,2024.2.5,Win32,142.8571429,,,,,,,,,,,,,,,,,,,,,,,269.6148,270.6909,l,1,0.4195,,0.4195,1,270.6909,271.191,,,,,,461,FEM,WORD,DIS,150,tabla,,el,,271.191,271.191,0.108333333,-0.178703704,0,0,0,,0,110,110,460,1,pagra,,,,
,,,,,,5baa866b7c0ebe000127a8eb,676192165fb32c2e1fb7aee6,67d169881580d2627f6df2be,2025-03-12_12h01.38.671,Tarea de decisión léxica,2024.2.5,Win32,142.8571429,,,,,,,,,,,,,,,,,,,,,,,271.1915,272.2952,a,1,0.447,,0.447,1,272.2952,272.7953,,,,,,84,FEM,NOWORD,DIS,150,taga,,el,,272.7953,272.7954,0.108333333,-0.178703704,0,0,0,,0,111,111,83,1,bala,,,,
,,,,,,5baa866b7c0ebe000127a8eb,676192165fb32c2e1fb7aee6,67d169881580d2627f6df2be,2025-03-12_12h01.38.671,Tarea de decisión léxica,2024.2.5,Win32,142.8571429,,,,,,,,,,,,,,,,,,,,,,,272.7958,273.8162,l,1,0.3632,,0.3632,1,273.8162,274.3163,,,,,,165,FEM,WORD,AGR,150,vela,,la,,274.3167,274.317,0.108333333,-0.178703704,0,0,0,,0,112,112,164,1,dera,,,,
,,,,,,5baa866b7c0ebe000127a8eb,676192165fb32c2e1fb7aee6,67d169881580d2627f6df2be,2025-03-12_12h01.38.671,Tarea de decisión léxica,2024.2.5,Win32,142.8571429,,,,,,,,,,,,,,,,,,,,,,,274.3172,275.4484,a,1,0.4724,,0.4724,1,275.4485,275.9486,,,,,,472,FEM,NOWORD,DIS,150,prana,,el,,275.9486,275.9486,0.108333333,-0.178703704,0,0,0,,0,113,113,471,1,grasa,,,,
,,,,,,5baa866b7c0ebe000127a8eb,676192165fb32c2e1fb7aee6,67d169881580d2627f6df2be,2025-03-12_12h01.38.671,Tarea de decisión léxica,2024.2.5,Win32,142.8571429,,,,,,,,,,,,,,,,,,,,,,,275.949,276.9624,a,1,0.3582,,0.3582,1,276.9624,277.4626,,,,,,12,MAS,NOWORD,DIS,150,bapo,,la,,277.4626,277.4626,0.108333333,-0.178703704,0,0,0,,0,114,114,11,1,lado,,,,
,,,,,,5baa866b7c0ebe000127a8eb,676192165fb32c2e1fb7aee6,67d169881580d2627f6df2be,2025-03-12_12h01.38.671,Tarea de decisión léxica,2024.2.5,Win32,142.8571429,,,,,,,,,,,,,,,,,,,,,,,277.463,278.664,a,1,0.542,,0.542,1,278.6641,279.1641,,,,,,446,MAS,NOWORD,AGR,150,ascor,,el,,279.1642,279.1642,0.108333333,-0.178703704,0,0,0,,0,115,115,445,1,actor,,,,
,,,,,,5baa866b7c0ebe000127a8eb,676192165fb32c2e1fb7aee6,67d169881580d2627f6df2be,2025-03-12_12h01.38.671,Tarea de decisión léxica,2024.2.5,Win32,142.8571429,,,,,,,,,,,,,,,,,,,,,,,279.1645,280.1226,l,1,0.2988,,0.2988,1,280.1226,280.6227,,,,,,437,FEM,WORD,DIS,150,plaza,,el,,280.6228,280.6229,0.108333333,-0.178703704,0,0,0,,0,116,116,436,1,glava,,,,
,,,,,,5baa866b7c0ebe000127a8eb,676192165fb32c2e1fb7aee6,67d169881580d2627f6df2be,2025-03-12_12h01.38.671,Tarea de decisión léxica,2024.2.5,Win32,142.8571429,,,,,,,,,,,,,,,,,,,,,,,280.6232,281.8451,a,1,0.5639,,0.5639,1,281.8452,282.3452,,,,,,122,MAS,NOWORD,AGR,150,bomo,,el,,282.3455,282.3458,0.108333333,-0.178703704,0,0,0,,0,117,117,121,1,hoyo,,,,
,,,,,,5baa866b7c0ebe000127a8eb,676192165fb32c2e1fb7aee6,67d169881580d2627f6df2be,2025-03-12_12h01.38.671,Tarea de decisión léxica,2024.2.5,Win32,142.8571429,,,,,,,,,,,,,,,,,,,,,,,282.346,283.4911,l,1,0.4861,,0.4861,1,283.4913,283.9911,,,,,,159,MAS,WORD,AGR,150,giro,,el,,283.9911,283.9911,0.108333333,-0.178703704,0,0,0,,0,118,118,158,1,bilo,,,,
,,,,,,5baa866b7c0ebe000127a8eb,676192165fb32c2e1fb7aee6,67d169881580d2627f6df2be,2025-03-12_12h01.38.671,Tarea de decisión léxica,2024.2.5,Win32,142.8571429,,,,,,,,,,,,,,,,,,,,,,,283.9916,285.1233,l,1,0.4764,,0.4764,1,285.1234,285.6235,,,,,,259,MAS,WORD,AGR,150,juego,,el,,285.6235,285.6235,0.108333333,-0.178703704,0,0,0,,0,119,119,258,1,jaumo,,,,
,,,,,,5baa866b7c0ebe000127a8eb,676192165fb32c2e1fb7aee6,67d169881580d2627f6df2be,2025-03-12_12h01.38.671,Tarea de decisión léxica,2024.2.5,Win32,142.8571429,,,,,,,,,,,,,,,,,,,,,,,285.624,286.6582,l,1,0.3763,,0.3763,1,286.6582,287.1583,,,,,,381,MAS,WORD,AGR,150,humor,,el,,287.1583,287.1583,0.108333333,-0.178703704,0,0,0,,0,120,120,380,1,nusor,,,,
,,,,,,5baa866b7c0ebe000127a8eb,676192165fb32c2e1fb7aee6,67d169881580d2627f6df2be,2025-03-12_12h01.38.671,Tarea de decisión léxica,2024.2.5,Win32,142.8571429,,,,,,,,,,,,,,,,,,,,,,,287.1586,288.1931,a,1,0.3772,,0.3772,1,288.1932,288.6932,,,,,,112,MAS,NOWORD,DIS,150,siro,,la,,288.6932,288.6933,0.108333333,-0.178703704,0,0,0,,0,121,121,111,1,muro,,,,
,,,,,,5baa866b7c0ebe000127a8eb,676192165fb32c2e1fb7aee6,67d169881580d2627f6df2be,2025-03-12_12h01.38.671,Tarea de decisión léxica,2024.2.5,Win32,142.8571429,,,,,,,,,,,,,,,,,,,,,,,288.6937,289.7003,l,1,0.3474,,0.3474,1,289.7003,290.2002,,,,,,31,FEM,WORD,DIS,150,ropa,,el,,290.2007,290.201,0.108333333,-0.178703704,0,0,0,,0,122,122,30,1,bova,,,,
,,,,,,5baa866b7c0ebe000127a8eb,676192165fb32c2e1fb7aee6,67d169881580d2627f6df2be,2025-03-12_12h01.38.671,Tarea de decisión léxica,2024.2.5,Win32,142.8571429,,,,,,,,,,,,,,,,,,,,,,,290.2013,291.2838,a,1,0.4228,,0.4228,1,291.2839,291.7839,,,,,,72,FEM,NOWORD,DIS,150,urla,,el,,291.784,291.784,0.108333333,-0.178703704,0,0,0,,0,123,123,71,1,isla,,,,
,,,,,,5baa866b7c0ebe000127a8eb,676192165fb32c2e1fb7aee6,67d169881580d2627f6df2be,2025-03-12_12h01.38.671,Tarea de decisión léxica,2024.2.5,Win32,142.8571429,,,,,,,,,,,,,,,,,,,,,,,291.7844,292.8535,l,1,0.41,,0.41,1,292.8535,293.3535,,,,,,241,MAS,WORD,DIS,150,mundo,,la,,293.3535,293.3536,0.108333333,-0.178703704,0,0,0,,0,124,124,240,1,mirdo,,,,
,,,,,,5baa866b7c0ebe000127a8eb,676192165fb32c2e1fb7aee6,67d169881580d2627f6df2be,2025-03-12_12h01.38.671,Tarea de decisión léxica,2024.2.5,Win32,142.8571429,,,,,,,,,,,,,,,,,,,,,,,293.354,294.5133,a,1,0.5028,,0.5028,1,294.5133,295.0135,,,,,,400,MAS,NOWORD,DIS,150,serro,,la,,295.0135,295.0135,0.108333333,-0.178703704,0,0,0,,0,125,125,399,1,techo,,,,
,,,,,,5baa866b7c0ebe000127a8eb,676192165fb32c2e1fb7aee6,67d169881580d2627f6df2be,2025-03-12_12h01.38.671,Tarea de decisión léxica,2024.2.5,Win32,142.8571429,,,,,,,,,,,,,,,,,,,,,,,295.0139,296.0206,l,1,0.3512,,0.3512,1,296.0207,296.5206,,,,,,449,FEM,WORD,AGR,150,pluma,,la,,296.5206,296.5207,0.108333333,-0.178703704,0,0,0,,0,126,126,448,1,crusa,,,,
,,,,,,5baa866b7c0ebe000127a8eb,676192165fb32c2e1fb7aee6,67d169881580d2627f6df2be,2025-03-12_12h01.38.671,Tarea de decisión léxica,2024.2.5,Win32,142.8571429,,,,,,,,,,,,,,,,,,,,,,,296.5212,297.5345,a,1,0.356,,0.356,1,297.5346,298.0346,,,,,,128,MAS,NOWORD,DIS,150,itio,,la,,298.035,298.0352,0.108333333,-0.178703704,0,0,0,,0,127,127,127,1,pico,,,,
,,,,,,5baa866b7c0ebe000127a8eb,676192165fb32c2e1fb7aee6,67d169881580d2627f6df2be,2025-03-12_12h01.38.671,Tarea de decisión léxica,2024.2.5,Win32,142.8571429,,,,,,,,,,,,,,,,,,,,,,,298.0355,299.0348,l,1,0.3417,,0.3417,1,299.0348,299.5347,,,,,,205,FEM,WORD,DIS,150,rana,,el,,299.5348,299.5348,0.108333333,-0.178703704,0,0,0,,0,128,128,204,1,bara,,,,
,,,,,,5baa866b7c0ebe000127a8eb,676192165fb32c2e1fb7aee6,67d169881580d2627f6df2be,2025-03-12_12h01.38.671,Tarea de decisión léxica,2024.2.5,Win32,142.8571429,,,,,,,,,,,,,,,,,,,,,,,299.5352,300.6739,a,0,0.4795,,0.4795,0,300.6742,301.174,,,,,,11,MAS,WORD,DIS,150,lado,,la,,301.174,301.174,0.108333333,-0.178703704,0,0,0,,0,129,129,10,1,bapo,,,,
,,,,,,5baa866b7c0ebe000127a8eb,676192165fb32c2e1fb7aee6,67d169881580d2627f6df2be,2025-03-12_12h01.38.671,Tarea de decisión léxica,2024.2.5,Win32,142.8571429,,,,,,,,,,,,,,,,,,,,,,,301.1744,302.3963,a,1,0.563,,0.563,1,302.3966,302.8964,,,,,,458,MAS,NOWORD,AGR,150,glaco,,el,,302.8965,302.8965,0.108333333,-0.178703704,0,0,0,,0,130,130,457,1,plato,,,,
,,,,,,5baa866b7c0ebe000127a8eb,676192165fb32c2e1fb7aee6,67d169881580d2627f6df2be,2025-03-12_12h01.38.671,Tarea de decisión léxica,2024.2.5,Win32,142.8571429,,,,,,,,,,,,,,,,,,,,,,,302.8969,303.98,l,1,0.4233,,0.4233,1,303.9801,304.48,,,,,,87,MAS,WORD,DIS,150,vaso,,la,,304.4804,304.4807,0.108333333,-0.178703704,0,0,0,,0,131,131,86,1,damo,,,,
,,,,,,5baa866b7c0ebe000127a8eb,676192165fb32c2e1fb7aee6,67d169881580d2627f6df2be,2025-03-12_12h01.38.671,Tarea de decisión léxica,2024.2.5,Win32,142.8571429,,,,,,,,,,,,,,,,,,,,,,,304.4809,305.4385,l,1,0.2988,,0.2988,1,305.4386,305.9385,,,,,,267,MAS,WORD,AGR,150,libro,,el,,305.9386,305.9386,0.108333333,-0.178703704,0,0,0,,0,132,132,266,1,figro,,,,
,,,,,,5baa866b7c0ebe000127a8eb,676192165fb32c2e1fb7aee6,67d169881580d2627f6df2be,2025-03-12_12h01.38.671,Tarea de decisión léxica,2024.2.5,Win32,142.8571429,,,,,,,,,,,,,,,,,,,,,,,305.9389,306.8899,l,1,0.2939,,0.2939,1,306.89,307.39,,,,,,113,FEM,WORD,DIS,150,miel,,el,,307.39,307.3901,0.108333333,-0.178703704,0,0,0,,0,133,133,112,1,tada,,,,
,,,,,,5baa866b7c0ebe000127a8eb,676192165fb32c2e1fb7aee6,67d169881580d2627f6df2be,2025-03-12_12h01.38.671,Tarea de decisión léxica,2024.2.5,Win32,142.8571429,,,,,,,,,,,,,,,,,,,,,,,307.3906,308.4318,a,1,0.3824,,0.3824,1,308.4319,308.9318,,,,,,44,FEM,NOWORD,DIS,150,meda,,el,,308.9318,308.9319,0.108333333,-0.178703704,0,0,0,,0,134,134,43,1,pena,,,,
,,,,,,5baa866b7c0ebe000127a8eb,676192165fb32c2e1fb7aee6,67d169881580d2627f6df2be,2025-03-12_12h01.38.671,Tarea de decisión léxica,2024.2.5,Win32,142.8571429,,,,,,,,,,,,,,,,,,,,,,,308.9323,309.9736,a,1,0.3856,,0.3856,1,309.9737,310.4737,,,,,,408,FEM,NOWORD,DIS,150,cauba,,el,,310.4737,310.4738,0.108333333,-0.178703704,0,0,0,,0,135,135,407,1,cueva,,,,
,,,,,,5baa866b7c0ebe000127a8eb,676192165fb32c2e1fb7aee6,67d169881580d2627f6df2be,2025-03-12_12h01.38.671,Tarea de decisión léxica,2024.2.5,Win32,142.8571429,,,,,,,,,,,,,,,,,,,,,,,310.4741,311.5157,l,1,0.3835,,0.3835,1,311.5158,312.0157,,,,,,293,MAS,WORD,DIS,150,campo,,la,,312.0161,312.0164,0.108333333,-0.178703704,0,0,0,,0,136,136,292,1,cacso,,,,
,,,,,,5baa866b7c0ebe000127a8eb,676192165fb32c2e1fb7aee6,67d169881580d2627f6df2be,2025-03-12_12h01.38.671,Tarea de decisión léxica,2024.2.5,Win32,142.8571429,,,,,,,,,,,,,,,,,,,,,,,312.0167,313.0158,l,0,0.3418,,0.3418,0,313.0161,313.5159,,,,,,404,FEM,NOWORD,DIS,150,grisa,,el,,313.5159,313.5159,0.108333333,-0.178703704,0,0,0,,0,137,137,403,1,prima,,,,
,,,,,,5baa866b7c0ebe000127a8eb,676192165fb32c2e1fb7aee6,67d169881580d2627f6df2be,2025-03-12_12h01.38.671,Tarea de decisión léxica,2024.2.5,Win32,142.8571429,,,,,,,,,,,,,,,,,,,,,,,313.5164,314.6479,l,1,0.4737,,0.4737,1,314.6482,315.1479,,,,,,79,FEM,WORD,DIS,150,piel,,el,,315.148,315.148,0.108333333,-0.178703704,0,0,0,,0,138,138,78,1,ciel,,,,
,,,,,,5baa866b7c0ebe000127a8eb,676192165fb32c2e1fb7aee6,67d169881580d2627f6df2be,2025-03-12_12h01.38.671,Tarea de decisión léxica,2024.2.5,Win32,142.8571429,,,,,,,,,,,,,,,,,,,,,,,315.1484,316.1828,l,1,0.3777,,0.3777,1,316.1829,316.683,,,,,,367,MAS,WORD,AGR,150,reloj,,el,,316.683,316.6831,0.108333333,-0.178703704,0,0,0,,0,139,139,366,1,rerob,,,,
,,,,,,5baa866b7c0ebe000127a8eb,676192165fb32c2e1fb7aee6,67d169881580d2627f6df2be,2025-03-12_12h01.38.671,Tarea de decisión léxica,2024.2.5,Win32,142.8571429,,,,,,,,,,,,,,,,,,,,,,,316.6833,317.7872,a,1,0.4446,,0.4446,1,317.7872,318.2873,,,,,,384,FEM,NOWORD,DIS,150,brame,,el,,318.2873,318.2873,0.108333333,-0.178703704,0,0,0,,0,140,140,383,1,frase,,,,
,,,,,,5baa866b7c0ebe000127a8eb,676192165fb32c2e1fb7aee6,67d169881580d2627f6df2be,2025-03-12_12h01.38.671,Tarea de decisión léxica,2024.2.5,Win32,142.8571429,,,,,,,,,,,,,,,,,,,,,,,318.2878,319.4263,l,1,0.4832,,0.4832,1,319.4264,319.9264,,,,,,59,FEM,WORD,DIS,150,sala,,el,,319.9268,319.9269,0.108333333,-0.178703704,0,0,0,,0,141,141,58,1,tafa,,,,
,,,,,,5baa866b7c0ebe000127a8eb,676192165fb32c2e1fb7aee6,67d169881580d2627f6df2be,2025-03-12_12h01.38.671,Tarea de decisión léxica,2024.2.5,Win32,142.8571429,,,,,,,,,,,,,,,,,,,,,,,319.9272,320.9265,a,1,0.3405,,0.3405,1,320.9265,321.4265,,,,,,146,MAS,NOWORD,AGR,150,nobo,,el,,321.4266,321.4266,0.108333333,-0.178703704,0,0,0,,0,142,142,145,1,león,,,,
,,,,,,5baa866b7c0ebe000127a8eb,676192165fb32c2e1fb7aee6,67d169881580d2627f6df2be,2025-03-12_12h01.38.671,Tarea de decisión léxica,2024.2.5,Win32,142.8571429,,,,,,,,,,,,,,,,,,,,,,,321.427,322.76,l,1,0.6737,,0.6737,1,322.7601,323.2602,,,,,,177,MAS,WORD,AGR,150,reto,,el,,323.2602,323.2602,0.108333333,-0.178703704,0,0,0,,0,143,143,176,1,bito,,,,
,,,,,,5baa866b7c0ebe000127a8eb,676192165fb32c2e1fb7aee6,67d169881580d2627f6df2be,2025-03-12_12h01.38.671,Tarea de decisión léxica,2024.2.5,Win32,142.8571429,,,,,,,,,,,,,,,,,,,,,,,323.2606,324.4061,l,1,0.4863,,0.4863,1,324.4061,324.9062,,,,,,429,FEM,WORD,AGR,150,tarta,,la,,324.9062,324.9062,0.108333333,-0.178703704,0,0,0,,0,144,144,428,1,tenta,,,,
,,,,,,5baa866b7c0ebe000127a8eb,676192165fb32c2e1fb7aee6,67d169881580d2627f6df2be,2025-03-12_12h01.38.671,Tarea de decisión léxica,2024.2.5,Win32,142.8571429,,,,,,,,,,,,,,,,,,,,,,,324.9067,325.8439,l,1,0.28,,0.28,1,325.8439,326.3439,,,,,,349,MAS,WORD,DIS,150,color,,la,,326.3439,326.3439,0.108333333,-0.178703704,0,0,0,,0,145,145,348,1,cosir,,,,
,,,,,,5baa866b7c0ebe000127a8eb,676192165fb32c2e1fb7aee6,67d169881580d2627f6df2be,2025-03-12_12h01.38.671,Tarea de decisión léxica,2024.2.5,Win32,142.8571429,,,,,,,,,,,,,,,,,,,,,,,326.3443,327.358,a,1,0.3588,,0.3588,1,327.358,327.858,,,,,,24,FEM,NOWORD,DIS,150,giva,,el,,327.8586,327.8588,0.108333333,-0.178703704,0,0,0,,0,146,146,23,1,hija,,,,
,,,,,,5baa866b7c0ebe000127a8eb,676192165fb32c2e1fb7aee6,67d169881580d2627f6df2be,2025-03-12_12h01.38.671,Tarea de decisión léxica,2024.2.5,Win32,142.8571429,,,,,,,,,,,,,,,,,,,,,,,327.859,328.8928,a,1,0.3764,,0.3764,1,328.8929,329.3929,,,,,,466,FEM,NOWORD,AGR,150,asuba,,la,,329.3929,329.393,0.108333333,-0.178703704,0,0,0,,0,147,147,465,1,aguja,,,,
,,,,,,5baa866b7c0ebe000127a8eb,676192165fb32c2e1fb7aee6,67d169881580d2627f6df2be,2025-03-12_12h01.38.671,Tarea de decisión léxica,2024.2.5,Win32,142.8571429,,,,,,,,,,,,,,,,,,,,,,,329.3934,330.4209,l,1,0.3684,,0.3684,1,330.421,330.9208,,,,,,451,FEM,WORD,DIS,150,fruta,,el,,330.9208,330.9209,0.108333333,-0.178703704,0,0,0,,0,148,148,450,1,clita,,,,
,,,,,,5baa866b7c0ebe000127a8eb,676192165fb32c2e1fb7aee6,67d169881580d2627f6df2be,2025-03-12_12h01.38.671,Tarea de decisión léxica,2024.2.5,Win32,142.8571429,,,,,,,,,,,,,,,,,,,,,,,330.9214,332.1364,a,1,0.5557,,0.5557,1,332.1365,332.6364,,,,,,460,MAS,NOWORD,DIS,150,fraco,,la,,332.6365,332.6365,0.108333333,-0.178703704,0,0,0,,0,149,149,459,1,grado,,,,
,,,,,,5baa866b7c0ebe000127a8eb,676192165fb32c2e1fb7aee6,67d169881580d2627f6df2be,2025-03-12_12h01.38.671,Tarea de decisión léxica,2024.2.5,Win32,142.8571429,,,,,,,,,,,,,,,,,,,,,,,332.6369,333.6295,l,1,0.3349,,0.3349,1,333.6295,334.1296,,,,,,385,FEM,WORD,DIS,150,letra,,el,,334.1296,334.1297,0.108333333,-0.178703704,0,0,0,,0,150,150,384,1,febra,,,,
,,,,,,5baa866b7c0ebe000127a8eb,676192165fb32c2e1fb7aee6,67d169881580d2627f6df2be,2025-03-12_12h01.38.671,Tarea de decisión léxica,2024.2.5,Win32,142.8571429,,,,,,,,,,,,,,,,,,,,,,,334.1302,335.1576,l,1,0.3699,,0.3699,1,335.1576,335.6577,,,,,,209,MAS,WORD,AGR,150,velo,,el,,335.6581,335.6582,0.108333333,-0.178703704,0,0,0,,0,151,151,208,1,dero,,,,
,,,,,,5baa866b7c0ebe000127a8eb,676192165fb32c2e1fb7aee6,67d169881580d2627f6df2be,2025-03-12_12h01.38.671,Tarea de decisión léxica,2024.2.5,Win32,142.8571429,,,,,,,,,,,,,,,,,,,,,,,335.6585,336.7411,a,1,0.424,,0.424,1,336.7411,337.2412,,,,,,476,FEM,NOWORD,DIS,150,mucta,,el,,337.2412,337.2412,0.108333333,-0.178703704,0,0,0,,0,152,152,475,1,manta,,,,
,,,,,,5baa866b7c0ebe000127a8eb,676192165fb32c2e1fb7aee6,67d169881580d2627f6df2be,2025-03-12_12h01.38.671,Tarea de decisión léxica,2024.2.5,Win32,142.8571429,,,,,,,,,,,,,,,,,,,,,,,337.2418,338.4079,a,1,0.5075,,0.5075,1,338.408,338.9081,,,,,,470,MAS,NOWORD,AGR,150,matia,,el,,338.9081,338.9081,0.108333333,-0.178703704,0,0,0,,0,153,153,469,1,patio,,,,
,,,,,,5baa866b7c0ebe000127a8eb,676192165fb32c2e1fb7aee6,67d169881580d2627f6df2be,2025-03-12_12h01.38.671,Tarea de decisión léxica,2024.2.5,Win32,142.8571429,,,,,,,,,,,,,,,,,,,,,,,338.9086,339.8804,l,1,0.3128,,0.3128,1,339.8804,340.3804,,,,,,71,FEM,WORD,AGR,150,isla,,la,,340.3804,340.3804,0.108333333,-0.178703704,0,0,0,,0,154,154,70,1,urla,,,,
,,,,,,5baa866b7c0ebe000127a8eb,676192165fb32c2e1fb7aee6,67d169881580d2627f6df2be,2025-03-12_12h01.38.671,Tarea de decisión léxica,2024.2.5,Win32,142.8571429,,,,,,,,,,,,,,,,,,,,,,,340.3808,341.3944,l,1,0.3544,,0.3544,1,341.3944,341.8946,,,,,,273,FEM,WORD,AGR,150,broma,,la,,341.8951,341.8954,0.108333333,-0.178703704,0,0,0,,0,155,155,272,1,frosa,,,,
,,,,,,5baa866b7c0ebe000127a8eb,676192165fb32c2e1fb7aee6,67d169881580d2627f6df2be,2025-03-12_12h01.38.671,Tarea de decisión léxica,2024.2.5,Win32,142.8571429,,,,,,,,,,,,,,,,,,,,,,,341.8957,343.1518,l,1,0.6021,,0.6021,1,343.1519,343.6518,,,,,,33,FEM,WORD,AGR,150,boca,,la,,343.6518,343.6518,0.108333333,-0.178703704,0,0,0,,0,156,156,32,1,loda,,,,
,,,,,,5baa866b7c0ebe000127a8eb,676192165fb32c2e1fb7aee6,67d169881580d2627f6df2be,2025-03-12_12h01.38.671,Tarea de decisión léxica,2024.2.5,Win32,142.8571429,,,,,,,,,,,,,,,,,,,,,,,343.6523,344.8047,a,1,0.4966,,0.4966,1,344.8047,345.3048,,,,,,158,MAS,NOWORD,AGR,150,hico,,el,,345.3048,345.3048,0.108333333,-0.178703704,0,0,0,,0,157,157,157,1,nido,,,,
,,,,,,5baa866b7c0ebe000127a8eb,676192165fb32c2e1fb7aee6,67d169881580d2627f6df2be,2025-03-12_12h01.38.671,Tarea de decisión léxica,2024.2.5,Win32,142.8571429,,,,,,,,,,,,,,,,,,,,,,,345.3053,346.4576,l,1,0.4969,,0.4969,1,346.4577,346.9577,,,,,,249,FEM,WORD,DIS,150,clase,,el,,346.9577,346.9577,0.108333333,-0.178703704,0,0,0,,0,158,158,248,1,plane,,,,
,,,,,,5baa866b7c0ebe000127a8eb,676192165fb32c2e1fb7aee6,67d169881580d2627f6df2be,2025-03-12_12h01.38.671,Tarea de decisión léxica,2024.2.5,Win32,142.8571429,,,,,,,,,,,,,,,,,,,,,,,346.958,348.069,l,1,0.4557,,0.4557,1,348.0691,348.569,,,,,,347,FEM,WORD,AGR,150,pieza,,la,,348.569,348.5691,0.108333333,-0.178703704,0,0,0,,0,159,159,346,1,mueza,,,,
,,,,,,5baa866b7c0ebe000127a8eb,676192165fb32c2e1fb7aee6,67d169881580d2627f6df2be,2025-03-12_12h01.38.671,Tarea de decisión léxica,2024.2.5,Win32,142.8571429,,,,,,,,,,,,,,,,,,,,,,,348.5696,349.7289,a,1,0.5043,,0.5043,1,349.7289,350.229,,,,,,304,MAS,NOWORD,DIS,150,lanco,,la,,350.2295,356.2506,0.108333333,-0.178703704,0,0,0,space,0,160,160,303,1,barco,6.011,,,
,,,,,,5baa866b7c0ebe000127a8eb,676192165fb32c2e1fb7aee6,67d169881580d2627f6df2be,2025-03-12_12h01.38.671,Tarea de decisión léxica,2024.2.5,Win32,142.8571429,,,,,,,,,,,,,,,,,,,,,,,356.251,357.3272,l,1,0.4168,,0.4168,1,357.3272,357.8273,,,,,,433,MAS,WORD,DIS,150,disco,,la,,357.8273,357.8273,0.108333333,-0.178703704,0,0,0,,0,161,161,432,1,durco,,,,
,,,,,,5baa866b7c0ebe000127a8eb,676192165fb32c2e1fb7aee6,67d169881580d2627f6df2be,2025-03-12_12h01.38.671,Tarea de decisión léxica,2024.2.5,Win32,142.8571429,,,,,,,,,,,,,,,,,,,,,,,357.8278,358.7092,l,1,0.2241,,0.2241,1,358.7093,359.2092,,,,,,375,FEM,WORD,DIS,150,salsa,,el,,359.2092,359.2092,0.108333333,-0.178703704,0,0,0,,0,162,162,374,1,sasna,,,,
,,,,,,5baa866b7c0ebe000127a8eb,676192165fb32c2e1fb7aee6,67d169881580d2627f6df2be,2025-03-12_12h01.38.671,Tarea de decisión léxica,2024.2.5,Win32,142.8571429,,,,,,,,,,,,,,,,,,,,,,,359.2096,360.2442,a,1,0.3781,,0.3781,1,360.2442,360.7443,,,,,,382,MAS,NOWORD,AGR,150,nusor,,el,,360.7443,360.7444,0.108333333,-0.178703704,0,0,0,,0,163,163,381,1,humor,,,,
,,,,,,5baa866b7c0ebe000127a8eb,676192165fb32c2e1fb7aee6,67d169881580d2627f6df2be,2025-03-12_12h01.38.671,Tarea de decisión léxica,2024.2.5,Win32,142.8571429,,,,,,,,,,,,,,,,,,,,,,,360.7447,361.7513,a,1,0.3476,,0.3476,1,361.7513,362.2513,,,,,,436,MAS,NOWORD,DIS,150,ricno,,la,,362.2514,362.2514,0.108333333,-0.178703704,0,0,0,,0,164,164,435,1,ritmo,,,,
,,,,,,5baa866b7c0ebe000127a8eb,676192165fb32c2e1fb7aee6,67d169881580d2627f6df2be,2025-03-12_12h01.38.671,Tarea de decisión léxica,2024.2.5,Win32,142.8571429,,,,,,,,,,,,,,,,,,,,,,,362.2518,363.2931,l,1,0.3818,,0.3818,1,363.2932,363.7932,,,,,,359,MAS,WORD,DIS,150,calor,,la,,363.7936,363.794,0.108333333,-0.178703704,0,0,0,,0,165,165,358,1,cacer,,,,
,,,,,,5baa866b7c0ebe000127a8eb,676192165fb32c2e1fb7aee6,67d169881580d2627f6df2be,2025-03-12_12h01.38.671,Tarea de decisión léxica,2024.2.5,Win32,142.8571429,,,,,,,,,,,,,,,,,,,,,,,363.7942,365.0643,l,1,0.6114,,0.6114,1,365.0643,365.5643,,,,,,239,MAS,WORD,AGR,150,mozo,,el,,365.5643,365.5644,0.108333333,-0.178703704,0,0,0,,0,166,166,238,1,poño,,,,
,,,,,,5baa866b7c0ebe000127a8eb,676192165fb32c2e1fb7aee6,67d169881580d2627f6df2be,2025-03-12_12h01.38.671,Tarea de decisión léxica,2024.2.5,Win32,142.8571429,,,,,,,,,,,,,,,,,,,,,,,365.5648,366.474,l,1,0.2523,,0.2523,1,366.4741,366.9741,,,,,,421,MAS,WORD,AGR,150,primo,,el,,366.9742,366.9742,0.108333333,-0.178703704,0,0,0,,0,167,167,420,1,griso,,,,
,,,,,,5baa866b7c0ebe000127a8eb,676192165fb32c2e1fb7aee6,67d169881580d2627f6df2be,2025-03-12_12h01.38.671,Tarea de decisión léxica,2024.2.5,Win32,142.8571429,,,,,,,,,,,,,,,,,,,,,,,366.9746,367.9535,a,1,0.3195,,0.3195,1,367.9535,368.4537,,,,,,138,MAS,NOWORD,AGR,150,pamo,,el,,368.4537,368.4537,0.108333333,-0.178703704,0,0,0,,0,168,168,137,1,nene,,,,
,,,,,,5baa866b7c0ebe000127a8eb,676192165fb32c2e1fb7aee6,67d169881580d2627f6df2be,2025-03-12_12h01.38.671,Tarea de decisión léxica,2024.2.5,Win32,142.8571429,,,,,,,,,,,,,,,,,,,,,,,368.4541,369.4884,a,1,0.3787,,0.3787,1,369.4884,369.9885,,,,,,252,MAS,NOWORD,DIS,150,refor,,la,,369.9885,369.9885,0.108333333,-0.178703704,0,0,0,,0,169,169,251,1,señor,,,,
,,,,,,5baa866b7c0ebe000127a8eb,676192165fb32c2e1fb7aee6,67d169881580d2627f6df2be,2025-03-12_12h01.38.671,Tarea de decisión léxica,2024.2.5,Win32,142.8571429,,,,,,,,,,,,,,,,,,,,,,,369.989,371.0165,a,1,0.372,,0.372,1,371.0165,371.5165,,,,,,134,FEM,NOWORD,AGR,150,vesa,,la,,371.5169,371.5172,0.108333333,-0.178703704,0,0,0,,0,170,170,133,1,vaca,,,,
,,,,,,5baa866b7c0ebe000127a8eb,676192165fb32c2e1fb7aee6,67d169881580d2627f6df2be,2025-03-12_12h01.38.671,Tarea de decisión léxica,2024.2.5,Win32,142.8571429,,,,,,,,,,,,,,,,,,,,,,,371.5175,372.4959,a,1,0.3202,,0.3202,1,372.4959,372.9959,,,,,,30,MAS,NOWORD,AGR,150,pono,,el,,372.9959,372.996,0.108333333,-0.178703704,0,0,0,,0,171,171,29,1,modo,,,,
,,,,,,5baa866b7c0ebe000127a8eb,676192165fb32c2e1fb7aee6,67d169881580d2627f6df2be,2025-03-12_12h01.38.671,Tarea de decisión léxica,2024.2.5,Win32,142.8571429,,,,,,,,,,,,,,,,,,,,,,,372.9964,374.0584,a,1,0.403,,0.403,1,374.0585,374.5585,,,,,,76,MAS,NOWORD,DIS,150,ocer,,la,,374.5585,374.5585,0.108333333,-0.178703704,0,0,0,,0,172,172,75,1,olor,,,,
,,,,,,5baa866b7c0ebe000127a8eb,676192165fb32c2e1fb7aee6,67d169881580d2627f6df2be,2025-03-12_12h01.38.671,Tarea de decisión léxica,2024.2.5,Win32,142.8571429,,,,,,,,,,,,,,,,,,,,,,,374.559,375.7114,l,1,0.4949,,0.4949,1,375.7114,376.2115,,,,,,397,FEM,WORD,DIS,150,tribu,,el,,376.2115,376.2115,0.108333333,-0.178703704,0,0,0,,0,173,173,396,1,trigi,,,,
,,,,,,5baa866b7c0ebe000127a8eb,676192165fb32c2e1fb7aee6,67d169881580d2627f6df2be,2025-03-12_12h01.38.671,Tarea de decisión léxica,2024.2.5,Win32,142.8571429,,,,,,,,,,,,,,,,,,,,,,,376.2119,377.2186,a,1,0.3473,,0.3473,1,377.2186,377.7187,,,,,,38,MAS,NOWORD,AGR,150,gaco,,el,,377.7187,377.7187,0.108333333,-0.178703704,0,0,0,,0,174,174,37,1,rato,,,,
,,,,,,5baa866b7c0ebe000127a8eb,676192165fb32c2e1fb7aee6,67d169881580d2627f6df2be,2025-03-12_12h01.38.671,Tarea de decisión léxica,2024.2.5,Win32,142.8571429,,,,,,,,,,,,,,,,,,,,,,,377.7191,378.7812,l,1,0.4031,,0.4031,1,378.7812,379.2814,,,,,,389,MAS,WORD,DIS,150,cerdo,,la,,379.2817,379.282,0.108333333,-0.178703704,0,0,0,,0,175,175,388,1,cenco,,,,
,,,,,,5baa866b7c0ebe000127a8eb,676192165fb32c2e1fb7aee6,67d169881580d2627f6df2be,2025-03-12_12h01.38.671,Tarea de decisión léxica,2024.2.5,Win32,142.8571429,,,,,,,,,,,,,,,,,,,,,,,379.2823,380.351,a,1,0.4119,,0.4119,1,380.351,380.851,,,,,,434,MAS,NOWORD,AGR,150,durco,,el,,380.851,380.851,0.108333333,-0.178703704,0,0,0,,0,176,176,433,1,disco,,,,
,,,,,,5baa866b7c0ebe000127a8eb,676192165fb32c2e1fb7aee6,67d169881580d2627f6df2be,2025-03-12_12h01.38.671,Tarea de decisión léxica,2024.2.5,Win32,142.8571429,,,,,,,,,,,,,,,,,,,,,,,380.8514,381.9137,a,1,0.4033,,0.4033,1,381.9137,382.4138,,,,,,68,FEM,NOWORD,DIS,150,gesa,,el,,382.4138,382.4138,0.108333333,-0.178703704,0,0,0,,0,177,177,67,1,nena,,,,
,,,,,,5baa866b7c0ebe000127a8eb,676192165fb32c2e1fb7aee6,67d169881580d2627f6df2be,2025-03-12_12h01.38.671,Tarea de decisión léxica,2024.2.5,Win32,142.8571429,,,,,,,,,,,,,,,,,,,,,,,382.4142,383.4347,l,1,0.3612,,0.3612,1,383.4347,383.9347,,,,,,253,MAS,WORD,AGR,150,chico,,el,,383.9347,383.9348,0.108333333,-0.178703704,0,0,0,,0,178,178,252,1,trido,,,,
,,,,,,5baa866b7c0ebe000127a8eb,676192165fb32c2e1fb7aee6,67d169881580d2627f6df2be,2025-03-12_12h01.38.671,Tarea de decisión léxica,2024.2.5,Win32,142.8571429,,,,,,,,,,,,,,,,,,,,,,,383.9351,384.9418,a,1,0.3505,,0.3505,1,384.9418,385.4419,,,,,,228,MAS,NOWORD,DIS,150,laro,,la,,385.4423,385.4425,0.108333333,-0.178703704,0,0,0,,0,179,179,227,1,faro,,,,
,,,,,,5baa866b7c0ebe000127a8eb,676192165fb32c2e1fb7aee6,67d169881580d2627f6df2be,2025-03-12_12h01.38.671,Tarea de decisión léxica,2024.2.5,Win32,142.8571429,,,,,,,,,,,,,,,,,,,,,,,385.4427,386.7546,a,0,0.6529,,0.6529,0,386.7548,387.2546,,,,,,439,FEM,WORD,AGR,150,presa,,la,,387.2547,387.2547,0.108333333,-0.178703704,0,0,0,,0,180,180,438,1,prema,,,,
,,,,,,5baa866b7c0ebe000127a8eb,676192165fb32c2e1fb7aee6,67d169881580d2627f6df2be,2025-03-12_12h01.38.671,Tarea de decisión léxica,2024.2.5,Win32,142.8571429,,,,,,,,,,,,,,,,,,,,,,,387.255,388.4699,l,1,0.5595,,0.5595,1,388.4703,388.9702,,,,,,1,FEM,WORD,DIS,150,casa,,el,,388.9702,388.9702,0.108333333,-0.178703704,0,0,0,,0,181,181,0,1,mada,,,,
,,,,,,5baa866b7c0ebe000127a8eb,676192165fb32c2e1fb7aee6,67d169881580d2627f6df2be,2025-03-12_12h01.38.671,Tarea de decisión léxica,2024.2.5,Win32,142.8571429,,,,,,,,,,,,,,,,,,,,,,,388.9705,390.0674,l,1,0.4404,,0.4404,1,390.0675,390.5675,,,,,,5,FEM,WORD,DIS,150,cosa,,el,,390.5675,390.5675,0.108333333,-0.178703704,0,0,0,,0,182,182,4,1,poga,,,,
,,,,,,5baa866b7c0ebe000127a8eb,676192165fb32c2e1fb7aee6,67d169881580d2627f6df2be,2025-03-12_12h01.38.671,Tarea de decisión léxica,2024.2.5,Win32,142.8571429,,,,,,,,,,,,,,,,,,,,,,,390.5679,391.6231,a,1,0.3986,,0.3986,1,391.6232,392.1232,,,,,,42,FEM,NOWORD,AGR,150,haje,,la,,392.1232,392.1232,0.108333333,-0.178703704,0,0,0,,0,183,183,41,1,nave,,,,
,,,,,,5baa866b7c0ebe000127a8eb,676192165fb32c2e1fb7aee6,67d169881580d2627f6df2be,2025-03-12_12h01.38.671,Tarea de decisión léxica,2024.2.5,Win32,142.8571429,,,,,,,,,,,,,,,,,,,,,,,392.1237,393.1789,l,1,0.3961,,0.3961,1,393.1789,393.679,,,,,,411,MAS,WORD,AGR,150,pollo,,el,,393.6793,393.6796,0.108333333,-0.178703704,0,0,0,,0,184,184,410,1,mobro,,,,
,,,,,,5baa866b7c0ebe000127a8eb,676192165fb32c2e1fb7aee6,67d169881580d2627f6df2be,2025-03-12_12h01.38.671,Tarea de decisión léxica,2024.2.5,Win32,142.8571429,,,,,,,,,,,,,,,,,,,,,,,393.6799,394.7487,l,1,0.4099,,0.4099,1,394.7487,395.2487,,,,,,101,MAS,WORD,DIS,150,tono,,la,,395.2488,395.2488,0.108333333,-0.178703704,0,0,0,,0,185,185,100,1,gito,,,,
,,,,,,5baa866b7c0ebe000127a8eb,676192165fb32c2e1fb7aee6,67d169881580d2627f6df2be,2025-03-12_12h01.38.671,Tarea de decisión léxica,2024.2.5,Win32,142.8571429,,,,,,,,,,,,,,,,,,,,,,,395.2492,396.3043,l,1,0.398,,0.398,1,396.3044,396.8044,,,,,,51,FEM,WORD,DIS,150,caja,,el,,396.8044,396.8044,0.108333333,-0.178703704,0,0,0,,0,186,186,50,1,mava,,,,
,,,,,,5baa866b7c0ebe000127a8eb,676192165fb32c2e1fb7aee6,67d169881580d2627f6df2be,2025-03-12_12h01.38.671,Tarea de decisión léxica,2024.2.5,Win32,142.8571429,,,,,,,,,,,,,,,,,,,,,,,396.8048,397.8185,l,1,0.3547,,0.3547,1,397.8186,398.3185,,,,,,103,FEM,WORD,DIS,150,ruta,,el,,398.3185,398.3185,0.108333333,-0.178703704,0,0,0,,0,187,187,102,1,rova,,,,
,,,,,,5baa866b7c0ebe000127a8eb,676192165fb32c2e1fb7aee6,67d169881580d2627f6df2be,2025-03-12_12h01.38.671,Tarea de decisión léxica,2024.2.5,Win32,142.8571429,,,,,,,,,,,,,,,,,,,,,,,398.319,399.3464,l,1,0.3686,,0.3686,1,399.3464,399.8465,,,,,,301,FEM,WORD,AGR,150,banda,,la,,399.8465,399.8465,0.108333333,-0.178703704,0,0,0,,0,188,188,300,1,ranga,,,,
,,,,,,5baa866b7c0ebe000127a8eb,676192165fb32c2e1fb7aee6,67d169881580d2627f6df2be,2025-03-12_12h01.38.671,Tarea de decisión léxica,2024.2.5,Win32,142.8571429,,,,,,,,,,,,,,,,,,,,,,,399.8469,400.8605,a,1,0.3569,,0.3569,1,400.8605,401.3606,,,,,,108,MAS,NOWORD,DIS,150,raot,,la,,401.361,401.3613,0.108333333,-0.178703704,0,0,0,,0,189,189,107,1,saco,,,,
,,,,,,5baa866b7c0ebe000127a8eb,676192165fb32c2e1fb7aee6,67d169881580d2627f6df2be,2025-03-12_12h01.38.671,Tarea de decisión léxica,2024.2.5,Win32,142.8571429,,,,,,,,,,,,,,,,,,,,,,,401.3615,402.3398,l,0,0.3235,,0.3235,0,402.3401,402.8399,,,,,,94,FEM,NOWORD,AGR,150,rona,,la,,402.8399,402.8399,0.108333333,-0.178703704,0,0,0,,0,190,190,93,1,bola,,,,
,,,,,,5baa866b7c0ebe000127a8eb,676192165fb32c2e1fb7aee6,67d169881580d2627f6df2be,2025-03-12_12h01.38.671,Tarea de decisión léxica,2024.2.5,Win32,142.8571429,,,,,,,,,,,,,,,,,,,,,,,402.8404,404.1249,a,1,0.6282,,0.6282,1,404.1252,404.625,,,,,,14,FEM,NOWORD,AGR,150,nola,,la,,404.625,404.6251,0.108333333,-0.178703704,0,0,0,,0,191,191,13,1,hora,,,,
,,,,,,5baa866b7c0ebe000127a8eb,676192165fb32c2e1fb7aee6,67d169881580d2627f6df2be,2025-03-12_12h01.38.671,Tarea de decisión léxica,2024.2.5,Win32,142.8571429,,,,,,,,,,,,,,,,,,,,,,,404.6256,405.6529,l,1,0.3663,,0.3663,1,405.6529,406.1528,,,,,,455,MAS,WORD,AGR,150,reino,,el,,406.1528,406.1528,0.108333333,-0.178703704,0,0,0,,0,192,192,454,1,riaso,,,,
,,,,,,5baa866b7c0ebe000127a8eb,676192165fb32c2e1fb7aee6,67d169881580d2627f6df2be,2025-03-12_12h01.38.671,Tarea de decisión léxica,2024.2.5,Win32,142.8571429,,,,,,,,,,,,,,,,,,,,,,,406.1533,407.1114,l,1,0.2993,,0.2993,1,407.1114,407.6114,,,,,,35,MAS,WORD,AGR,150,pelo,,el,,407.6114,407.6115,0.108333333,-0.178703704,0,0,0,,0,193,193,34,1,meno,,,,
,,,,,,5baa866b7c0ebe000127a8eb,676192165fb32c2e1fb7aee6,67d169881580d2627f6df2be,2025-03-12_12h01.38.671,Tarea de decisión léxica,2024.2.5,Win32,142.8571429,,,,,,,,,,,,,,,,,,,,,,,407.612,408.6671,a,1,0.3968,,0.3968,1,408.6671,409.1671,,,,,,58,MAS,NOWORD,AGR,150,heco,,el,,409.1676,409.1679,0.108333333,-0.178703704,0,0,0,,0,194,194,57,1,dedo,,,,
,,,,,,5baa866b7c0ebe000127a8eb,676192165fb32c2e1fb7aee6,67d169881580d2627f6df2be,2025-03-12_12h01.38.671,Tarea de decisión léxica,2024.2.5,Win32,142.8571429,,,,,,,,,,,,,,,,,,,,,,,409.1683,410.2992,l,0,0.4733,,0.4733,0,410.2994,410.7993,,,,,,444,MAS,NOWORD,DIS,150,taron,,la,,410.7993,410.7993,0.108333333,-0.178703704,0,0,0,,0,195,195,443,1,salón,,,,
,,,,,,5baa866b7c0ebe000127a8eb,676192165fb32c2e1fb7aee6,67d169881580d2627f6df2be,2025-03-12_12h01.38.671,Tarea de decisión léxica,2024.2.5,Win32,142.8571429,,,,,,,,,,,,,,,,,,,,,,,410.7997,411.8898,l,1,0.431,,0.431,1,411.89,412.3899,,,,,,467,MAS,WORD,DIS,150,piano,,la,,412.3899,412.39,0.108333333,-0.178703704,0,0,0,,0,196,196,466,1,peiso,,,,
,,,,,,5baa866b7c0ebe000127a8eb,676192165fb32c2e1fb7aee6,67d169881580d2627f6df2be,2025-03-12_12h01.38.671,Tarea de decisión léxica,2024.2.5,Win32,142.8571429,,,,,,,,,,,,,,,,,,,,,,,412.3904,413.7857,a,1,0.7394,,0.7394,1,413.7858,414.2859,,,,,,418,FEM,NOWORD,AGR,150,banja,,la,,414.2859,414.2859,0.108333333,-0.178703704,0,0,0,,0,197,197,417,1,barba,,,,
,,,,,,5baa866b7c0ebe000127a8eb,676192165fb32c2e1fb7aee6,67d169881580d2627f6df2be,2025-03-12_12h01.38.671,Tarea de decisión léxica,2024.2.5,Win32,142.8571429,,,,,,,,,,,,,,,,,,,,,,,414.2864,415.6263,a,1,0.6835,,0.6835,1,415.6264,416.1264,,,,,,442,FEM,NOWORD,AGR,150,telza,,la,,416.1265,416.1265,0.108333333,-0.178703704,0,0,0,,0,198,198,441,1,selva,,,,
,,,,,,5baa866b7c0ebe000127a8eb,676192165fb32c2e1fb7aee6,67d169881580d2627f6df2be,2025-03-12_12h01.38.671,Tarea de decisión léxica,2024.2.5,Win32,142.8571429,,,,,,,,,,,,,,,,,,,,,,,416.1269,417.1404,a,1,0.359,,0.359,1,417.1405,417.6405,,,,,,168,FEM,NOWORD,DIS,150,zifa,,el,,417.6408,417.6411,0.108333333,-0.178703704,0,0,0,,0,199,199,167,1,jefa,,,,
,,,,,,5baa866b7c0ebe000127a8eb,676192165fb32c2e1fb7aee6,67d169881580d2627f6df2be,2025-03-12_12h01.38.671,Tarea de decisión léxica,2024.2.5,Win32,142.8571429,,,,,,,,,,,,,,,,,,,,,,,417.6413,418.9254,l,1,0.6239,,0.6239,1,418.9255,419.4255,,,,,,387,FEM,WORD,AGR,150,crema,,la,,419.4255,419.4256,0.108333333,-0.178703704,0,0,0,,0,200,200,386,1,bresa,,,,
,,,,,,5baa866b7c0ebe000127a8eb,676192165fb32c2e1fb7aee6,67d169881580d2627f6df2be,2025-03-12_12h01.38.671,Tarea de decisión léxica,2024.2.5,Win32,142.8571429,,,,,,,,,,,,,,,,,,,,,,,419.4261,420.3215,l,1,0.2368,,0.2368,1,420.3215,420.8214,,,,,,65,MAS,WORD,AGR,150,dios,,el,,420.8215,420.8216,0.108333333,-0.178703704,0,0,0,,0,201,201,64,1,nios,,,,
,,,,,,5baa866b7c0ebe000127a8eb,676192165fb32c2e1fb7aee6,67d169881580d2627f6df2be,2025-03-12_12h01.38.671,Tarea de decisión léxica,2024.2.5,Win32,142.8571429,,,,,,,,,,,,,,,,,,,,,,,420.822,421.877,l,1,0.3954,,0.3954,1,421.877,422.3772,,,,,,127,MAS,WORD,DIS,150,pico,,la,,422.3772,422.3772,0.108333333,-0.178703704,0,0,0,,0,202,202,126,1,itio,,,,
,,,,,,5baa866b7c0ebe000127a8eb,676192165fb32c2e1fb7aee6,67d169881580d2627f6df2be,2025-03-12_12h01.38.671,Tarea de decisión léxica,2024.2.5,Win32,142.8571429,,,,,,,,,,,,,,,,,,,,,,,422.3776,423.4469,a,1,0.413,,0.413,1,423.4469,423.9469,,,,,,328,MAS,NOWORD,DIS,150,lendo,,la,,423.9474,423.9477,0.108333333,-0.178703704,0,0,0,,0,203,203,327,1,fondo,,,,
,,,,,,5baa866b7c0ebe000127a8eb,676192165fb32c2e1fb7aee6,67d169881580d2627f6df2be,2025-03-12_12h01.38.671,Tarea de decisión léxica,2024.2.5,Win32,142.8571429,,,,,,,,,,,,,,,,,,,,,,,423.9479,425.0026,l,1,0.4003,,0.4003,1,425.0026,425.5027,,,,,,447,MAS,WORD,DIS,150,bolso,,la,,425.5028,425.5028,0.108333333,-0.178703704,0,0,0,,0,204,204,446,1,buaso,,,,
,,,,,,5baa866b7c0ebe000127a8eb,676192165fb32c2e1fb7aee6,67d169881580d2627f6df2be,2025-03-12_12h01.38.671,Tarea de decisión léxica,2024.2.5,Win32,142.8571429,,,,,,,,,,,,,,,,,,,,,,,425.5032,426.6069,a,1,0.4448,,0.4448,1,426.6069,427.1069,,,,,,226,MAS,NOWORD,AGR,150,boco,,el,,427.1069,427.107,0.108333333,-0.178703704,0,0,0,,0,205,205,225,1,lodo,,,,
,,,,,,5baa866b7c0ebe000127a8eb,676192165fb32c2e1fb7aee6,67d169881580d2627f6df2be,2025-03-12_12h01.38.671,Tarea de decisión léxica,2024.2.5,Win32,142.8571429,,,,,,,,,,,,,,,,,,,,,,,427.1074,428.2112,a,1,0.448,,0.448,1,428.2112,428.7114,,,,,,288,FEM,NOWORD,DIS,150,fosta,,el,,428.7114,428.7114,0.108333333,-0.178703704,0,0,0,,0,206,206,287,1,lista,,,,
,,,,,,5baa866b7c0ebe000127a8eb,676192165fb32c2e1fb7aee6,67d169881580d2627f6df2be,2025-03-12_12h01.38.671,Tarea de decisión léxica,2024.2.5,Win32,142.8571429,,,,,,,,,,,,,,,,,,,,,,,428.7118,429.8226,l,1,0.452,,0.452,1,429.8226,430.3226,,,,,,3,FEM,WORD,AGR,150,vida,,la,,430.3227,430.3227,0.108333333,-0.178703704,0,0,0,,0,207,207,2,1,dica,,,,
,,,,,,5baa866b7c0ebe000127a8eb,676192165fb32c2e1fb7aee6,67d169881580d2627f6df2be,2025-03-12_12h01.38.671,Tarea de decisión léxica,2024.2.5,Win32,142.8571429,,,,,,,,,,,,,,,,,,,,,,,430.3232,431.3506,l,1,0.3685,,0.3685,1,431.3506,431.8506,,,,,,47,MAS,WORD,DIS,150,club,,la,,431.8511,431.8513,0.108333333,-0.178703704,0,0,0,,0,208,208,46,1,chub,,,,
,,,,,,5baa866b7c0ebe000127a8eb,676192165fb32c2e1fb7aee6,67d169881580d2627f6df2be,2025-03-12_12h01.38.671,Tarea de decisión léxica,2024.2.5,Win32,142.8571429,,,,,,,,,,,,,,,,,,,,,,,431.8516,432.8994,l,1,0.3887,,0.3887,1,432.8994,433.3994,,,,,,15,FEM,WORD,DIS,150,idea,,el,,433.3994,433.3995,0.108333333,-0.178703704,0,0,0,,0,209,209,14,1,odea,,,,
,,,,,,5baa866b7c0ebe000127a8eb,676192165fb32c2e1fb7aee6,67d169881580d2627f6df2be,2025-03-12_12h01.38.671,Tarea de decisión léxica,2024.2.5,Win32,142.8571429,,,,,,,,,,,,,,,,,,,,,,,433.3999,434.4482,l,1,0.3918,,0.3918,1,434.4483,434.9483,,,,,,57,MAS,WORD,DIS,150,dedo,,la,,434.9483,434.9483,0.108333333,-0.178703704,0,0,0,,0,210,210,56,1,heco,,,,
,,,,,,5baa866b7c0ebe000127a8eb,676192165fb32c2e1fb7aee6,67d169881580d2627f6df2be,2025-03-12_12h01.38.671,Tarea de decisión léxica,2024.2.5,Win32,142.8571429,,,,,,,,,,,,,,,,,,,,,,,434.9487,435.9275,a,1,0.3199,,0.3199,1,435.9276,436.4276,,,,,,402,MAS,NOWORD,AGR,150,pirvo,,el,,436.4276,436.4276,0.108333333,-0.178703704,0,0,0,,0,211,211,401,1,polvo,,,,
,,,,,,5baa866b7c0ebe000127a8eb,676192165fb32c2e1fb7aee6,67d169881580d2627f6df2be,2025-03-12_12h01.38.671,Tarea de decisión léxica,2024.2.5,Win32,142.8571429,,,,,,,,,,,,,,,,,,,,,,,436.4281,437.5319,a,1,0.4446,,0.4446,1,437.532,438.032,,,,,,176,FEM,NOWORD,DIS,150,hosa,,el,,438.032,438.0321,0.108333333,-0.178703704,0,0,0,,0,212,212,175,1,goma,,,,
,,,,,,5baa866b7c0ebe000127a8eb,676192165fb32c2e1fb7aee6,67d169881580d2627f6df2be,2025-03-12_12h01.38.671,Tarea de decisión léxica,2024.2.5,Win32,142.8571429,,,,,,,,,,,,,,,,,,,,,,,438.0326,439.1156,a,1,0.428,,0.428,1,439.1156,439.6156,,,,,,92,FEM,NOWORD,DIS,150,sava,,el,,439.616,439.6162,0.108333333,-0.178703704,0,0,0,,0,213,213,91,1,taza,,,,
,,,,,,5baa866b7c0ebe000127a8eb,676192165fb32c2e1fb7aee6,67d169881580d2627f6df2be,2025-03-12_12h01.38.671,Tarea de decisión léxica,2024.2.5,Win32,142.8571429,,,,,,,,,,,,,,,,,,,,,,,439.6165,440.6852,a,1,0.4097,,0.4097,1,440.6853,441.1853,,,,,,320,MAS,NOWORD,DIS,150,tuero,,la,,441.1853,441.1853,0.108333333,-0.178703704,0,0,0,,0,214,214,319,1,suelo,,,,
,,,,,,5baa866b7c0ebe000127a8eb,676192165fb32c2e1fb7aee6,67d169881580d2627f6df2be,2025-03-12_12h01.38.671,Tarea de decisión léxica,2024.2.5,Win32,142.8571429,,,,,,,,,,,,,,,,,,,,,,,441.1858,442.1645,a,1,0.3229,,0.3229,1,442.1645,442.6646,,,,,,364,FEM,NOWORD,DIS,150,veida,,el,,442.6647,442.6647,0.108333333,-0.178703704,0,0,0,,0,215,215,363,1,deuda,,,,
,,,,,,5baa866b7c0ebe000127a8eb,676192165fb32c2e1fb7aee6,67d169881580d2627f6df2be,2025-03-12_12h01.38.671,Tarea de decisión léxica,2024.2.5,Win32,142.8571429,,,,,,,,,,,,,,,,,,,,,,,442.6651,443.6299,a,1,0.3057,,0.3057,1,443.6299,444.13,,,,,,456,MAS,NOWORD,DIS,150,riaso,,la,,444.13,444.1301,0.108333333,-0.178703704,0,0,0,,0,216,216,455,1,reino,,,,
,,,,,,5baa866b7c0ebe000127a8eb,676192165fb32c2e1fb7aee6,67d169881580d2627f6df2be,2025-03-12_12h01.38.671,Tarea de decisión léxica,2024.2.5,Win32,142.8571429,,,,,,,,,,,,,,,,,,,,,,,444.1305,445.0884,l,1,0.2991,,0.2991,1,445.0885,445.5886,,,,,,307,MAS,WORD,AGR,150,hotel,,el,,445.5886,445.5886,0.108333333,-0.178703704,0,0,0,,0,217,217,306,1,holol,,,,
,,,,,,5baa866b7c0ebe000127a8eb,676192165fb32c2e1fb7aee6,67d169881580d2627f6df2be,2025-03-12_12h01.38.671,Tarea de decisión léxica,2024.2.5,Win32,142.8571429,,,,,,,,,,,,,,,,,,,,,,,445.589,446.6094,a,1,0.3611,,0.3611,1,446.6095,447.1095,,,,,,204,FEM,NOWORD,DIS,150,beja,,el,,447.1098,447.1101,0.108333333,-0.178703704,0,0,0,,0,218,218,203,1,leña,,,,
,,,,,,5baa866b7c0ebe000127a8eb,676192165fb32c2e1fb7aee6,67d169881580d2627f6df2be,2025-03-12_12h01.38.671,Tarea de decisión léxica,2024.2.5,Win32,142.8571429,,,,,,,,,,,,,,,,,,,,,,,447.1104,448.4083,l,1,0.6396,,0.6396,1,448.4083,448.9084,,,,,,129,MAS,WORD,AGR,150,oído,,el,,448.9084,448.9084,0.108333333,-0.178703704,0,0,0,,0,219,219,128,1,pima,,,,
,,,,,,5baa866b7c0ebe000127a8eb,676192165fb32c2e1fb7aee6,67d169881580d2627f6df2be,2025-03-12_12h01.38.671,Tarea de decisión léxica,2024.2.5,Win32,142.8571429,,,,,,,,,,,,,,,,,,,,,,,448.9088,449.8531,l,1,0.2886,,0.2886,1,449.8531,450.3531,,,,,,477,MAS,WORD,DIS,150,botón,,la,,450.3532,450.3532,0.108333333,-0.178703704,0,0,0,,0,220,220,476,1,hocon,,,,
,,,,,,5baa866b7c0ebe000127a8eb,676192165fb32c2e1fb7aee6,67d169881580d2627f6df2be,2025-03-12_12h01.38.671,Tarea de decisión léxica,2024.2.5,Win32,142.8571429,,,,,,,,,,,,,,,,,,,,,,,450.3536,451.4573,a,1,0.4449,,0.4449,1,451.4573,451.9574,,,,,,262,MAS,NOWORD,AGR,150,titio,,el,,451.9574,451.9575,0.108333333,-0.178703704,0,0,0,,0,221,221,261,1,sitio,,,,
,,,,,,5baa866b7c0ebe000127a8eb,676192165fb32c2e1fb7aee6,67d169881580d2627f6df2be,2025-03-12_12h01.38.671,Tarea de decisión léxica,2024.2.5,Win32,142.8571429,,,,,,,,,,,,,,,,,,,,,,,451.958,453.1589,a,1,0.542,,0.542,1,453.159,453.6591,,,,,,222,FEM,NOWORD,AGR,150,puca,,la,,453.6591,453.6591,0.108333333,-0.178703704,0,0,0,,0,222,222,221,1,mula,,,,
,,,,,,5baa866b7c0ebe000127a8eb,676192165fb32c2e1fb7aee6,67d169881580d2627f6df2be,2025-03-12_12h01.38.671,Tarea de decisión léxica,2024.2.5,Win32,142.8571429,,,,,,,,,,,,,,,,,,,,,,,453.6596,454.7078,a,0,0.3911,,0.3911,0,454.7081,455.2078,,,,,,345,FEM,WORD,DIS,150,arena,,el,,455.2082,455.2085,0.108333333,-0.178703704,0,0,0,,0,223,223,344,1,anera,,,,
,,,,,,5baa866b7c0ebe000127a8eb,676192165fb32c2e1fb7aee6,67d169881580d2627f6df2be,2025-03-12_12h01.38.671,Tarea de decisión léxica,2024.2.5,Win32,142.8571429,,,,,,,,,,,,,,,,,,,,,,,455.2089,456.4233,a,1,0.5559,,0.5559,1,456.4235,456.9233,,,,,,132,FEM,NOWORD,DIS,150,fada,,el,,456.9233,456.9234,0.108333333,-0.178703704,0,0,0,,0,224,224,131,1,mina,,,,
,,,,,,5baa866b7c0ebe000127a8eb,676192165fb32c2e1fb7aee6,67d169881580d2627f6df2be,2025-03-12_12h01.38.671,Tarea de decisión léxica,2024.2.5,Win32,142.8571429,,,,,,,,,,,,,,,,,,,,,,,456.9238,457.9651,l,1,0.3827,,0.3827,1,457.9652,458.4652,,,,,,357,FEM,WORD,DIS,150,bruja,,el,,458.4652,458.4652,0.108333333,-0.178703704,0,0,0,,0,225,225,356,1,gruba,,,,
,,,,,,5baa866b7c0ebe000127a8eb,676192165fb32c2e1fb7aee6,67d169881580d2627f6df2be,2025-03-12_12h01.38.671,Tarea de decisión léxica,2024.2.5,Win32,142.8571429,,,,,,,,,,,,,,,,,,,,,,,458.4656,459.4236,l,1,0.3009,,0.3009,1,459.4236,459.9237,,,,,,441,FEM,WORD,DIS,150,selva,,el,,459.9237,459.9238,0.108333333,-0.178703704,0,0,0,,0,226,226,440,1,telza,,,,
,,,,,,5baa866b7c0ebe000127a8eb,676192165fb32c2e1fb7aee6,67d169881580d2627f6df2be,2025-03-12_12h01.38.671,Tarea de decisión léxica,2024.2.5,Win32,142.8571429,,,,,,,,,,,,,,,,,,,,,,,459.9243,460.9794,a,1,0.3959,,0.3959,1,460.9795,461.4796,,,,,,296,MAS,NOWORD,DIS,150,goler,,la,,461.48,461.4804,0.108333333,-0.178703704,0,0,0,,0,227,227,295,1,dolor,,,,
,,,,,,5baa866b7c0ebe000127a8eb,676192165fb32c2e1fb7aee6,67d169881580d2627f6df2be,2025-03-12_12h01.38.671,Tarea de decisión léxica,2024.2.5,Win32,142.8571429,,,,,,,,,,,,,,,,,,,,,,,461.4806,462.6601,a,1,0.5235,,0.5235,1,462.6602,463.1603,,,,,,110,MAS,NOWORD,AGR,150,suno,,el,,463.1603,463.1603,0.108333333,-0.178703704,0,0,0,,0,228,228,109,1,rayo,,,,
,,,,,,5baa866b7c0ebe000127a8eb,676192165fb32c2e1fb7aee6,67d169881580d2627f6df2be,2025-03-12_12h01.38.671,Tarea de decisión léxica,2024.2.5,Win32,142.8571429,,,,,,,,,,,,,,,,,,,,,,,463.1606,464.2507,a,1,0.4306,,0.4306,1,464.2507,464.7509,,,,,,162,MAS,NOWORD,AGR,150,bopo,,el,,464.7509,464.7509,0.108333333,-0.178703704,0,0,0,,0,229,229,161,1,coro,,,,
,,,,,,5baa866b7c0ebe000127a8eb,676192165fb32c2e1fb7aee6,67d169881580d2627f6df2be,2025-03-12_12h01.38.671,Tarea de decisión léxica,2024.2.5,Win32,142.8571429,,,,,,,,,,,,,,,,,,,,,,,464.7514,465.8066,a,0,0.4005,,0.4005,0,465.8069,466.3066,,,,,,189,MAS,WORD,AGR,150,puño,,el,,466.3067,466.3067,0.108333333,-0.178703704,0,0,0,,0,230,230,188,1,muvo,,,,
,,,,,,5baa866b7c0ebe000127a8eb,676192165fb32c2e1fb7aee6,67d169881580d2627f6df2be,2025-03-12_12h01.38.671,Tarea de decisión léxica,2024.2.5,Win32,142.8571429,,,,,,,,,,,,,,,,,,,,,,,466.3071,467.4038,l,1,0.4373,,0.4373,1,467.4041,467.9041,,,,,,291,FEM,WORD,AGR,150,pista,,la,,467.9041,467.9041,0.108333333,-0.178703704,0,0,0,,0,231,231,290,1,mesta,,,,
,,,,,,5baa866b7c0ebe000127a8eb,676192165fb32c2e1fb7aee6,67d169881580d2627f6df2be,2025-03-12_12h01.38.671,Tarea de decisión léxica,2024.2.5,Win32,142.8571429,,,,,,,,,,,,,,,,,,,,,,,467.9046,468.9249,l,1,0.3592,,0.3592,1,468.925,469.4251,,,,,,111,MAS,WORD,AGR,150,muro,,el,,469.4255,469.4258,0.108333333,-0.178703704,0,0,0,,0,232,232,110,1,siro,,,,
,,,,,,5baa866b7c0ebe000127a8eb,676192165fb32c2e1fb7aee6,67d169881580d2627f6df2be,2025-03-12_12h01.38.671,Tarea de decisión léxica,2024.2.5,Win32,142.8571429,,,,,,,,,,,,,,,,,,,,,,,469.426,470.3558,l,1,0.2737,,0.2737,1,470.3558,470.8558,,,,,,335,FEM,WORD,DIS,150,costa,,el,,470.8558,470.8558,0.108333333,-0.178703704,0,0,0,,0,233,233,334,1,pesta,,,,
,,,,,,5baa866b7c0ebe000127a8eb,676192165fb32c2e1fb7aee6,67d169881580d2627f6df2be,2025-03-12_12h01.38.671,Tarea de decisión léxica,2024.2.5,Win32,142.8571429,,,,,,,,,,,,,,,,,,,,,,,470.8563,471.8974,a,1,0.3834,,0.3834,1,471.8976,472.3975,,,,,,200,MAS,NOWORD,DIS,150,fano,,la,,472.3975,472.3976,0.108333333,-0.178703704,0,0,0,,0,234,234,199,1,lazo,,,,
,,,,,,5baa866b7c0ebe000127a8eb,676192165fb32c2e1fb7aee6,67d169881580d2627f6df2be,2025-03-12_12h01.38.671,Tarea de decisión léxica,2024.2.5,Win32,142.8571429,,,,,,,,,,,,,,,,,,,,,,,472.3979,473.8284,a,1,0.7711,,0.7711,1,473.8284,474.3285,,,,,,48,MAS,NOWORD,DIS,150,chub,,la,,474.3285,474.3285,0.108333333,-0.178703704,0,0,0,,0,235,235,47,1,club,,,,
,,,,,,5baa866b7c0ebe000127a8eb,676192165fb32c2e1fb7aee6,67d169881580d2627f6df2be,2025-03-12_12h01.38.671,Tarea de decisión léxica,2024.2.5,Win32,142.8571429,,,,,,,,,,,,,,,,,,,,,,,474.329,475.4049,a,1,0.4199,,0.4199,1,475.4049,475.905,,,,,,298,MAS,NOWORD,AGR,150,brubo,,el,,475.905,475.905,0.108333333,-0.178703704,0,0,0,,0,236,236,297,1,grupo,,,,
,,,,,,5baa866b7c0ebe000127a8eb,676192165fb32c2e1fb7aee6,67d169881580d2627f6df2be,2025-03-12_12h01.38.671,Tarea de decisión léxica,2024.2.5,Win32,142.8571429,,,,,,,,,,,,,,,,,,,,,,,475.9053,476.9814,l,1,0.4171,,0.4171,1,476.9815,477.4816,,,,,,329,MAS,WORD,AGR,150,hueso,,el,,477.4819,477.4822,0.108333333,-0.178703704,0,0,0,,0,237,237,328,1,nueno,,,,
,,,,,,5baa866b7c0ebe000127a8eb,676192165fb32c2e1fb7aee6,67d169881580d2627f6df2be,2025-03-12_12h01.38.671,Tarea de decisión léxica,2024.2.5,Win32,142.8571429,,,,,,,,,,,,,,,,,,,,,,,477.4824,478.4679,l,1,0.3294,,0.3294,1,478.4679,478.9679,,,,,,107,MAS,WORD,AGR,150,saco,,el,,478.9679,478.9679,0.108333333,-0.178703704,0,0,0,,0,238,238,106,1,raot,,,,
,,,,,,5baa866b7c0ebe000127a8eb,676192165fb32c2e1fb7aee6,67d169881580d2627f6df2be,2025-03-12_12h01.38.671,Tarea de decisión léxica,2024.2.5,Win32,142.8571429,,,,,,,,,,,,,,,,,,,,,,,478.9682,479.9612,a,1,0.3348,,0.3348,1,479.9612,480.4612,,,,,,256,MAS,NOWORD,DIS,150,mauco,,la,,480.4612,480.4612,0.108333333,-0.178703704,0,0,0,,0,239,239,255,1,miedo,,,,
,,,,,,5baa866b7c0ebe000127a8eb,676192165fb32c2e1fb7aee6,67d169881580d2627f6df2be,2025-03-12_12h01.38.671,Tarea de decisión léxica,2024.2.5,Win32,142.8571429,,,,,,,,,,,,,,,,,,,,,,,480.4617,481.5169,a,1,0.3963,,0.3963,1,481.5169,482.0168,,,,,,98,MAS,NOWORD,AGR,150,fopo,,el,,482.0168,482.0168,0.108333333,-0.178703704,0,0,0,,0,240,240,97,1,mono,,,,
,,,,,,5baa866b7c0ebe000127a8eb,676192165fb32c2e1fb7aee6,67d169881580d2627f6df2be,2025-03-12_12h01.38.671,Tarea de decisión léxica,2024.2.5,Win32,142.8571429,,,,,,,,,,,,,,,,,,,,,,,482.0173,482.9753,a,1,0.2991,,0.2991,1,482.9754,483.4754,,,,,,260,MAS,NOWORD,DIS,150,jaumo,,la,,483.4754,483.4755,0.108333333,-0.178703704,0,0,0,,0,241,241,259,1,juego,,,,
,,,,,,5baa866b7c0ebe000127a8eb,676192165fb32c2e1fb7aee6,67d169881580d2627f6df2be,2025-03-12_12h01.38.671,Tarea de decisión léxica,2024.2.5,Win32,142.8571429,,,,,,,,,,,,,,,,,,,,,,,483.4759,484.4617,l,1,0.3296,,0.3296,1,484.4618,484.9618,,,,,,19,MAS,WORD,AGR,150,niño,,el,,484.9622,484.9624,0.108333333,-0.178703704,0,0,0,,0,242,242,18,1,himo,,,,
,,,,,,5baa866b7c0ebe000127a8eb,676192165fb32c2e1fb7aee6,67d169881580d2627f6df2be,2025-03-12_12h01.38.671,Tarea de decisión léxica,2024.2.5,Win32,142.8571429,,,,,,,,,,,,,,,,,,,,,,,484.9626,486.0452,a,1,0.4274,,0.4274,1,486.0452,486.5452,,,,,,420,MAS,NOWORD,DIS,150,chudo,,la,,486.5453,486.5454,0.108333333,-0.178703704,0,0,0,,0,243,243,419,1,truco,,,,
,,,,,,5baa866b7c0ebe000127a8eb,676192165fb32c2e1fb7aee6,67d169881580d2627f6df2be,2025-03-12_12h01.38.671,Tarea de decisión léxica,2024.2.5,Win32,142.8571429,,,,,,,,,,,,,,,,,,,,,,,486.5457,487.5315,a,1,0.327,,0.327,1,487.5315,488.0316,,,,,,258,FEM,NOWORD,AGR,150,asama,,la,,488.0316,488.0316,0.108333333,-0.178703704,0,0,0,,0,244,244,257,1,amiga,,,,
,,,,,,5baa866b7c0ebe000127a8eb,676192165fb32c2e1fb7aee6,67d169881580d2627f6df2be,2025-03-12_12h01.38.671,Tarea de decisión léxica,2024.2.5,Win32,142.8571429,,,,,,,,,,,,,,,,,,,,,,,488.032,489.2054,l,1,0.514,,0.514,1,489.2054,489.7054,,,,,,471,FEM,WORD,AGR,150,grasa,,la,,489.7054,489.7055,0.108333333,-0.178703704,0,0,0,,0,245,245,470,1,prana,,,,
,,,,,,5baa866b7c0ebe000127a8eb,676192165fb32c2e1fb7aee6,67d169881580d2627f6df2be,2025-03-12_12h01.38.671,Tarea de decisión léxica,2024.2.5,Win32,142.8571429,,,,,,,,,,,,,,,,,,,,,,,489.706,490.6639,l,1,0.2986,,0.2986,1,490.664,491.1639,,,,,,351,MAS,WORD,AGR,150,vuelo,,el,,491.164,491.164,0.108333333,-0.178703704,0,0,0,,0,246,246,350,1,duepo,,,,
,,,,,,5baa866b7c0ebe000127a8eb,676192165fb32c2e1fb7aee6,67d169881580d2627f6df2be,2025-03-12_12h01.38.671,Tarea de decisión léxica,2024.2.5,Win32,142.8571429,,,,,,,,,,,,,,,,,,,,,,,491.1644,492.1572,a,1,0.3348,,0.3348,1,492.1572,492.6571,,,,,,202,FEM,NOWORD,AGR,150,cusa,,la,,492.6575,492.6577,0.108333333,-0.178703704,0,0,0,,0,247,247,201,1,cuna,,,,
,,,,,,5baa866b7c0ebe000127a8eb,676192165fb32c2e1fb7aee6,67d169881580d2627f6df2be,2025-03-12_12h01.38.671,Tarea de decisión léxica,2024.2.5,Win32,142.8571429,,,,,,,,,,,,,,,,,,,,,,,492.658,493.6226,l,1,0.3057,,0.3057,1,493.6227,494.1227,,,,,,355,FEM,WORD,AGR,150,regla,,la,,494.1227,494.1227,0.108333333,-0.178703704,0,0,0,,0,248,248,354,1,bepla,,,,
,,,,,,5baa866b7c0ebe000127a8eb,676192165fb32c2e1fb7aee6,67d169881580d2627f6df2be,2025-03-12_12h01.38.671,Tarea de decisión léxica,2024.2.5,Win32,142.8571429,,,,,,,,,,,,,,,,,,,,,,,494.1231,495.227,l,1,0.4473,,0.4473,1,495.227,495.7269,,,,,,91,FEM,WORD,AGR,150,taza,,la,,495.7269,495.727,0.108333333,-0.178703704,0,0,0,,0,249,249,90,1,sava,,,,
,,,,,,5baa866b7c0ebe000127a8eb,676192165fb32c2e1fb7aee6,67d169881580d2627f6df2be,2025-03-12_12h01.38.671,Tarea de decisión léxica,2024.2.5,Win32,142.8571429,,,,,,,,,,,,,,,,,,,,,,,495.7273,496.7549,a,1,0.371,,0.371,1,496.7549,497.2549,,,,,,62,FEM,NOWORD,AGR,150,efla,,la,,497.255,497.2551,0.108333333,-0.178703704,0,0,0,,0,250,250,61,1,obra,,,,
,,,,,,5baa866b7c0ebe000127a8eb,676192165fb32c2e1fb7aee6,67d169881580d2627f6df2be,2025-03-12_12h01.38.671,Tarea de decisión léxica,2024.2.5,Win32,142.8571429,,,,,,,,,,,,,,,,,,,,,,,497.2555,498.644,a,1,0.7296,,0.7296,1,498.644,499.1442,,,,,,144,MAS,NOWORD,DIS,150,pezo,,la,,499.1447,499.145,0.108333333,-0.178703704,0,0,0,,0,251,251,143,1,pavo,,,,
,,,,,,5baa866b7c0ebe000127a8eb,676192165fb32c2e1fb7aee6,67d169881580d2627f6df2be,2025-03-12_12h01.38.671,Tarea de decisión léxica,2024.2.5,Win32,142.8571429,,,,,,,,,,,,,,,,,,,,,,,499.1455,500.158,a,1,0.3509,,0.3509,1,500.1581,500.6582,,,,,,398,FEM,NOWORD,AGR,150,trigi,,la,,500.6582,500.6583,0.108333333,-0.178703704,0,0,0,,0,252,252,397,1,tribu,,,,
,,,,,,5baa866b7c0ebe000127a8eb,676192165fb32c2e1fb7aee6,67d169881580d2627f6df2be,2025-03-12_12h01.38.671,Tarea de decisión léxica,2024.2.5,Win32,142.8571429,,,,,,,,,,,,,,,,,,,,,,,500.6586,502.2,l,0,0.8851,,0.8851,0,502.2003,502.7002,,,,,,430,FEM,NOWORD,AGR,150,tenta,,la,,502.7003,502.7003,0.108333333,-0.178703704,0,0,0,,0,253,253,429,1,tarta,,,,
,,,,,,5baa866b7c0ebe000127a8eb,676192165fb32c2e1fb7aee6,67d169881580d2627f6df2be,2025-03-12_12h01.38.671,Tarea de decisión léxica,2024.2.5,Win32,142.8571429,,,,,,,,,,,,,,,,,,,,,,,502.7007,503.6725,l,1,0.3127,,0.3127,1,503.6728,504.1725,,,,,,21,MAS,WORD,DIS,150,plan,,la,,504.1726,504.1726,0.108333333,-0.178703704,0,0,0,,0,254,254,20,1,blan,,,,
,,,,,,5baa866b7c0ebe000127a8eb,676192165fb32c2e1fb7aee6,67d169881580d2627f6df2be,2025-03-12_12h01.38.671,Tarea de decisión léxica,2024.2.5,Win32,142.8571429,,,,,,,,,,,,,,,,,,,,,,,504.1731,505.1657,l,1,0.3337,,0.3337,1,505.1658,505.6658,,,,,,29,MAS,WORD,DIS,150,modo,,la,,505.6658,505.6658,0.108333333,-0.178703704,0,0,0,,0,255,255,28,1,pono,,,,
,,,,,,5baa866b7c0ebe000127a8eb,676192165fb32c2e1fb7aee6,67d169881580d2627f6df2be,2025-03-12_12h01.38.671,Tarea de decisión léxica,2024.2.5,Win32,142.8571429,,,,,,,,,,,,,,,,,,,,,,,505.6662,506.7146,a,1,0.39,,0.39,1,506.7146,507.2146,,,,,,310,FEM,NOWORD,AGR,150,tirra,,la,,507.2152,507.2154,0.108333333,-0.178703704,0,0,0,,0,256,256,309,1,silla,,,,
,,,,,,5baa866b7c0ebe000127a8eb,676192165fb32c2e1fb7aee6,67d169881580d2627f6df2be,2025-03-12_12h01.38.671,Tarea de decisión léxica,2024.2.5,Win32,142.8571429,,,,,,,,,,,,,,,,,,,,,,,507.2156,508.5204,l,0,0.6462,,0.6462,0,508.5207,509.0204,,,,,,196,FEM,NOWORD,DIS,150,sira,,el,,509.0204,509.0204,0.108333333,-0.178703704,0,0,0,,0,257,257,195,1,tela,,,,
,,,,,,5baa866b7c0ebe000127a8eb,676192165fb32c2e1fb7aee6,67d169881580d2627f6df2be,2025-03-12_12h01.38.671,Tarea de decisión léxica,2024.2.5,Win32,142.8571429,,,,,,,,,,,,,,,,,,,,,,,509.0208,510.2844,a,1,0.6043,,0.6043,1,510.2846,510.7844,,,,,,120,MAS,NOWORD,DIS,150,hooy,,la,,510.7845,510.7845,0.108333333,-0.178703704,0,0,0,,0,258,258,119,1,pozo,,,,
,,,,,,5baa866b7c0ebe000127a8eb,676192165fb32c2e1fb7aee6,67d169881580d2627f6df2be,2025-03-12_12h01.38.671,Tarea de decisión léxica,2024.2.5,Win32,142.8571429,,,,,,,,,,,,,,,,,,,,,,,510.7849,511.9374,a,1,0.4932,,0.4932,1,511.9374,512.4374,,,,,,386,FEM,NOWORD,AGR,150,febra,,la,,512.4374,512.4375,0.108333333,-0.178703704,0,0,0,,0,259,259,385,1,letra,,,,
,,,,,,5baa866b7c0ebe000127a8eb,676192165fb32c2e1fb7aee6,67d169881580d2627f6df2be,2025-03-12_12h01.38.671,Tarea de decisión léxica,2024.2.5,Win32,142.8571429,,,,,,,,,,,,,,,,,,,,,,,512.4379,513.4445,a,1,0.3472,,0.3472,1,513.4446,513.9446,,,,,,424,MAS,NOWORD,DIS,150,quigo,,la,,513.9446,513.9446,0.108333333,-0.178703704,0,0,0,,0,260,260,423,1,queso,,,,
,,,,,,5baa866b7c0ebe000127a8eb,676192165fb32c2e1fb7aee6,67d169881580d2627f6df2be,2025-03-12_12h01.38.671,Tarea de decisión léxica,2024.2.5,Win32,142.8571429,,,,,,,,,,,,,,,,,,,,,,,513.9451,514.9379,a,1,0.3362,,0.3362,1,514.9379,515.438,,,,,,474,FEM,NOWORD,AGR,150,felia,,la,,515.4383,515.4386,0.108333333,-0.178703704,0,0,0,,0,261,261,473,1,feria,,,,
,,,,,,5baa866b7c0ebe000127a8eb,676192165fb32c2e1fb7aee6,67d169881580d2627f6df2be,2025-03-12_12h01.38.671,Tarea de decisión léxica,2024.2.5,Win32,142.8571429,,,,,,,,,,,,,,,,,,,,,,,515.4389,516.5353,l,1,0.439,,0.439,1,516.5354,517.0353,,,,,,109,MAS,WORD,DIS,150,rayo,,la,,517.0353,517.0353,0.108333333,-0.178703704,0,0,0,,0,262,262,108,1,suno,,,,
,,,,,,5baa866b7c0ebe000127a8eb,676192165fb32c2e1fb7aee6,67d169881580d2627f6df2be,2025-03-12_12h01.38.671,Tarea de decisión léxica,2024.2.5,Win32,142.8571429,,,,,,,,,,,,,,,,,,,,,,,517.0357,517.973,l,1,0.2816,,0.2816,1,517.9731,518.4731,,,,,,295,MAS,WORD,AGR,150,dolor,,el,,518.4731,518.4731,0.108333333,-0.178703704,0,0,0,,0,263,263,294,1,goler,,,,
,,,,,,5baa866b7c0ebe000127a8eb,676192165fb32c2e1fb7aee6,67d169881580d2627f6df2be,2025-03-12_12h01.38.671,Tarea de decisión léxica,2024.2.5,Win32,142.8571429,,,,,,,,,,,,,,,,,,,,,,,518.4735,519.4802,a,1,0.3481,,0.3481,1,519.4802,519.9802,,,,,,462,FEM,NOWORD,AGR,150,pagra,,la,,519.9802,519.9802,0.108333333,-0.178703704,0,0,0,,0,264,264,461,1,tabla,,,,
