counterbalancing_condition,consent_prescreening.block_1/declare_consent,consent_prescreening.block_1/age_years,consent_prescreening.block_1/gender,consent_prescreening.block_1/language_disorder,consent_prescreening.block_1/first_language,PROLIFIC_PID,STUDY_ID,SESSION_ID,date,expName,psychopyVersion,OS,frameRate,check_prescreening_answers.started,check_prescreening_answers.stopped,Instructions.started,Instructions.stopped,instr_done_keyboard.keys,instr_done_keyboard.rt,instr_done_keyboard.duration,instr_done_touch.x,instr_done_touch.y,instr_done_touch.leftButton,instr_done_touch.midButton,instr_done_touch.rightButton,instruction_pages.thisRepN,instruction_pages.thisTrialN,instruction_pages.thisN,instruction_pages.thisIndex,instruction_pages.ran,pageN,phase,instruct_text,has_image,instruct_image,presentTrial.started,presentTrial.stopped,response.keys,response.corr,response.rt,response.duration,rt,corr,feedback.started,feedback.stopped,practice_trials.thisRepN,practice_trials.thisTrialN,practice_trials.thisN,practice_trials.thisIndex,practice_trials.ran,TrialID,Gender,StimulusType,Condition,PrimeDuration,Prime,len,Flanker,corrAns,instr_done_touch.clicked_name,Break.started,Break.stopped,break_done_touch.x,break_done_touch.y,break_done_touch.leftButton,break_done_touch.midButton,break_done_touch.rightButton,break_done_keyboard.keys,experiment_trials.thisRepN,experiment_trials.thisTrialN,experiment_trials.thisN,experiment_trials.thisIndex,experiment_trials.ran,PairedWith,break_done_keyboard.rt,break_done_keyboard.duration,End.started,End.stopped
1,"[""over_18"",""comfortable"",""read_info"",""consent_given""]",30,NB,"[""none""]","[""spanish""]",5bf01b3e2a9d2c00013ddc2a,676192165fb32c2e1fb7aee6,67d1942156cd6e1dbd59ca6a,2025-03-12_15h03.49.050,Tarea de decisión léxica,2024.2.5,Win32,144.9275362,,,,,,,,,,,,,,,,,,,,,,,,,,,,,,,,,,,,,,,,,,,,,,,,,,,,,,,,,,,,,,,,,
,,,,,,5bf01b3e2a9d2c00013ddc2a,676192165fb32c2e1fb7aee6,67d1942156cd6e1dbd59ca6a,2025-03-12_15h03.49.050,Tarea de decisión léxica,2024.2.5,Win32,144.9275362,41.4461,41.4461,,,,,,,,,,,,,,,,,,,,,,,,,,,,,,,,,,,,,,,,,,,,,,,,,,,,,,,,,,,,,,,
,,,,,,5bf01b3e2a9d2c00013ddc2a,676192165fb32c2e1fb7aee6,67d1942156cd6e1dbd59ca6a,2025-03-12_15h03.49.050,Tarea de decisión léxica,2024.2.5,Win32,144.9275362,,,41.455,60.4876,space,19.0126,,0.139814843,-0.201851866,0,0,0,0,0,0,0,1,1,instructions,"INSTRUCCIONES
Va a realizar una prueba de decisión léxica. Desde el comienzo de la prueba mire siempre al centro de la pantalla. Se presentará una serie de cadenas de letras, una a la vez, en la pantalla. Su tarea consiste en determinar si cada cadena de letras constituye una palabra real en español o una no-palabra (una secuencia de letras que no constituye una palabra real). 

Pulse la tecla ESPACIO para continuar.",0,keyboardresponseWN.png,,,,,,,,,,,,,,,,,,,,,,,,,,,,,,,,,,,,,,,,,,,
,,,,,,5bf01b3e2a9d2c00013ddc2a,676192165fb32c2e1fb7aee6,67d1942156cd6e1dbd59ca6a,2025-03-12_15h03.49.050,Tarea de decisión léxica,2024.2.5,Win32,144.9275362,,,60.489,88.5045,space,28.0101,,0.058333333,-0.089814843,0,0,0,0,1,1,1,1,2,instructions,"El procedimiento es el siguiente: Aparecerán dos barras verticales posicionadas en el centro de la pantalla, separadas por un pequeño espacio.Por favor, enfoque su atención en el espacio entre las barras. Esto preparará sus ojos para la siguiente cadena de letras, que aparecerá entre las dos barras durante un instante.

Pulse la tecla ESPACIO para continuar.",0,keyboardresponseWN.png,,,,,,,,,,,,,,,,,,,,,,,,,,,,,,,,,,,,,,,,,,,
,,,,,,5bf01b3e2a9d2c00013ddc2a,676192165fb32c2e1fb7aee6,67d1942156cd6e1dbd59ca6a,2025-03-12_15h03.49.050,Tarea de decisión léxica,2024.2.5,Win32,144.9275362,,,88.5061,107.6799,space,19.1407,,-0.010185157,-0.034259288,0,0,0,0,2,2,2,1,3,instructions,"En el teclado de su dispositivo, pulse la tecla ""A"" si la cadena de letras es una palabra real en español (por ejemplo: ""mano"") y la tecla ""L"" si la cadena de letras es una no-palabra (por ejemplo: ""minu"").
Pulse la tecla ESPACIO para continuar.",1,keyboardresponseWN.png,,,,,,,,,,,,,,,,,,,,,,,,,,,,,,,,,,,,,,,,,,,
,,,,,,5bf01b3e2a9d2c00013ddc2a,676192165fb32c2e1fb7aee6,67d1942156cd6e1dbd59ca6a,2025-03-12_15h03.49.050,Tarea de decisión léxica,2024.2.5,Win32,144.9275362,,,107.6813,128.55,space,20.864,,0.037037065,-0.048148176,0,0,0,0,3,3,3,1,4,instructions,"Es muy importante que responda con la mayor rapidez y precisión posibles. Si no responde dentro de 2 segundos, aparecerá el mensaje ""Muy lento"" y el experimento pasará a la siguiente palabra. Inmediatamente después de su respuesta se indicará si fue correcta o no. Los primeros 15 intentos serán de práctica y habrá dos descansos durante la prueba.

Pulse la tecla ESPACIO  para iniciar la parte de práctica.",0,keyboardresponseWN.png,,,,,,,,,,,,,,,,,,,,,,,,,,,,,,,,,,,,,,,,,,,
,,,,,,5bf01b3e2a9d2c00013ddc2a,676192165fb32c2e1fb7aee6,67d1942156cd6e1dbd59ca6a,2025-03-12_15h03.49.050,Tarea de decisión léxica,2024.2.5,Win32,144.9275362,,,,,,,,,,,,,,,,,,,,,,,128.5575,130.1265,l,1,0.9127,,0.9127,1,130.1267,130.6265,0,0,0,0,1,1001,FEM,NOWORD,AGR,150,croz,4,la,a,,,,,,,,,,,,,,,,,,,
,,,,,,5bf01b3e2a9d2c00013ddc2a,676192165fb32c2e1fb7aee6,67d1942156cd6e1dbd59ca6a,2025-03-12_15h03.49.050,Tarea de decisión léxica,2024.2.5,Win32,144.9275362,,,,,,,,,,,,,,,,,,,,,,,130.6276,131.6614,l,1,0.3768,,0.3768,1,131.6614,132.1613,0,1,1,4,1,1005,MAS,NOWORD,DIS,150,nobad,5,la,a,,,,,,,,,,,,,,,,,,,
,,,,,,5bf01b3e2a9d2c00013ddc2a,676192165fb32c2e1fb7aee6,67d1942156cd6e1dbd59ca6a,2025-03-12_15h03.49.050,Tarea de decisión léxica,2024.2.5,Win32,144.9275362,,,,,,,,,,,,,,,,,,,,,,,132.1622,133.2101,l,1,0.3897,,0.3897,1,133.2101,133.7101,0,2,2,3,1,1004,FEM,NOWORD,AGR,150,bireo,5,la,a,,,,,,,,,,,,,,,,,,,
,,,,,,5bf01b3e2a9d2c00013ddc2a,676192165fb32c2e1fb7aee6,67d1942156cd6e1dbd59ca6a,2025-03-12_15h03.49.050,Tarea de decisión léxica,2024.2.5,Win32,144.9275362,,,,,,,,,,,,,,,,,,,,,,,133.711,134.8284,l,1,0.4604,,0.4604,1,134.8284,135.3284,0,3,3,2,1,1003,FEM,NOWORD,DIS,150,muvor,5,el,a,,,,,,,,,,,,,,,,,,,
,,,,,,5bf01b3e2a9d2c00013ddc2a,676192165fb32c2e1fb7aee6,67d1942156cd6e1dbd59ca6a,2025-03-12_15h03.49.050,Tarea de decisión léxica,2024.2.5,Win32,144.9275362,,,,,,,,,,,,,,,,,,,,,,,135.329,136.2522,l,1,0.2679,,0.2679,1,136.2523,136.7523,0,4,4,1,1,1002,FEM,NOWORD,DIS,150,mabo,4,el,a,,,,,,,,,,,,,,,,,,,
,,,,,,5bf01b3e2a9d2c00013ddc2a,676192165fb32c2e1fb7aee6,67d1942156cd6e1dbd59ca6a,2025-03-12_15h03.49.050,Tarea de decisión léxica,2024.2.5,Win32,144.9275362,,,,,,,,,,,,,,,,,,,,,,,136.7531,137.891,a,1,0.4806,,0.4806,1,137.8911,138.3913,0,5,5,6,1,1007,MAS,WORD,DIS,150,masa,4,la,l,,,,,,,,,,,,,,,,,,,
,,,,,,5bf01b3e2a9d2c00013ddc2a,676192165fb32c2e1fb7aee6,67d1942156cd6e1dbd59ca6a,2025-03-12_15h03.49.050,Tarea de decisión léxica,2024.2.5,Win32,144.9275362,,,,,,,,,,,,,,,,,,,,,,,138.3922,139.3148,a,1,0.2672,,0.2672,1,139.3148,139.8149,0,6,6,7,1,1008,MAS,WORD,DIS,150,frío,4,la,l,,,,,,,,,,,,,,,,,,,
,,,,,,5bf01b3e2a9d2c00013ddc2a,676192165fb32c2e1fb7aee6,67d1942156cd6e1dbd59ca6a,2025-03-12_15h03.49.050,Tarea de decisión léxica,2024.2.5,Win32,144.9275362,,,,,,,,,,,,,,,,,,,,,,,139.8157,140.9122,a,1,0.4426,,0.4426,1,140.9122,141.4123,0,7,7,8,1,1009,FEM,WORD,AGR,150,viejo,5,la,l,,,,,,,,,,,,,,,,,,,
,,,,,,5bf01b3e2a9d2c00013ddc2a,676192165fb32c2e1fb7aee6,67d1942156cd6e1dbd59ca6a,2025-03-12_15h03.49.050,Tarea de decisión léxica,2024.2.5,Win32,144.9275362,,,,,,,,,,,,,,,,,,,,,,,141.4129,142.7667,a,1,0.7004,,0.7004,1,142.7668,143.2666,0,8,8,9,1,1010,MAS,WORD,DIS,150,video,5,la,l,,,,,,,,,,,,,,,,,,,
,,,,,,5bf01b3e2a9d2c00013ddc2a,676192165fb32c2e1fb7aee6,67d1942156cd6e1dbd59ca6a,2025-03-12_15h03.49.050,Tarea de decisión léxica,2024.2.5,Win32,144.9275362,,,,,,,,,,,,,,,,,,,,,,,143.2673,144.232,a,1,0.3063,,0.3063,1,144.2321,144.732,0,9,9,5,1,1006,FEM,WORD,AGR,150,cara,4,la,l,,,,,,,,,,,,,,,,,,,
,,,,,,5bf01b3e2a9d2c00013ddc2a,676192165fb32c2e1fb7aee6,67d1942156cd6e1dbd59ca6a,2025-03-12_15h03.49.050,Tarea de decisión léxica,2024.2.5,Win32,144.9275362,,,161.8046,189.4591,space,27.6511,,0.221296353,-0.052777778,0,0,0,,,,,,,,,,,189.4764,190.7856,l,1,0.642,,0.642,1,190.7857,191.2858,,,,,,218,MAS,NOWORD,AGR,150,budo,,el,,,191.2859,191.2885,0.221296353,-0.052777778,0,0,0,,0,0,0,217,1,luto,,,,
,,,,,,5bf01b3e2a9d2c00013ddc2a,676192165fb32c2e1fb7aee6,67d1942156cd6e1dbd59ca6a,2025-03-12_15h03.49.050,Tarea de decisión léxica,2024.2.5,Win32,144.9275362,,,,,,,,,,,,,,,,,,,,,,,191.289,192.2927,l,1,0.3342,,0.3342,1,192.2927,192.7929,,,,,,322,MAS,NOWORD,AGR,150,rarco,,el,,,192.7929,192.7929,0.221296353,-0.052777778,0,0,0,,0,1,1,321,1,banco,,,,
,,,,,,5bf01b3e2a9d2c00013ddc2a,676192165fb32c2e1fb7aee6,67d1942156cd6e1dbd59ca6a,2025-03-12_15h03.49.050,Tarea de decisión léxica,2024.2.5,Win32,144.9275362,,,,,,,,,,,,,,,,,,,,,,,192.7936,193.9667,a,1,0.5141,,0.5141,1,193.9667,194.4666,,,,,,23,FEM,WORD,DIS,150,hija,,el,,,194.4672,194.4676,0.221296353,-0.052777778,0,0,0,,0,2,2,22,1,giva,,,,
,,,,,,5bf01b3e2a9d2c00013ddc2a,676192165fb32c2e1fb7aee6,67d1942156cd6e1dbd59ca6a,2025-03-12_15h03.49.050,Tarea de decisión léxica,2024.2.5,Win32,144.9275362,,,,,,,,,,,,,,,,,,,,,,,194.4678,195.6403,l,1,0.512,,0.512,1,195.6404,196.1405,,,,,,450,FEM,NOWORD,AGR,150,crusa,,la,,,196.1405,196.1406,0.221296353,-0.052777778,0,0,0,,0,3,3,449,1,pluma,,,,
,,,,,,5bf01b3e2a9d2c00013ddc2a,676192165fb32c2e1fb7aee6,67d1942156cd6e1dbd59ca6a,2025-03-12_15h03.49.050,Tarea de decisión léxica,2024.2.5,Win32,144.9275362,,,,,,,,,,,,,,,,,,,,,,,196.1411,197.1688,a,1,0.3745,,0.3745,1,197.1689,197.6683,,,,,,255,MAS,WORD,DIS,150,miedo,,la,,,197.6684,197.6684,0.221296353,-0.052777778,0,0,0,,0,4,4,254,1,mauco,,,,
,,,,,,5bf01b3e2a9d2c00013ddc2a,676192165fb32c2e1fb7aee6,67d1942156cd6e1dbd59ca6a,2025-03-12_15h03.49.050,Tarea de decisión léxica,2024.2.5,Win32,144.9275362,,,,,,,,,,,,,,,,,,,,,,,197.6689,198.682,a,1,0.3585,,0.3585,1,198.682,199.1824,,,,,,349,MAS,WORD,DIS,150,color,,la,,,199.1824,199.1825,0.221296353,-0.052777778,0,0,0,,0,5,5,348,1,cosir,,,,
,,,,,,5bf01b3e2a9d2c00013ddc2a,676192165fb32c2e1fb7aee6,67d1942156cd6e1dbd59ca6a,2025-03-12_15h03.49.050,Tarea de decisión léxica,2024.2.5,Win32,144.9275362,,,,,,,,,,,,,,,,,,,,,,,199.1832,200.2937,l,1,0.4515,,0.4515,1,200.2937,200.7937,,,,,,84,FEM,NOWORD,DIS,150,taga,,el,,,200.7937,200.7937,0.221296353,-0.052777778,0,0,0,,0,6,6,83,1,bala,,,,
,,,,,,5bf01b3e2a9d2c00013ddc2a,676192165fb32c2e1fb7aee6,67d1942156cd6e1dbd59ca6a,2025-03-12_15h03.49.050,Tarea de decisión léxica,2024.2.5,Win32,144.9275362,,,,,,,,,,,,,,,,,,,,,,,200.7942,202.0024,l,1,0.5552,,0.5552,1,202.0025,202.5023,,,,,,392,MAS,NOWORD,DIS,150,dievo,,la,,,202.5028,202.5032,0.221296353,-0.052777778,0,0,0,,0,7,7,391,1,dueño,,,,
,,,,,,5bf01b3e2a9d2c00013ddc2a,676192165fb32c2e1fb7aee6,67d1942156cd6e1dbd59ca6a,2025-03-12_15h03.49.050,Tarea de decisión léxica,2024.2.5,Win32,144.9275362,,,,,,,,,,,,,,,,,,,,,,,202.5035,203.5578,l,1,0.3947,,0.3947,1,203.5579,204.0577,,,,,,20,MAS,NOWORD,DIS,150,himo,,la,,,204.0578,204.0579,0.221296353,-0.052777778,0,0,0,,0,8,8,19,1,niño,,,,
,,,,,,5bf01b3e2a9d2c00013ddc2a,676192165fb32c2e1fb7aee6,67d1942156cd6e1dbd59ca6a,2025-03-12_15h03.49.050,Tarea de decisión léxica,2024.2.5,Win32,144.9275362,,,,,,,,,,,,,,,,,,,,,,,204.0583,205.0443,l,1,0.3328,,0.3328,1,205.0445,205.5442,,,,,,174,FEM,NOWORD,AGR,150,boma,,la,,,205.5443,205.5443,0.221296353,-0.052777778,0,0,0,,0,9,9,173,1,rosa,,,,
,,,,,,5bf01b3e2a9d2c00013ddc2a,676192165fb32c2e1fb7aee6,67d1942156cd6e1dbd59ca6a,2025-03-12_15h03.49.050,Tarea de decisión léxica,2024.2.5,Win32,144.9275362,,,,,,,,,,,,,,,,,,,,,,,205.545,206.6555,l,1,0.4547,,0.4547,1,206.6556,207.1556,,,,,,148,FEM,NOWORD,DIS,150,pama,,el,,,207.1556,207.1557,0.221296353,-0.052777778,0,0,0,,0,10,10,147,1,hoja,,,,
,,,,,,5bf01b3e2a9d2c00013ddc2a,676192165fb32c2e1fb7aee6,67d1942156cd6e1dbd59ca6a,2025-03-12_15h03.49.050,Tarea de decisión léxica,2024.2.5,Win32,144.9275362,,,,,,,,,,,,,,,,,,,,,,,207.1561,208.246,a,1,0.4306,,0.4306,1,208.2461,208.7459,,,,,,301,FEM,WORD,AGR,150,banda,,la,,,208.7466,208.7469,0.221296353,-0.052777778,0,0,0,,0,11,11,300,1,ranga,,,,
,,,,,,5bf01b3e2a9d2c00013ddc2a,676192165fb32c2e1fb7aee6,67d1942156cd6e1dbd59ca6a,2025-03-12_15h03.49.050,Tarea de decisión léxica,2024.2.5,Win32,144.9275362,,,,,,,,,,,,,,,,,,,,,,,208.7472,209.7807,a,1,0.3731,,0.3731,1,209.7807,210.2806,,,,,,309,FEM,WORD,DIS,150,silla,,el,,,210.2806,210.2806,0.221296353,-0.052777778,0,0,0,,0,12,12,308,1,tirra,,,,
,,,,,,5bf01b3e2a9d2c00013ddc2a,676192165fb32c2e1fb7aee6,67d1942156cd6e1dbd59ca6a,2025-03-12_15h03.49.050,Tarea de decisión léxica,2024.2.5,Win32,144.9275362,,,,,,,,,,,,,,,,,,,,,,,210.2811,211.3154,a,1,0.3754,,0.3754,1,211.3154,211.8157,,,,,,83,FEM,WORD,DIS,150,bala,,el,,,211.8157,211.8157,0.221296353,-0.052777778,0,0,0,,0,13,13,82,1,taga,,,,
,,,,,,5bf01b3e2a9d2c00013ddc2a,676192165fb32c2e1fb7aee6,67d1942156cd6e1dbd59ca6a,2025-03-12_15h03.49.050,Tarea de decisión léxica,2024.2.5,Win32,144.9275362,,,,,,,,,,,,,,,,,,,,,,,211.8164,212.8778,a,1,0.4032,,0.4032,1,212.8779,213.3784,,,,,,391,MAS,WORD,AGR,150,dueño,,el,,,213.3785,213.3785,0.221296353,-0.052777778,0,0,0,,0,14,14,390,1,dievo,,,,
,,,,,,5bf01b3e2a9d2c00013ddc2a,676192165fb32c2e1fb7aee6,67d1942156cd6e1dbd59ca6a,2025-03-12_15h03.49.050,Tarea de decisión léxica,2024.2.5,Win32,144.9275362,,,,,,,,,,,,,,,,,,,,,,,213.379,214.4128,a,1,0.3746,,0.3746,1,214.4129,214.9131,,,,,,401,MAS,WORD,AGR,150,polvo,,el,,,214.9131,214.9131,0.221296353,-0.052777778,0,0,0,,0,15,15,400,1,pirvo,,,,
,,,,,,5bf01b3e2a9d2c00013ddc2a,676192165fb32c2e1fb7aee6,67d1942156cd6e1dbd59ca6a,2025-03-12_15h03.49.050,Tarea de decisión léxica,2024.2.5,Win32,144.9275362,,,,,,,,,,,,,,,,,,,,,,,214.9137,215.8513,a,1,0.2782,,0.2782,1,215.8513,216.3508,,,,,,95,FEM,WORD,AGR,151,moda,,la,,,216.3512,216.3516,0.221296353,-0.052777778,0,0,0,,0,16,16,94,1,neda,,,,
,,,,,,5bf01b3e2a9d2c00013ddc2a,676192165fb32c2e1fb7aee6,67d1942156cd6e1dbd59ca6a,2025-03-12_15h03.49.050,Tarea de decisión léxica,2024.2.5,Win32,144.9275362,,,,,,,,,,,,,,,,,,,,,,,216.3518,217.3231,a,1,0.3092,,0.3092,1,217.3231,217.8231,,,,,,329,MAS,WORD,AGR,150,hueso,,el,,,217.8231,217.8232,0.221296353,-0.052777778,0,0,0,,0,17,17,328,1,nueno,,,,
,,,,,,5bf01b3e2a9d2c00013ddc2a,676192165fb32c2e1fb7aee6,67d1942156cd6e1dbd59ca6a,2025-03-12_15h03.49.050,Tarea de decisión léxica,2024.2.5,Win32,144.9275362,,,,,,,,,,,,,,,,,,,,,,,217.8239,218.8371,l,1,0.3499,,0.3499,1,218.8372,219.3373,,,,,,300,FEM,NOWORD,DIS,150,bosga,,el,,,219.3373,219.3373,0.221296353,-0.052777778,0,0,0,,0,18,18,299,1,bolsa,,,,
,,,,,,5bf01b3e2a9d2c00013ddc2a,676192165fb32c2e1fb7aee6,67d1942156cd6e1dbd59ca6a,2025-03-12_15h03.49.050,Tarea de decisión léxica,2024.2.5,Win32,144.9275362,,,,,,,,,,,,,,,,,,,,,,,219.3379,220.351,l,1,0.3549,,0.3549,1,220.3511,220.8508,,,,,,376,FEM,NOWORD,DIS,150,sasna,,el,,,220.8509,220.851,0.221296353,-0.052777778,0,0,0,,0,19,19,375,1,salsa,,,,
,,,,,,5bf01b3e2a9d2c00013ddc2a,676192165fb32c2e1fb7aee6,67d1942156cd6e1dbd59ca6a,2025-03-12_15h03.49.050,Tarea de decisión léxica,2024.2.5,Win32,144.9275362,,,,,,,,,,,,,,,,,,,,,,,220.8514,221.9483,a,1,0.4368,,0.4368,1,221.9484,222.4484,,,,,,341,MAS,WORD,AGR,150,valor,,el,,,222.4484,222.4485,0.221296353,-0.052777778,0,0,0,,0,20,20,340,1,daror,,,,
,,,,,,5bf01b3e2a9d2c00013ddc2a,676192165fb32c2e1fb7aee6,67d1942156cd6e1dbd59ca6a,2025-03-12_15h03.49.050,Tarea de decisión léxica,2024.2.5,Win32,144.9275362,,,,,,,,,,,,,,,,,,,,,,,222.4489,223.5597,l,1,0.4506,,0.4506,1,223.5597,224.0596,,,,,,216,FEM,NOWORD,DIS,150,raua,,el,,,224.0602,224.0605,0.221296353,-0.052777778,0,0,0,,0,21,21,215,1,raíz,,,,
,,,,,,5bf01b3e2a9d2c00013ddc2a,676192165fb32c2e1fb7aee6,67d1942156cd6e1dbd59ca6a,2025-03-12_15h03.49.050,Tarea de decisión léxica,2024.2.5,Win32,144.9275362,,,,,,,,,,,,,,,,,,,,,,,224.0608,225.2196,a,1,0.5012,,0.5012,1,225.2197,225.7196,,,,,,379,MAS,WORD,DIS,150,turno,,la,,,225.7197,225.7197,0.221296353,-0.052777778,0,0,0,,0,22,22,378,1,tunso,,,,
,,,,,,5bf01b3e2a9d2c00013ddc2a,676192165fb32c2e1fb7aee6,67d1942156cd6e1dbd59ca6a,2025-03-12_15h03.49.050,Tarea de decisión léxica,2024.2.5,Win32,144.9275362,,,,,,,,,,,,,,,,,,,,,,,225.7201,226.8038,l,1,0.4304,,0.4304,1,226.8039,227.3033,,,,,,440,FEM,NOWORD,DIS,150,prema,,el,,,227.3033,227.3034,0.221296353,-0.052777778,0,0,0,,0,23,23,439,1,presa,,,,
,,,,,,5bf01b3e2a9d2c00013ddc2a,676192165fb32c2e1fb7aee6,67d1942156cd6e1dbd59ca6a,2025-03-12_15h03.49.050,Tarea de decisión léxica,2024.2.5,Win32,144.9275362,,,,,,,,,,,,,,,,,,,,,,,227.304,228.373,l,1,0.4161,,0.4161,1,228.373,228.8726,,,,,,14,FEM,NOWORD,AGR,150,nola,,la,,,228.8726,228.8727,0.221296353,-0.052777778,0,0,0,,0,24,24,13,1,hora,,,,
,,,,,,5bf01b3e2a9d2c00013ddc2a,676192165fb32c2e1fb7aee6,67d1942156cd6e1dbd59ca6a,2025-03-12_15h03.49.050,Tarea de decisión léxica,2024.2.5,Win32,144.9275362,,,,,,,,,,,,,,,,,,,,,,,228.8731,230.1243,l,0,0.5915,,0.5915,0,230.1249,230.623,,,,,,157,MAS,WORD,DIS,150,nido,,la,,,230.6231,230.6231,0.221296353,-0.052777778,0,0,0,,0,25,25,156,1,hico,,,,
,,,,,,5bf01b3e2a9d2c00013ddc2a,676192165fb32c2e1fb7aee6,67d1942156cd6e1dbd59ca6a,2025-03-12_15h03.49.050,Tarea de decisión léxica,2024.2.5,Win32,144.9275362,,,,,,,,,,,,,,,,,,,,,,,230.6236,231.742,a,1,0.4586,,0.4586,1,231.7424,232.2408,,,,,,9,MAS,WORD,AGR,150,tipo,,el,,,232.2415,232.2418,0.221296353,-0.052777778,0,0,0,,0,26,26,8,1,sibo,,,,
,,,,,,5bf01b3e2a9d2c00013ddc2a,676192165fb32c2e1fb7aee6,67d1942156cd6e1dbd59ca6a,2025-03-12_15h03.49.050,Tarea de decisión léxica,2024.2.5,Win32,144.9275362,,,,,,,,,,,,,,,,,,,,,,,232.2421,233.4222,l,1,0.5275,,0.5275,1,233.4222,233.9219,,,,,,344,FEM,NOWORD,DIS,150,trada,,el,,,233.9219,233.9219,0.221296353,-0.052777778,0,0,0,,0,27,27,343,1,plata,,,,
,,,,,,5bf01b3e2a9d2c00013ddc2a,676192165fb32c2e1fb7aee6,67d1942156cd6e1dbd59ca6a,2025-03-12_15h03.49.050,Tarea de decisión léxica,2024.2.5,Win32,144.9275362,,,,,,,,,,,,,,,,,,,,,,,233.9224,234.985,l,1,0.4097,,0.4097,1,234.9851,235.4848,,,,,,326,FEM,NOWORD,AGR,150,mabia,,la,,,235.4848,235.4848,0.221296353,-0.052777778,0,0,0,,0,28,28,325,1,magia,,,,
,,,,,,5bf01b3e2a9d2c00013ddc2a,676192165fb32c2e1fb7aee6,67d1942156cd6e1dbd59ca6a,2025-03-12_15h03.49.050,Tarea de decisión léxica,2024.2.5,Win32,144.9275362,,,,,,,,,,,,,,,,,,,,,,,235.4854,236.5679,l,1,0.4247,,0.4247,1,236.5679,237.068,,,,,,304,MAS,NOWORD,DIS,150,lanco,,la,,,237.068,237.068,0.221296353,-0.052777778,0,0,0,,0,29,29,303,1,barco,,,,
,,,,,,5bf01b3e2a9d2c00013ddc2a,676192165fb32c2e1fb7aee6,67d1942156cd6e1dbd59ca6a,2025-03-12_15h03.49.050,Tarea de decisión léxica,2024.2.5,Win32,144.9275362,,,,,,,,,,,,,,,,,,,,,,,237.0684,238.117,l,1,0.3954,,0.3954,1,238.117,238.6168,,,,,,368,MAS,NOWORD,DIS,150,rerob,,la,,,238.6168,238.6168,0.221296353,-0.052777778,0,0,0,,0,30,30,367,1,reloj,,,,
,,,,,,5bf01b3e2a9d2c00013ddc2a,676192165fb32c2e1fb7aee6,67d1942156cd6e1dbd59ca6a,2025-03-12_15h03.49.050,Tarea de decisión léxica,2024.2.5,Win32,144.9275362,,,,,,,,,,,,,,,,,,,,,,,238.6173,239.6517,l,1,0.3739,,0.3739,1,239.6517,240.1518,,,,,,286,MAS,NOWORD,AGR,150,echor,,el,,,240.1524,240.1527,0.221296353,-0.052777778,0,0,0,,0,31,31,285,1,error,,,,
,,,,,,5bf01b3e2a9d2c00013ddc2a,676192165fb32c2e1fb7aee6,67d1942156cd6e1dbd59ca6a,2025-03-12_15h03.49.050,Tarea de decisión léxica,2024.2.5,Win32,144.9275362,,,,,,,,,,,,,,,,,,,,,,,240.153,241.1449,l,1,0.33,,0.33,1,241.1449,241.6452,,,,,,204,FEM,NOWORD,DIS,150,beja,,el,,,241.6452,241.6452,0.221296353,-0.052777778,0,0,0,,0,32,32,203,1,leña,,,,
,,,,,,5bf01b3e2a9d2c00013ddc2a,676192165fb32c2e1fb7aee6,67d1942156cd6e1dbd59ca6a,2025-03-12_15h03.49.050,Tarea de decisión léxica,2024.2.5,Win32,144.9275362,,,,,,,,,,,,,,,,,,,,,,,241.6457,242.7636,a,1,0.4652,,0.4652,1,242.7636,243.2629,,,,,,123,FEM,WORD,DIS,150,flor,,el,,,243.263,243.2631,0.221296353,-0.052777778,0,0,0,,0,33,33,122,1,maba,,,,
,,,,,,5bf01b3e2a9d2c00013ddc2a,676192165fb32c2e1fb7aee6,67d1942156cd6e1dbd59ca6a,2025-03-12_15h03.49.050,Tarea de decisión léxica,2024.2.5,Win32,144.9275362,,,,,,,,,,,,,,,,,,,,,,,243.2635,244.3814,l,1,0.4648,,0.4648,1,244.3815,244.8813,,,,,,388,FEM,NOWORD,DIS,150,bresa,,el,,,244.8814,244.8815,0.221296353,-0.052777778,0,0,0,,0,34,34,387,1,crema,,,,
,,,,,,5bf01b3e2a9d2c00013ddc2a,676192165fb32c2e1fb7aee6,67d1942156cd6e1dbd59ca6a,2025-03-12_15h03.49.050,Tarea de decisión léxica,2024.2.5,Win32,144.9275362,,,,,,,,,,,,,,,,,,,,,,,244.8818,245.9094,a,1,0.3682,,0.3682,1,245.9094,246.4091,,,,,,359,MAS,WORD,DIS,150,calor,,la,,,246.4097,246.41,0.221296353,-0.052777778,0,0,0,,0,35,35,358,1,cacer,,,,
,,,,,,5bf01b3e2a9d2c00013ddc2a,676192165fb32c2e1fb7aee6,67d1942156cd6e1dbd59ca6a,2025-03-12_15h03.49.050,Tarea de decisión léxica,2024.2.5,Win32,144.9275362,,,,,,,,,,,,,,,,,,,,,,,246.4103,247.4511,a,1,0.3842,,0.3842,1,247.4511,247.9514,,,,,,473,FEM,WORD,DIS,150,feria,,el,,,247.9514,247.9514,0.221296353,-0.052777778,0,0,0,,0,36,36,472,1,felia,,,,
,,,,,,5bf01b3e2a9d2c00013ddc2a,676192165fb32c2e1fb7aee6,67d1942156cd6e1dbd59ca6a,2025-03-12_15h03.49.050,Tarea de decisión léxica,2024.2.5,Win32,144.9275362,,,,,,,,,,,,,,,,,,,,,,,247.9519,248.9797,l,1,0.3745,,0.3745,1,248.9797,249.479,,,,,,230,MAS,NOWORD,AGR,150,ador,,el,,,249.479,249.4792,0.221296353,-0.052777778,0,0,0,,0,37,37,229,1,amor,,,,
,,,,,,5bf01b3e2a9d2c00013ddc2a,676192165fb32c2e1fb7aee6,67d1942156cd6e1dbd59ca6a,2025-03-12_15h03.49.050,Tarea de decisión léxica,2024.2.5,Win32,144.9275362,,,,,,,,,,,,,,,,,,,,,,,249.4796,250.5695,a,1,0.4332,,0.4332,1,250.5696,251.0694,,,,,,267,MAS,WORD,AGR,150,libro,,el,,,251.0695,251.0695,0.221296353,-0.052777778,0,0,0,,0,38,38,266,1,figro,,,,
,,,,,,5bf01b3e2a9d2c00013ddc2a,676192165fb32c2e1fb7aee6,67d1942156cd6e1dbd59ca6a,2025-03-12_15h03.49.050,Tarea de decisión léxica,2024.2.5,Win32,144.9275362,,,,,,,,,,,,,,,,,,,,,,,251.07,252.035,a,1,0.3057,,0.3057,1,252.0351,252.5352,,,,,,339,MAS,WORD,DIS,150,brazo,,la,,,252.5352,252.5352,0.221296353,-0.052777778,0,0,0,,0,39,39,338,1,plajo,,,,
,,,,,,5bf01b3e2a9d2c00013ddc2a,676192165fb32c2e1fb7aee6,67d1942156cd6e1dbd59ca6a,2025-03-12_15h03.49.050,Tarea de decisión léxica,2024.2.5,Win32,144.9275362,,,,,,,,,,,,,,,,,,,,,,,252.5357,253.5978,a,1,0.403,,0.403,1,253.5978,254.0977,,,,,,143,MAS,WORD,AGR,150,pavo,,el,,,254.0984,254.0987,0.221296353,-0.052777778,0,0,0,,0,40,40,142,1,pezo,,,,
,,,,,,5bf01b3e2a9d2c00013ddc2a,676192165fb32c2e1fb7aee6,67d1942156cd6e1dbd59ca6a,2025-03-12_15h03.49.050,Tarea de decisión léxica,2024.2.5,Win32,144.9275362,,,,,,,,,,,,,,,,,,,,,,,254.099,255.0706,a,1,0.3193,,0.3193,1,255.0707,255.5702,,,,,,415,FEM,WORD,AGR,150,jaula,,la,,,255.5703,255.5703,0.221296353,-0.052777778,0,0,0,,0,41,41,414,1,juira,,,,
,,,,,,5bf01b3e2a9d2c00013ddc2a,676192165fb32c2e1fb7aee6,67d1942156cd6e1dbd59ca6a,2025-03-12_15h03.49.050,Tarea de decisión léxica,2024.2.5,Win32,144.9275362,,,,,,,,,,,,,,,,,,,,,,,255.5709,256.5009,a,1,0.2776,,0.2776,1,256.501,257.0008,,,,,,467,MAS,WORD,DIS,150,piano,,la,,,257.0008,257.0008,0.221296353,-0.052777778,0,0,0,,0,42,42,466,1,peiso,,,,
,,,,,,5bf01b3e2a9d2c00013ddc2a,676192165fb32c2e1fb7aee6,67d1942156cd6e1dbd59ca6a,2025-03-12_15h03.49.050,Tarea de decisión léxica,2024.2.5,Win32,144.9275362,,,,,,,,,,,,,,,,,,,,,,,257.0013,258.0496,a,1,0.3954,,0.3954,1,258.0497,258.5496,,,,,,353,FEM,WORD,DIS,150,celda,,el,,,258.5496,258.5496,0.221296353,-0.052777778,0,0,0,,0,43,43,352,1,cezca,,,,
,,,,,,5bf01b3e2a9d2c00013ddc2a,676192165fb32c2e1fb7aee6,67d1942156cd6e1dbd59ca6a,2025-03-12_15h03.49.050,Tarea de decisión léxica,2024.2.5,Win32,144.9275362,,,,,,,,,,,,,,,,,,,,,,,258.5502,259.7449,l,1,0.5415,,0.5415,1,259.7449,260.2439,,,,,,422,MAS,NOWORD,AGR,150,griso,,el,,,260.2439,260.244,0.221296353,-0.052777778,0,0,0,,0,44,44,421,1,primo,,,,
,,,,,,5bf01b3e2a9d2c00013ddc2a,676192165fb32c2e1fb7aee6,67d1942156cd6e1dbd59ca6a,2025-03-12_15h03.49.050,Tarea de decisión léxica,2024.2.5,Win32,144.9275362,,,,,,,,,,,,,,,,,,,,,,,260.2445,261.3561,l,1,0.4585,,0.4585,1,261.3561,261.8556,,,,,,258,FEM,NOWORD,AGR,150,asama,,la,,,261.856,261.8564,0.221296353,-0.052777778,0,0,0,,0,45,45,257,1,amiga,,,,
,,,,,,5bf01b3e2a9d2c00013ddc2a,676192165fb32c2e1fb7aee6,67d1942156cd6e1dbd59ca6a,2025-03-12_15h03.49.050,Tarea de decisión léxica,2024.2.5,Win32,144.9275362,,,,,,,,,,,,,,,,,,,,,,,261.8567,263.0155,a,1,0.5065,,0.5065,1,263.0155,263.5155,,,,,,225,MAS,WORD,AGR,150,lodo,,el,,,263.5155,263.5155,0.221296353,-0.052777778,0,0,0,,0,46,46,224,1,boco,,,,
,,,,,,5bf01b3e2a9d2c00013ddc2a,676192165fb32c2e1fb7aee6,67d1942156cd6e1dbd59ca6a,2025-03-12_15h03.49.050,Tarea de decisión léxica,2024.2.5,Win32,144.9275362,,,,,,,,,,,,,,,,,,,,,,,263.516,264.4947,a,1,0.3196,,0.3196,1,264.4948,264.9946,,,,,,169,MAS,WORD,AGR,150,cubo,,el,,,264.9946,264.9947,0.221296353,-0.052777778,0,0,0,,0,47,47,168,1,mibo,,,,
,,,,,,5bf01b3e2a9d2c00013ddc2a,676192165fb32c2e1fb7aee6,67d1942156cd6e1dbd59ca6a,2025-03-12_15h03.49.050,Tarea de decisión léxica,2024.2.5,Win32,144.9275362,,,,,,,,,,,,,,,,,,,,,,,264.9952,266.1549,a,0,0.5004,,0.5004,0,266.1553,266.6543,,,,,,196,FEM,NOWORD,DIS,150,sira,,el,,,266.6543,266.6544,0.221296353,-0.052777778,0,0,0,,0,48,48,195,1,tela,,,,
,,,,,,5bf01b3e2a9d2c00013ddc2a,676192165fb32c2e1fb7aee6,67d1942156cd6e1dbd59ca6a,2025-03-12_15h03.49.050,Tarea de decisión léxica,2024.2.5,Win32,144.9275362,,,,,,,,,,,,,,,,,,,,,,,266.6548,267.8077,a,1,0.4997,,0.4997,1,267.8081,268.3074,,,,,,257,FEM,WORD,AGR,150,amiga,,la,,,268.3075,268.3075,0.221296353,-0.052777778,0,0,0,,0,49,49,256,1,asama,,,,
,,,,,,5bf01b3e2a9d2c00013ddc2a,676192165fb32c2e1fb7aee6,67d1942156cd6e1dbd59ca6a,2025-03-12_15h03.49.050,Tarea de decisión léxica,2024.2.5,Win32,144.9275362,,,,,,,,,,,,,,,,,,,,,,,268.3079,269.4884,l,1,0.521,,0.521,1,269.4884,269.989,,,,,,284,MAS,NOWORD,DIS,150,tuevo,,la,,,269.9895,269.9898,0.221296353,-0.052777778,0,0,0,,0,50,50,283,1,sueño,,,,
,,,,,,5bf01b3e2a9d2c00013ddc2a,676192165fb32c2e1fb7aee6,67d1942156cd6e1dbd59ca6a,2025-03-12_15h03.49.050,Tarea de decisión léxica,2024.2.5,Win32,144.9275362,,,,,,,,,,,,,,,,,,,,,,,269.9901,271.2041,l,1,0.5562,,0.5562,1,271.2041,271.7036,,,,,,224,FEM,NOWORD,DIS,150,cira,,el,,,271.7036,271.7037,0.221296353,-0.052777778,0,0,0,,0,51,51,223,1,cera,,,,
,,,,,,5bf01b3e2a9d2c00013ddc2a,676192165fb32c2e1fb7aee6,67d1942156cd6e1dbd59ca6a,2025-03-12_15h03.49.050,Tarea de decisión léxica,2024.2.5,Win32,144.9275362,,,,,,,,,,,,,,,,,,,,,,,271.7041,272.7108,l,1,0.3473,,0.3473,1,272.7109,273.2108,,,,,,60,FEM,NOWORD,DIS,150,tafa,,el,,,273.2109,273.2109,0.221296353,-0.052777778,0,0,0,,0,52,52,59,1,sala,,,,
,,,,,,5bf01b3e2a9d2c00013ddc2a,676192165fb32c2e1fb7aee6,67d1942156cd6e1dbd59ca6a,2025-03-12_15h03.49.050,Tarea de decisión léxica,2024.2.5,Win32,144.9275362,,,,,,,,,,,,,,,,,,,,,,,273.2113,274.2249,l,1,0.3606,,0.3606,1,274.225,274.7248,,,,,,292,FEM,NOWORD,DIS,150,mesta,,el,,,274.7248,274.7248,0.221296353,-0.052777778,0,0,0,,0,53,53,291,1,pista,,,,
,,,,,,5bf01b3e2a9d2c00013ddc2a,676192165fb32c2e1fb7aee6,67d1942156cd6e1dbd59ca6a,2025-03-12_15h03.49.050,Tarea de decisión léxica,2024.2.5,Win32,144.9275362,,,,,,,,,,,,,,,,,,,,,,,274.7256,275.8849,a,1,0.5071,,0.5071,1,275.8849,276.3847,,,,,,121,MAS,WORD,DIS,150,hoyo,,la,,,276.3848,276.3848,0.221296353,-0.052777778,0,0,0,,0,54,54,120,1,bomo,,,,
,,,,,,5bf01b3e2a9d2c00013ddc2a,676192165fb32c2e1fb7aee6,67d1942156cd6e1dbd59ca6a,2025-03-12_15h03.49.050,Tarea de decisión léxica,2024.2.5,Win32,144.9275362,,,,,,,,,,,,,,,,,,,,,,,276.3851,277.4892,a,1,0.4446,,0.4446,1,277.4892,277.9891,,,,,,177,MAS,WORD,AGR,150,reto,,el,,,277.9897,277.9899,0.221296353,-0.052777778,0,0,0,,0,55,55,176,1,bito,,,,
,,,,,,5bf01b3e2a9d2c00013ddc2a,676192165fb32c2e1fb7aee6,67d1942156cd6e1dbd59ca6a,2025-03-12_15h03.49.050,Tarea de decisión léxica,2024.2.5,Win32,144.9275362,,,,,,,,,,,,,,,,,,,,,,,277.9902,279.0655,l,1,0.4129,,0.4129,1,279.0655,279.5658,,,,,,266,FEM,NOWORD,AGR,150,pitat,,la,,,279.5658,279.5658,0.221296353,-0.052777778,0,0,0,,0,56,56,265,1,mitad,,,,
,,,,,,5bf01b3e2a9d2c00013ddc2a,676192165fb32c2e1fb7aee6,67d1942156cd6e1dbd59ca6a,2025-03-12_15h03.49.050,Tarea de decisión léxica,2024.2.5,Win32,144.9275362,,,,,,,,,,,,,,,,,,,,,,,279.5664,280.5871,a,1,0.3614,,0.3614,1,280.5871,281.0864,,,,,,153,MAS,WORD,AGR,150,pato,,el,,,281.0864,281.0865,0.221296353,-0.052777778,0,0,0,,0,57,57,152,1,tado,,,,
,,,,,,5bf01b3e2a9d2c00013ddc2a,676192165fb32c2e1fb7aee6,67d1942156cd6e1dbd59ca6a,2025-03-12_15h03.49.050,Tarea de decisión léxica,2024.2.5,Win32,144.9275362,,,,,,,,,,,,,,,,,,,,,,,281.0869,282.0723,a,1,0.3241,,0.3241,1,282.0724,282.573,,,,,,199,MAS,WORD,AGR,150,lazo,,el,,,282.573,282.573,0.221296353,-0.052777778,0,0,0,,0,58,58,198,1,fano,,,,
,,,,,,5bf01b3e2a9d2c00013ddc2a,676192165fb32c2e1fb7aee6,67d1942156cd6e1dbd59ca6a,2025-03-12_15h03.49.050,Tarea de decisión léxica,2024.2.5,Win32,144.9275362,,,,,,,,,,,,,,,,,,,,,,,282.5735,283.7187,l,1,0.4812,,0.4812,1,283.7187,284.2185,,,,,,42,FEM,NOWORD,AGR,150,haje,,la,,,284.2189,284.2191,0.221296353,-0.052777778,0,0,0,,0,59,59,41,1,nave,,,,
,,,,,,5bf01b3e2a9d2c00013ddc2a,676192165fb32c2e1fb7aee6,67d1942156cd6e1dbd59ca6a,2025-03-12_15h03.49.050,Tarea de decisión léxica,2024.2.5,Win32,144.9275362,,,,,,,,,,,,,,,,,,,,,,,284.2195,285.3091,a,1,0.4334,,0.4334,1,285.3091,285.8092,,,,,,155,FEM,WORD,AGR,150,fuga,,la,,,285.8093,285.8093,0.221296353,-0.052777778,0,0,0,,0,60,60,154,1,luma,,,,
,,,,,,5bf01b3e2a9d2c00013ddc2a,676192165fb32c2e1fb7aee6,67d1942156cd6e1dbd59ca6a,2025-03-12_15h03.49.050,Tarea de decisión léxica,2024.2.5,Win32,144.9275362,,,,,,,,,,,,,,,,,,,,,,,285.8098,286.8235,l,1,0.3546,,0.3546,1,286.8235,287.323,,,,,,48,MAS,NOWORD,DIS,150,chub,,la,,,287.323,287.323,0.221296353,-0.052777778,0,0,0,,0,61,61,47,1,club,,,,
,,,,,,5bf01b3e2a9d2c00013ddc2a,676192165fb32c2e1fb7aee6,67d1942156cd6e1dbd59ca6a,2025-03-12_15h03.49.050,Tarea de decisión léxica,2024.2.5,Win32,144.9275362,,,,,,,,,,,,,,,,,,,,,,,287.3236,288.3311,l,1,0.3428,,0.3428,1,288.3312,288.8307,,,,,,410,MAS,NOWORD,AGR,150,pafro,,el,,,288.8307,288.8308,0.221296353,-0.052777778,0,0,0,,0,62,62,409,1,carro,,,,
,,,,,,5bf01b3e2a9d2c00013ddc2a,676192165fb32c2e1fb7aee6,67d1942156cd6e1dbd59ca6a,2025-03-12_15h03.49.050,Tarea de decisión léxica,2024.2.5,Win32,144.9275362,,,,,,,,,,,,,,,,,,,,,,,288.8314,289.8581,a,1,0.3686,,0.3686,1,289.8582,290.3583,,,,,,45,FEM,WORD,DIS,150,mesa,,el,,,290.3583,290.3583,0.221296353,-0.052777778,0,0,0,,0,63,63,44,1,pema,,,,
,,,,,,5bf01b3e2a9d2c00013ddc2a,676192165fb32c2e1fb7aee6,67d1942156cd6e1dbd59ca6a,2025-03-12_15h03.49.050,Tarea de decisión léxica,2024.2.5,Win32,144.9275362,,,,,,,,,,,,,,,,,,,,,,,290.3589,291.3727,a,1,0.3606,,0.3606,1,291.3727,291.8728,,,,,,161,MAS,WORD,DIS,150,coro,,la,,,291.8732,291.8736,0.221296353,-0.052777778,0,0,0,,0,64,64,160,1,bopo,,,,
,,,,,,5bf01b3e2a9d2c00013ddc2a,676192165fb32c2e1fb7aee6,67d1942156cd6e1dbd59ca6a,2025-03-12_15h03.49.050,Tarea de decisión léxica,2024.2.5,Win32,144.9275362,,,,,,,,,,,,,,,,,,,,,,,291.8738,292.845,a,1,0.3194,,0.3194,1,292.8451,293.3449,,,,,,455,MAS,WORD,AGR,150,reino,,el,,,293.3449,293.345,0.221296353,-0.052777778,0,0,0,,0,65,65,454,1,riaso,,,,
,,,,,,5bf01b3e2a9d2c00013ddc2a,676192165fb32c2e1fb7aee6,67d1942156cd6e1dbd59ca6a,2025-03-12_15h03.49.050,Tarea de decisión léxica,2024.2.5,Win32,144.9275362,,,,,,,,,,,,,,,,,,,,,,,293.3454,294.2617,a,1,0.2637,,0.2637,1,294.2618,294.7614,,,,,,377,MAS,WORD,AGR,150,hielo,,el,,,294.7614,294.7614,0.221296353,-0.052777778,0,0,0,,0,66,66,376,1,gaulo,,,,
,,,,,,5bf01b3e2a9d2c00013ddc2a,676192165fb32c2e1fb7aee6,67d1942156cd6e1dbd59ca6a,2025-03-12_15h03.49.050,Tarea de decisión léxica,2024.2.5,Win32,144.9275362,,,,,,,,,,,,,,,,,,,,,,,294.7619,295.7404,a,1,0.3163,,0.3163,1,295.7405,296.2409,,,,,,361,FEM,WORD,AGR,150,torre,,la,,,296.241,296.241,0.221296353,-0.052777778,0,0,0,,0,67,67,360,1,solle,,,,
,,,,,,5bf01b3e2a9d2c00013ddc2a,676192165fb32c2e1fb7aee6,67d1942156cd6e1dbd59ca6a,2025-03-12_15h03.49.050,Tarea de decisión léxica,2024.2.5,Win32,144.9275362,,,,,,,,,,,,,,,,,,,,,,,296.2416,297.4491,l,1,0.5528,,0.5528,1,297.4491,297.9492,,,,,,144,MAS,NOWORD,DIS,150,pezo,,la,,,297.9492,297.9493,0.221296353,-0.052777778,0,0,0,,0,68,68,143,1,pavo,,,,
,,,,,,5bf01b3e2a9d2c00013ddc2a,676192165fb32c2e1fb7aee6,67d1942156cd6e1dbd59ca6a,2025-03-12_15h03.49.050,Tarea de decisión léxica,2024.2.5,Win32,144.9275362,,,,,,,,,,,,,,,,,,,,,,,297.9497,299.158,l,1,0.5556,,0.5556,1,299.158,299.6584,,,,,,248,FEM,NOWORD,DIS,150,trida,,el,,,299.6588,299.6591,0.221296353,-0.052777778,0,0,0,,0,69,69,247,1,chica,,,,
,,,,,,5bf01b3e2a9d2c00013ddc2a,676192165fb32c2e1fb7aee6,67d1942156cd6e1dbd59ca6a,2025-03-12_15h03.49.050,Tarea de decisión léxica,2024.2.5,Win32,144.9275362,,,,,,,,,,,,,,,,,,,,,,,299.6594,300.7137,a,1,0.3959,,0.3959,1,300.7138,301.2134,,,,,,389,MAS,WORD,DIS,150,cerdo,,la,,,301.2135,301.2135,0.221296353,-0.052777778,0,0,0,,0,70,70,388,1,cenco,,,,
,,,,,,5bf01b3e2a9d2c00013ddc2a,676192165fb32c2e1fb7aee6,67d1942156cd6e1dbd59ca6a,2025-03-12_15h03.49.050,Tarea de decisión léxica,2024.2.5,Win32,144.9275362,,,,,,,,,,,,,,,,,,,,,,,301.214,302.1722,a,1,0.2988,,0.2988,1,302.1724,302.6717,,,,,,457,MAS,WORD,DIS,150,plato,,la,,,302.6718,302.6718,0.221296353,-0.052777778,0,0,0,,0,71,71,456,1,glaco,,,,
,,,,,,5bf01b3e2a9d2c00013ddc2a,676192165fb32c2e1fb7aee6,67d1942156cd6e1dbd59ca6a,2025-03-12_15h03.49.050,Tarea de decisión léxica,2024.2.5,Win32,144.9275362,,,,,,,,,,,,,,,,,,,,,,,302.6723,303.5956,a,1,0.2684,,0.2684,1,303.5958,304.0957,,,,,,327,MAS,WORD,DIS,150,fondo,,la,,,304.0957,304.0958,0.221296353,-0.052777778,0,0,0,,0,72,72,326,1,lendo,,,,
,,,,,,5bf01b3e2a9d2c00013ddc2a,676192165fb32c2e1fb7aee6,67d1942156cd6e1dbd59ca6a,2025-03-12_15h03.49.050,Tarea de decisión léxica,2024.2.5,Win32,144.9275362,,,,,,,,,,,,,,,,,,,,,,,304.0961,305.1587,l,1,0.403,,0.403,1,305.1588,305.6584,,,,,,424,MAS,NOWORD,DIS,150,quigo,,la,,,305.6585,305.6585,0.221296353,-0.052777778,0,0,0,,0,73,73,423,1,queso,,,,
,,,,,,5bf01b3e2a9d2c00013ddc2a,676192165fb32c2e1fb7aee6,67d1942156cd6e1dbd59ca6a,2025-03-12_15h03.49.050,Tarea de decisión léxica,2024.2.5,Win32,144.9275362,,,,,,,,,,,,,,,,,,,,,,,305.659,306.7352,a,1,0.4169,,0.4169,1,306.7352,307.235,,,,,,41,FEM,WORD,DIS,150,nave,,el,,,307.2354,307.2357,0.221296353,-0.052777778,0,0,0,,0,74,74,40,1,haje,,,,
,,,,,,5bf01b3e2a9d2c00013ddc2a,676192165fb32c2e1fb7aee6,67d1942156cd6e1dbd59ca6a,2025-03-12_15h03.49.050,Tarea de decisión léxica,2024.2.5,Win32,144.9275362,,,,,,,,,,,,,,,,,,,,,,,307.236,308.1802,a,1,0.2916,,0.2916,1,308.1802,308.6798,,,,,,333,FEM,WORD,AGR,150,tarea,,la,,,308.6798,308.6799,0.221296353,-0.052777778,0,0,0,,0,75,75,332,1,dalea,,,,
,,,,,,5bf01b3e2a9d2c00013ddc2a,676192165fb32c2e1fb7aee6,67d1942156cd6e1dbd59ca6a,2025-03-12_15h03.49.050,Tarea de decisión léxica,2024.2.5,Win32,144.9275362,,,,,,,,,,,,,,,,,,,,,,,308.6806,309.604,a,1,0.2707,,0.2707,1,309.604,310.1034,,,,,,17,FEM,WORD,AGR,150,mamá,,la,,,310.1034,310.1034,0.221296353,-0.052777778,0,0,0,,0,76,76,16,1,paba,,,,
,,,,,,5bf01b3e2a9d2c00013ddc2a,676192165fb32c2e1fb7aee6,67d1942156cd6e1dbd59ca6a,2025-03-12_15h03.49.050,Tarea de decisión léxica,2024.2.5,Win32,144.9275362,,,,,,,,,,,,,,,,,,,,,,,310.1038,311.2144,l,1,0.455,,0.455,1,311.2145,311.7147,,,,,,138,MAS,NOWORD,AGR,150,pamo,,el,,,311.7147,311.7148,0.221296353,-0.052777778,0,0,0,,0,77,77,137,1,nene,,,,
,,,,,,5bf01b3e2a9d2c00013ddc2a,676192165fb32c2e1fb7aee6,67d1942156cd6e1dbd59ca6a,2025-03-12_15h03.49.050,Tarea de decisión léxica,2024.2.5,Win32,144.9275362,,,,,,,,,,,,,,,,,,,,,,,311.7153,312.819,l,0,0.4487,,0.4487,0,312.8194,313.3189,,,,,,459,MAS,WORD,AGR,150,grado,,el,,,313.3189,313.319,0.221296353,-0.052777778,0,0,0,,0,78,78,458,1,fraco,,,,
,,,,,,5bf01b3e2a9d2c00013ddc2a,676192165fb32c2e1fb7aee6,67d1942156cd6e1dbd59ca6a,2025-03-12_15h03.49.050,Tarea de decisión léxica,2024.2.5,Win32,144.9275362,,,,,,,,,,,,,,,,,,,,,,,313.3195,314.3753,a,1,0.4024,,0.4024,1,314.3756,314.8749,,,,,,87,MAS,WORD,DIS,150,vaso,,la,,,314.8753,314.8756,0.221296353,-0.052777778,0,0,0,,0,79,79,86,1,damo,,,,
,,,,,,5bf01b3e2a9d2c00013ddc2a,676192165fb32c2e1fb7aee6,67d1942156cd6e1dbd59ca6a,2025-03-12_15h03.49.050,Tarea de decisión léxica,2024.2.5,Win32,144.9275362,,,,,,,,,,,,,,,,,,,,,,,314.8759,316.1179,l,1,0.5868,,0.5868,1,316.1181,316.6179,,,,,,328,MAS,NOWORD,DIS,150,lendo,,la,,,316.6179,316.618,0.221296353,-0.052777778,0,0,0,,0,80,80,327,1,fondo,,,,
,,,,,,5bf01b3e2a9d2c00013ddc2a,676192165fb32c2e1fb7aee6,67d1942156cd6e1dbd59ca6a,2025-03-12_15h03.49.050,Tarea de decisión léxica,2024.2.5,Win32,144.9275362,,,,,,,,,,,,,,,,,,,,,,,316.6184,317.6665,a,1,0.3942,,0.3942,1,317.6665,318.1669,,,,,,275,MAS,WORD,AGR,150,punto,,el,,,318.1669,318.1669,0.221296353,-0.052777778,0,0,0,,0,81,81,274,1,musto,,,,
,,,,,,5bf01b3e2a9d2c00013ddc2a,676192165fb32c2e1fb7aee6,67d1942156cd6e1dbd59ca6a,2025-03-12_15h03.49.050,Tarea de decisión léxica,2024.2.5,Win32,144.9275362,,,,,,,,,,,,,,,,,,,,,,,318.1674,319.174,a,1,0.3479,,0.3479,1,319.174,319.6738,,,,,,67,FEM,WORD,AGR,150,nena,,la,,,319.6738,319.6738,0.221296353,-0.052777778,0,0,0,,0,82,82,66,1,gesa,,,,
,,,,,,5bf01b3e2a9d2c00013ddc2a,676192165fb32c2e1fb7aee6,67d1942156cd6e1dbd59ca6a,2025-03-12_15h03.49.050,Tarea de decisión léxica,2024.2.5,Win32,144.9275362,,,,,,,,,,,,,,,,,,,,,,,319.6743,320.6258,a,1,0.2985,,0.2985,1,320.6259,321.1252,,,,,,445,MAS,WORD,AGR,150,actor,,el,,,321.1257,321.1261,0.221296353,-0.052777778,0,0,0,,0,83,83,444,1,ascor,,,,
,,,,,,5bf01b3e2a9d2c00013ddc2a,676192165fb32c2e1fb7aee6,67d1942156cd6e1dbd59ca6a,2025-03-12_15h03.49.050,Tarea de decisión léxica,2024.2.5,Win32,144.9275362,,,,,,,,,,,,,,,,,,,,,,,321.1263,322.0281,a,1,0.2472,,0.2472,1,322.0282,322.5282,,,,,,37,MAS,WORD,DIS,150,rato,,la,,,322.5282,322.5282,0.221296353,-0.052777778,0,0,0,,0,84,84,36,1,gaco,,,,
,,,,,,5bf01b3e2a9d2c00013ddc2a,676192165fb32c2e1fb7aee6,67d1942156cd6e1dbd59ca6a,2025-03-12_15h03.49.050,Tarea de decisión léxica,2024.2.5,Win32,144.9275362,,,,,,,,,,,,,,,,,,,,,,,322.5287,323.5842,l,1,0.3972,,0.3972,1,323.5843,324.0839,,,,,,260,MAS,NOWORD,DIS,150,jaumo,,la,,,324.0839,324.0839,0.221296353,-0.052777778,0,0,0,,0,85,85,259,1,juego,,,,
,,,,,,5bf01b3e2a9d2c00013ddc2a,676192165fb32c2e1fb7aee6,67d1942156cd6e1dbd59ca6a,2025-03-12_15h03.49.050,Tarea de decisión léxica,2024.2.5,Win32,144.9275362,,,,,,,,,,,,,,,,,,,,,,,324.0844,325.1466,a,1,0.4044,,0.4044,1,325.1466,325.6466,,,,,,131,FEM,WORD,AGR,150,mina,,la,,,325.6466,325.6466,0.221296353,-0.052777778,0,0,0,,0,86,86,130,1,fada,,,,
,,,,,,5bf01b3e2a9d2c00013ddc2a,676192165fb32c2e1fb7aee6,67d1942156cd6e1dbd59ca6a,2025-03-12_15h03.49.050,Tarea de decisión léxica,2024.2.5,Win32,144.9275362,,,,,,,,,,,,,,,,,,,,,,,325.6471,326.744,l,1,0.441,,0.441,1,326.744,327.2437,,,,,,70,FEM,NOWORD,AGR,150,ñola,,la,,,327.2437,327.2437,0.221296353,-0.052777778,0,0,0,,0,87,87,69,1,zona,,,,
,,,,,,5bf01b3e2a9d2c00013ddc2a,676192165fb32c2e1fb7aee6,67d1942156cd6e1dbd59ca6a,2025-03-12_15h03.49.050,Tarea de decisión léxica,2024.2.5,Win32,144.9275362,,,,,,,,,,,,,,,,,,,,,,,327.2442,328.2579,l,1,0.3596,,0.3596,1,328.258,328.758,,,,,,162,MAS,NOWORD,AGR,150,bopo,,el,,,328.7585,328.7588,0.221296353,-0.052777778,0,0,0,,0,88,88,161,1,coro,,,,
,,,,,,5bf01b3e2a9d2c00013ddc2a,676192165fb32c2e1fb7aee6,67d1942156cd6e1dbd59ca6a,2025-03-12_15h03.49.050,Tarea de decisión léxica,2024.2.5,Win32,144.9275362,,,,,,,,,,,,,,,,,,,,,,,328.759,329.7652,l,1,0.3505,,0.3505,1,329.7652,330.2651,,,,,,448,MAS,NOWORD,DIS,150,buaso,,la,,,330.2652,330.2652,0.221296353,-0.052777778,0,0,0,,0,89,89,447,1,bolso,,,,
,,,,,,5bf01b3e2a9d2c00013ddc2a,676192165fb32c2e1fb7aee6,67d1942156cd6e1dbd59ca6a,2025-03-12_15h03.49.050,Tarea de decisión léxica,2024.2.5,Win32,144.9275362,,,,,,,,,,,,,,,,,,,,,,,330.2657,331.3071,a,1,0.3826,,0.3826,1,331.3071,331.8072,,,,,,383,FEM,WORD,AGR,150,frase,,la,,,331.8072,331.8072,0.221296353,-0.052777778,0,0,0,,0,90,90,382,1,brame,,,,
,,,,,,5bf01b3e2a9d2c00013ddc2a,676192165fb32c2e1fb7aee6,67d1942156cd6e1dbd59ca6a,2025-03-12_15h03.49.050,Tarea de decisión léxica,2024.2.5,Win32,144.9275362,,,,,,,,,,,,,,,,,,,,,,,331.8076,332.884,l,1,0.4237,,0.4237,1,332.8841,333.3835,,,,,,66,MAS,NOWORD,AGR,150,nios,,el,,,333.3835,333.3837,0.221296353,-0.052777778,0,0,0,,0,91,91,65,1,dios,,,,
,,,,,,5bf01b3e2a9d2c00013ddc2a,676192165fb32c2e1fb7aee6,67d1942156cd6e1dbd59ca6a,2025-03-12_15h03.49.050,Tarea de decisión léxica,2024.2.5,Win32,144.9275362,,,,,,,,,,,,,,,,,,,,,,,333.3841,334.4051,l,1,0.3683,,0.3683,1,334.4051,334.9044,,,,,,130,MAS,NOWORD,AGR,150,pima,,el,,,334.9044,334.9045,0.221296353,-0.052777778,0,0,0,,0,92,92,129,1,oído,,,,
,,,,,,5bf01b3e2a9d2c00013ddc2a,676192165fb32c2e1fb7aee6,67d1942156cd6e1dbd59ca6a,2025-03-12_15h03.49.050,Tarea de decisión léxica,2024.2.5,Win32,144.9275362,,,,,,,,,,,,,,,,,,,,,,,334.905,336.0157,l,1,0.4551,,0.4551,1,336.0157,336.5158,,,,,,348,FEM,NOWORD,DIS,150,mueza,,el,,,336.5162,336.5165,0.221296353,-0.052777778,0,0,0,,0,93,93,347,1,pieza,,,,
,,,,,,5bf01b3e2a9d2c00013ddc2a,676192165fb32c2e1fb7aee6,67d1942156cd6e1dbd59ca6a,2025-03-12_15h03.49.050,Tarea de decisión léxica,2024.2.5,Win32,144.9275362,,,,,,,,,,,,,,,,,,,,,,,336.5168,337.6132,a,1,0.4389,,0.4389,1,337.6133,338.1131,,,,,,451,FEM,WORD,DIS,150,fruta,,el,,,338.1132,338.1132,0.221296353,-0.052777778,0,0,0,,0,94,94,450,1,clita,,,,
,,,,,,5bf01b3e2a9d2c00013ddc2a,676192165fb32c2e1fb7aee6,67d1942156cd6e1dbd59ca6a,2025-03-12_15h03.49.050,Tarea de decisión léxica,2024.2.5,Win32,144.9275362,,,,,,,,,,,,,,,,,,,,,,,338.1137,339.1277,a,1,0.3611,,0.3611,1,339.1277,339.6269,,,,,,435,MAS,WORD,AGR,150,ritmo,,el,,,339.627,339.627,0.221296353,-0.052777778,0,0,0,,0,95,95,434,1,ricno,,,,
,,,,,,5bf01b3e2a9d2c00013ddc2a,676192165fb32c2e1fb7aee6,67d1942156cd6e1dbd59ca6a,2025-03-12_15h03.49.050,Tarea de decisión léxica,2024.2.5,Win32,144.9275362,,,,,,,,,,,,,,,,,,,,,,,339.6274,340.6691,l,1,0.385,,0.385,1,340.6691,341.1692,,,,,,330,MAS,NOWORD,AGR,150,nueno,,el,,,341.1692,341.1693,0.221296353,-0.052777778,0,0,0,,0,96,96,329,1,hueso,,,,
,,,,,,5bf01b3e2a9d2c00013ddc2a,676192165fb32c2e1fb7aee6,67d1942156cd6e1dbd59ca6a,2025-03-12_15h03.49.050,Tarea de decisión léxica,2024.2.5,Win32,144.9275362,,,,,,,,,,,,,,,,,,,,,,,341.1697,342.2315,a,1,0.4075,,0.4075,1,342.2315,342.7316,,,,,,229,MAS,WORD,AGR,150,amor,,el,,,342.7316,342.7316,0.221296353,-0.052777778,0,0,0,,0,97,97,228,1,ador,,,,
,,,,,,5bf01b3e2a9d2c00013ddc2a,676192165fb32c2e1fb7aee6,67d1942156cd6e1dbd59ca6a,2025-03-12_15h03.49.050,Tarea de decisión léxica,2024.2.5,Win32,144.9275362,,,,,,,,,,,,,,,,,,,,,,,342.732,343.8567,l,1,0.4699,,0.4699,1,343.8567,344.3566,,,,,,366,FEM,NOWORD,AGR,150,gulla,,la,,,344.357,344.3574,0.221296353,-0.052777778,0,0,0,,0,98,98,365,1,ducha,,,,
,,,,,,5bf01b3e2a9d2c00013ddc2a,676192165fb32c2e1fb7aee6,67d1942156cd6e1dbd59ca6a,2025-03-12_15h03.49.050,Tarea de decisión léxica,2024.2.5,Win32,144.9275362,,,,,,,,,,,,,,,,,,,,,,,344.3576,345.475,l,1,0.4604,,0.4604,1,345.475,345.9753,,,,,,154,MAS,NOWORD,AGR,150,tado,,el,,,345.9753,345.9754,0.221296353,-0.052777778,0,0,0,,0,99,99,153,1,pato,,,,
,,,,,,5bf01b3e2a9d2c00013ddc2a,676192165fb32c2e1fb7aee6,67d1942156cd6e1dbd59ca6a,2025-03-12_15h03.49.050,Tarea de decisión léxica,2024.2.5,Win32,144.9275362,,,,,,,,,,,,,,,,,,,,,,,345.9758,346.9961,l,1,0.3644,,0.3644,1,346.9961,347.4959,,,,,,468,MAS,NOWORD,DIS,150,peiso,,la,,,347.496,347.496,0.221296353,-0.052777778,0,0,0,,0,100,100,467,1,piano,,,,
,,,,,,5bf01b3e2a9d2c00013ddc2a,676192165fb32c2e1fb7aee6,67d1942156cd6e1dbd59ca6a,2025-03-12_15h03.49.050,Tarea de decisión léxica,2024.2.5,Win32,144.9275362,,,,,,,,,,,,,,,,,,,,,,,347.4964,348.6073,a,1,0.4566,,0.4566,1,348.6074,349.1073,,,,,,193,FEM,WORD,DIS,150,loca,,el,,,349.1073,349.1074,0.221296353,-0.052777778,0,0,0,,0,101,101,192,1,foda,,,,
,,,,,,5bf01b3e2a9d2c00013ddc2a,676192165fb32c2e1fb7aee6,67d1942156cd6e1dbd59ca6a,2025-03-12_15h03.49.050,Tarea de decisión léxica,2024.2.5,Win32,144.9275362,,,,,,,,,,,,,,,,,,,,,,,349.108,350.1352,a,1,0.3719,,0.3719,1,350.1353,350.6354,,,,,,185,MAS,WORD,AGR,150,baúl,,el,,,350.6355,350.6355,0.221296353,-0.052777778,0,0,0,,0,102,102,184,1,raol,,,,
,,,,,,5bf01b3e2a9d2c00013ddc2a,676192165fb32c2e1fb7aee6,67d1942156cd6e1dbd59ca6a,2025-03-12_15h03.49.050,Tarea de decisión léxica,2024.2.5,Win32,144.9275362,,,,,,,,,,,,,,,,,,,,,,,350.6359,351.6979,l,1,0.4039,,0.4039,1,351.6979,352.1976,,,,,,156,FEM,NOWORD,DIS,150,luma,,el,,,352.1981,352.1984,0.221296353,-0.052777778,0,0,0,,0,103,103,155,1,fuga,,,,
,,,,,,5bf01b3e2a9d2c00013ddc2a,676192165fb32c2e1fb7aee6,67d1942156cd6e1dbd59ca6a,2025-03-12_15h03.49.050,Tarea de decisión léxica,2024.2.5,Win32,144.9275362,,,,,,,,,,,,,,,,,,,,,,,352.1987,353.2743,a,1,0.4206,,0.4206,1,353.2745,353.7744,,,,,,479,MAS,WORD,AGR,150,rumbo,,el,,,353.7744,353.7745,0.221296353,-0.052777778,0,0,0,,0,104,104,478,1,rimpo,,,,
,,,,,,5bf01b3e2a9d2c00013ddc2a,676192165fb32c2e1fb7aee6,67d1942156cd6e1dbd59ca6a,2025-03-12_15h03.49.050,Tarea de decisión léxica,2024.2.5,Win32,144.9275362,,,,,,,,,,,,,,,,,,,,,,,353.7748,354.8164,l,1,0.3869,,0.3869,1,354.8164,355.3163,,,,,,30,MAS,NOWORD,AGR,150,pono,,el,,,355.3163,355.3164,0.221296353,-0.052777778,0,0,0,,0,105,105,29,1,modo,,,,
,,,,,,5bf01b3e2a9d2c00013ddc2a,676192165fb32c2e1fb7aee6,67d1942156cd6e1dbd59ca6a,2025-03-12_15h03.49.050,Tarea de decisión léxica,2024.2.5,Win32,144.9275362,,,,,,,,,,,,,,,,,,,,,,,355.3167,356.4206,l,1,0.4481,,0.4481,1,356.4206,356.9205,,,,,,412,MAS,NOWORD,DIS,150,mobro,,la,,,356.9205,356.9206,0.221296353,-0.052777778,0,0,0,,0,106,106,411,1,pollo,,,,
,,,,,,5bf01b3e2a9d2c00013ddc2a,676192165fb32c2e1fb7aee6,67d1942156cd6e1dbd59ca6a,2025-03-12_15h03.49.050,Tarea de decisión léxica,2024.2.5,Win32,144.9275362,,,,,,,,,,,,,,,,,,,,,,,356.921,358.0249,a,1,0.4488,,0.4488,1,358.0249,358.5249,,,,,,287,FEM,WORD,AGR,150,lista,,la,,,358.5253,358.5256,0.221296353,-0.052777778,0,0,0,,0,107,107,286,1,fosta,,,,
,,,,,,5bf01b3e2a9d2c00013ddc2a,676192165fb32c2e1fb7aee6,67d1942156cd6e1dbd59ca6a,2025-03-12_15h03.49.050,Tarea de decisión léxica,2024.2.5,Win32,144.9275362,,,,,,,,,,,,,,,,,,,,,,,358.5259,359.6224,l,1,0.4416,,0.4416,1,359.6224,360.1222,,,,,,150,MAS,NOWORD,AGR,150,pafo,,el,,,360.1222,360.1223,0.221296353,-0.052777778,0,0,0,,0,108,108,149,1,cabo,,,,
,,,,,,5bf01b3e2a9d2c00013ddc2a,676192165fb32c2e1fb7aee6,67d1942156cd6e1dbd59ca6a,2025-03-12_15h03.49.050,Tarea de decisión léxica,2024.2.5,Win32,144.9275362,,,,,,,,,,,,,,,,,,,,,,,360.1227,361.2402,l,1,0.4629,,0.4629,1,361.2403,361.7406,,,,,,408,FEM,NOWORD,DIS,150,cauba,,el,,,361.7406,361.7406,0.221296353,-0.052777778,0,0,0,,0,109,109,407,1,cueva,,,,
,,,,,,5bf01b3e2a9d2c00013ddc2a,676192165fb32c2e1fb7aee6,67d1942156cd6e1dbd59ca6a,2025-03-12_15h03.49.050,Tarea de decisión léxica,2024.2.5,Win32,144.9275362,,,,,,,,,,,,,,,,,,,,,,,361.7413,362.7962,l,1,0.3989,,0.3989,1,362.7962,363.2965,,,,,,472,FEM,NOWORD,DIS,150,prana,,el,,,363.2965,363.2966,0.221296353,-0.052777778,0,0,0,,0,110,110,471,1,grasa,,,,
,,,,,,5bf01b3e2a9d2c00013ddc2a,676192165fb32c2e1fb7aee6,67d1942156cd6e1dbd59ca6a,2025-03-12_15h03.49.050,Tarea de decisión léxica,2024.2.5,Win32,144.9275362,,,,,,,,,,,,,,,,,,,,,,,363.2969,364.359,a,1,0.4096,,0.4096,1,364.3591,364.859,,,,,,239,MAS,WORD,AGR,150,mozo,,el,,,364.859,364.859,0.221296353,-0.052777778,0,0,0,,0,111,111,238,1,poño,,,,
,,,,,,5bf01b3e2a9d2c00013ddc2a,676192165fb32c2e1fb7aee6,67d1942156cd6e1dbd59ca6a,2025-03-12_15h03.49.050,Tarea de decisión léxica,2024.2.5,Win32,144.9275362,,,,,,,,,,,,,,,,,,,,,,,364.8594,365.8311,a,1,0.3184,,0.3184,1,365.8311,366.3314,,,,,,233,FEM,WORD,DIS,150,lana,,el,,,366.3317,366.332,0.221296353,-0.052777778,0,0,0,,0,112,112,232,1,fasa,,,,
,,,,,,5bf01b3e2a9d2c00013ddc2a,676192165fb32c2e1fb7aee6,67d1942156cd6e1dbd59ca6a,2025-03-12_15h03.49.050,Tarea de decisión léxica,2024.2.5,Win32,144.9275362,,,,,,,,,,,,,,,,,,,,,,,366.3323,367.3314,a,1,0.343,,0.343,1,367.3315,367.8314,,,,,,303,MAS,WORD,AGR,150,barco,,el,,,367.8314,367.8315,0.221296353,-0.052777778,0,0,0,,0,113,113,302,1,lanco,,,,
,,,,,,5bf01b3e2a9d2c00013ddc2a,676192165fb32c2e1fb7aee6,67d1942156cd6e1dbd59ca6a,2025-03-12_15h03.49.050,Tarea de decisión léxica,2024.2.5,Win32,144.9275362,,,,,,,,,,,,,,,,,,,,,,,367.8319,368.9496,a,1,0.4598,,0.4598,1,368.9496,369.4497,,,,,,261,MAS,WORD,DIS,150,sitio,,la,,,369.4497,369.4497,0.221296353,-0.052777778,0,0,0,,0,114,114,260,1,titio,,,,
,,,,,,5bf01b3e2a9d2c00013ddc2a,676192165fb32c2e1fb7aee6,67d1942156cd6e1dbd59ca6a,2025-03-12_15h03.49.050,Tarea de decisión léxica,2024.2.5,Win32,144.9275362,,,,,,,,,,,,,,,,,,,,,,,369.4501,370.6442,l,1,0.5399,,0.5399,1,370.6442,371.1441,,,,,,134,FEM,NOWORD,AGR,150,vesa,,la,,,371.1442,371.1442,0.221296353,-0.052777778,0,0,0,,0,115,115,133,1,vaca,,,,
,,,,,,5bf01b3e2a9d2c00013ddc2a,676192165fb32c2e1fb7aee6,67d1942156cd6e1dbd59ca6a,2025-03-12_15h03.49.050,Tarea de decisión léxica,2024.2.5,Win32,144.9275362,,,,,,,,,,,,,,,,,,,,,,,371.1447,372.2351,a,1,0.4374,,0.4374,1,372.2351,372.7347,,,,,,217,MAS,WORD,DIS,150,luto,,la,,,372.7347,372.7348,0.221296353,-0.052777778,0,0,0,,0,116,116,216,1,budo,,,,
,,,,,,5bf01b3e2a9d2c00013ddc2a,676192165fb32c2e1fb7aee6,67d1942156cd6e1dbd59ca6a,2025-03-12_15h03.49.050,Tarea de decisión léxica,2024.2.5,Win32,144.9275362,,,,,,,,,,,,,,,,,,,,,,,372.7352,373.7348,l,1,0.3427,,0.3427,1,373.7348,374.2349,,,,,,236,FEM,NOWORD,DIS,150,tria,,el,,,374.2353,374.2356,0.221296353,-0.052777778,0,0,0,,0,117,117,235,1,grúa,,,,
,,,,,,5bf01b3e2a9d2c00013ddc2a,676192165fb32c2e1fb7aee6,67d1942156cd6e1dbd59ca6a,2025-03-12_15h03.49.050,Tarea de decisión léxica,2024.2.5,Win32,144.9275362,,,,,,,,,,,,,,,,,,,,,,,374.236,375.3947,l,1,0.5014,,0.5014,1,375.3947,375.8948,,,,,,404,FEM,NOWORD,DIS,150,grisa,,el,,,375.8948,375.8948,0.221296353,-0.052777778,0,0,0,,0,118,118,403,1,prima,,,,
,,,,,,5bf01b3e2a9d2c00013ddc2a,676192165fb32c2e1fb7aee6,67d1942156cd6e1dbd59ca6a,2025-03-12_15h03.49.050,Tarea de decisión léxica,2024.2.5,Win32,144.9275362,,,,,,,,,,,,,,,,,,,,,,,375.8953,376.9505,a,1,0.3965,,0.3965,1,376.9505,377.4504,,,,,,103,FEM,WORD,DIS,150,ruta,,el,,,377.4504,377.4504,0.221296353,-0.052777778,0,0,0,,0,119,119,102,1,rova,,,,
,,,,,,5bf01b3e2a9d2c00013ddc2a,676192165fb32c2e1fb7aee6,67d1942156cd6e1dbd59ca6a,2025-03-12_15h03.49.050,Tarea de decisión léxica,2024.2.5,Win32,144.9275362,,,,,,,,,,,,,,,,,,,,,,,377.451,378.4159,a,1,0.3069,,0.3069,1,378.4159,378.9159,,,,,,69,FEM,WORD,DIS,150,zona,,el,,,378.9159,378.9159,0.221296353,-0.052777778,0,0,0,,0,120,120,68,1,ñola,,,,
,,,,,,5bf01b3e2a9d2c00013ddc2a,676192165fb32c2e1fb7aee6,67d1942156cd6e1dbd59ca6a,2025-03-12_15h03.49.050,Tarea de decisión léxica,2024.2.5,Win32,144.9275362,,,,,,,,,,,,,,,,,,,,,,,378.9165,379.8467,a,1,0.2715,,0.2715,1,379.8467,380.3467,,,,,,259,MAS,WORD,AGR,150,juego,,el,,,380.3468,380.3468,0.221296353,-0.052777778,0,0,0,,0,121,121,258,1,jaumo,,,,
,,,,,,5bf01b3e2a9d2c00013ddc2a,676192165fb32c2e1fb7aee6,67d1942156cd6e1dbd59ca6a,2025-03-12_15h03.49.050,Tarea de decisión léxica,2024.2.5,Win32,144.9275362,,,,,,,,,,,,,,,,,,,,,,,380.3472,381.4302,l,1,0.4299,,0.4299,1,381.4302,381.9301,,,,,,270,MAS,NOWORD,AGR,150,mello,,el,,,381.9306,381.9309,0.221296353,-0.052777778,0,0,0,,0,122,122,269,1,perro,,,,
,,,,,,5bf01b3e2a9d2c00013ddc2a,676192165fb32c2e1fb7aee6,67d1942156cd6e1dbd59ca6a,2025-03-12_15h03.49.050,Tarea de decisión léxica,2024.2.5,Win32,144.9275362,,,,,,,,,,,,,,,,,,,,,,,381.9312,382.9721,l,1,0.3873,,0.3873,1,382.9722,383.4718,,,,,,128,MAS,NOWORD,DIS,150,itio,,la,,,383.4719,383.4719,0.221296353,-0.052777778,0,0,0,,0,123,123,127,1,pico,,,,
,,,,,,5bf01b3e2a9d2c00013ddc2a,676192165fb32c2e1fb7aee6,67d1942156cd6e1dbd59ca6a,2025-03-12_15h03.49.050,Tarea de decisión léxica,2024.2.5,Win32,144.9275362,,,,,,,,,,,,,,,,,,,,,,,383.4724,384.4448,a,1,0.3194,,0.3194,1,384.4449,384.9451,,,,,,335,FEM,WORD,DIS,150,costa,,el,,,384.9452,384.9452,0.221296353,-0.052777778,0,0,0,,0,124,124,334,1,pesta,,,,
,,,,,,5bf01b3e2a9d2c00013ddc2a,676192165fb32c2e1fb7aee6,67d1942156cd6e1dbd59ca6a,2025-03-12_15h03.49.050,Tarea de decisión léxica,2024.2.5,Win32,144.9275362,,,,,,,,,,,,,,,,,,,,,,,384.9456,385.9583,l,1,0.3561,,0.3561,1,385.9584,386.4584,,,,,,398,FEM,NOWORD,AGR,150,trigi,,la,,,386.4584,386.4584,0.221296353,-0.052777778,0,0,0,,0,125,125,397,1,tribu,,,,
,,,,,,5bf01b3e2a9d2c00013ddc2a,676192165fb32c2e1fb7aee6,67d1942156cd6e1dbd59ca6a,2025-03-12_15h03.49.050,Tarea de decisión léxica,2024.2.5,Win32,144.9275362,,,,,,,,,,,,,,,,,,,,,,,386.4589,387.4868,l,1,0.3752,,0.3752,1,387.4869,387.9865,,,,,,38,MAS,NOWORD,AGR,150,gaco,,el,,,387.9865,387.9865,0.221296353,-0.052777778,0,0,0,,0,126,126,37,1,rato,,,,
,,,,,,5bf01b3e2a9d2c00013ddc2a,676192165fb32c2e1fb7aee6,67d1942156cd6e1dbd59ca6a,2025-03-12_15h03.49.050,Tarea de decisión léxica,2024.2.5,Win32,144.9275362,,,,,,,,,,,,,,,,,,,,,,,387.987,389.042,l,1,0.3981,,0.3981,1,389.0421,389.542,,,,,,44,FEM,NOWORD,DIS,150,meda,,el,,,389.5424,389.5427,0.221296353,-0.052777778,0,0,0,,0,127,127,43,1,pena,,,,
,,,,,,5bf01b3e2a9d2c00013ddc2a,676192165fb32c2e1fb7aee6,67d1942156cd6e1dbd59ca6a,2025-03-12_15h03.49.050,Tarea de decisión léxica,2024.2.5,Win32,144.9275362,,,,,,,,,,,,,,,,,,,,,,,389.543,390.5909,a,1,0.3903,,0.3903,1,390.5909,391.0908,,,,,,283,MAS,WORD,DIS,150,sueño,,la,,,391.0908,391.0909,0.221296353,-0.052777778,0,0,0,,0,128,128,282,1,tuevo,,,,
,,,,,,5bf01b3e2a9d2c00013ddc2a,676192165fb32c2e1fb7aee6,67d1942156cd6e1dbd59ca6a,2025-03-12_15h03.49.050,Tarea de decisión léxica,2024.2.5,Win32,144.9275362,,,,,,,,,,,,,,,,,,,,,,,391.0914,392.098,l,1,0.3507,,0.3507,1,392.098,392.5979,,,,,,476,FEM,NOWORD,DIS,150,mucta,,el,,,392.5979,392.5979,0.221296353,-0.052777778,0,0,0,,0,129,129,475,1,manta,,,,
,,,,,,5bf01b3e2a9d2c00013ddc2a,676192165fb32c2e1fb7aee6,67d1942156cd6e1dbd59ca6a,2025-03-12_15h03.49.050,Tarea de decisión léxica,2024.2.5,Win32,144.9275362,,,,,,,,,,,,,,,,,,,,,,,392.5984,393.6189,a,1,0.3617,,0.3617,1,393.6189,394.1189,,,,,,373,FEM,WORD,AGR,150,pizza,,la,,,394.119,394.119,0.221296353,-0.052777778,0,0,0,,0,130,130,372,1,pogza,,,,
,,,,,,5bf01b3e2a9d2c00013ddc2a,676192165fb32c2e1fb7aee6,67d1942156cd6e1dbd59ca6a,2025-03-12_15h03.49.050,Tarea de decisión léxica,2024.2.5,Win32,144.9275362,,,,,,,,,,,,,,,,,,,,,,,394.1194,395.0849,a,1,0.3123,,0.3123,1,395.0849,395.5842,,,,,,281,MAS,WORD,AGR,150,cielo,,el,,,395.5846,395.5849,0.221296353,-0.052777778,0,0,0,,0,131,131,280,1,cauro,,,,
,,,,,,5bf01b3e2a9d2c00013ddc2a,676192165fb32c2e1fb7aee6,67d1942156cd6e1dbd59ca6a,2025-03-12_15h03.49.050,Tarea de decisión léxica,2024.2.5,Win32,144.9275362,,,,,,,,,,,,,,,,,,,,,,,395.5852,396.7997,a,1,0.561,,0.561,1,396.7997,397.2997,,,,,,113,FEM,WORD,DIS,150,miel,,el,,,397.2998,397.2998,0.221296353,-0.052777778,0,0,0,,0,132,132,112,1,tada,,,,
,,,,,,5bf01b3e2a9d2c00013ddc2a,676192165fb32c2e1fb7aee6,67d1942156cd6e1dbd59ca6a,2025-03-12_15h03.49.050,Tarea de decisión léxica,2024.2.5,Win32,144.9275362,,,,,,,,,,,,,,,,,,,,,,,397.3002,398.4526,a,1,0.4977,,0.4977,1,398.4526,398.9526,,,,,,315,FEM,WORD,AGR,150,reina,,la,,,398.9526,398.9527,0.221296353,-0.052777778,0,0,0,,0,133,133,314,1,riosa,,,,
,,,,,,5bf01b3e2a9d2c00013ddc2a,676192165fb32c2e1fb7aee6,67d1942156cd6e1dbd59ca6a,2025-03-12_15h03.49.050,Tarea de decisión léxica,2024.2.5,Win32,144.9275362,,,,,,,,,,,,,,,,,,,,,,,398.9532,400.0153,l,1,0.4046,,0.4046,1,400.0154,400.5155,,,,,,426,FEM,NOWORD,AGR,150,virca,,la,,,400.5155,400.5155,0.221296353,-0.052777778,0,0,0,,0,134,134,425,1,viuda,,,,
,,,,,,5bf01b3e2a9d2c00013ddc2a,676192165fb32c2e1fb7aee6,67d1942156cd6e1dbd59ca6a,2025-03-12_15h03.49.050,Tarea de decisión léxica,2024.2.5,Win32,144.9275362,,,,,,,,,,,,,,,,,,,,,,,400.5158,401.5572,a,1,0.3848,,0.3848,1,401.5572,402.0572,,,,,,163,FEM,WORD,DIS,150,fama,,el,,,402.0572,402.0572,0.221296353,-0.052777778,0,0,0,,0,135,135,162,1,laga,,,,
,,,,,,5bf01b3e2a9d2c00013ddc2a,676192165fb32c2e1fb7aee6,67d1942156cd6e1dbd59ca6a,2025-03-12_15h03.49.050,Tarea de decisión léxica,2024.2.5,Win32,144.9275362,,,,,,,,,,,,,,,,,,,,,,,402.0576,403.0572,a,1,0.3423,,0.3423,1,403.0573,403.5572,,,,,,441,FEM,WORD,DIS,150,selva,,el,,,403.5577,403.5579,0.221296353,-0.052777778,0,0,0,,0,136,136,440,1,telza,,,,
,,,,,,5bf01b3e2a9d2c00013ddc2a,676192165fb32c2e1fb7aee6,67d1942156cd6e1dbd59ca6a,2025-03-12_15h03.49.050,Tarea de decisión léxica,2024.2.5,Win32,144.9275362,,,,,,,,,,,,,,,,,,,,,,,403.5582,404.5991,l,1,0.3881,,0.3881,1,404.5991,405.0991,,,,,,352,MAS,NOWORD,DIS,150,duepo,,la,,,405.0991,405.0991,0.221296353,-0.052777778,0,0,0,,0,137,137,351,1,vuelo,,,,
,,,,,,5bf01b3e2a9d2c00013ddc2a,676192165fb32c2e1fb7aee6,67d1942156cd6e1dbd59ca6a,2025-03-12_15h03.49.050,Tarea de decisión léxica,2024.2.5,Win32,144.9275362,,,,,,,,,,,,,,,,,,,,,,,405.0995,406.2312,l,1,0.4771,,0.4771,1,406.2312,406.7312,,,,,,278,MAS,NOWORD,AGR,150,vuemo,,el,,,406.7312,406.7312,0.221296353,-0.052777778,0,0,0,,0,138,138,277,1,fuego,,,,
,,,,,,5bf01b3e2a9d2c00013ddc2a,676192165fb32c2e1fb7aee6,67d1942156cd6e1dbd59ca6a,2025-03-12_15h03.49.050,Tarea de decisión léxica,2024.2.5,Win32,144.9275362,,,,,,,,,,,,,,,,,,,,,,,406.7316,407.8564,a,1,0.4699,,0.4699,1,407.8564,408.3565,,,,,,465,FEM,WORD,DIS,150,aguja,,el,,,408.3565,408.3565,0.221296353,-0.052777778,0,0,0,,0,139,139,464,1,asuba,,,,
,,,,,,5bf01b3e2a9d2c00013ddc2a,676192165fb32c2e1fb7aee6,67d1942156cd6e1dbd59ca6a,2025-03-12_15h03.49.050,Tarea de decisión léxica,2024.2.5,Win32,144.9275362,,,,,,,,,,,,,,,,,,,,,,,408.3569,409.3566,a,1,0.3438,,0.3438,1,409.3566,409.8565,,,,,,405,FEM,WORD,DIS,150,barra,,el,,,409.8565,409.8566,0.221296353,-0.052777778,0,0,0,,0,140,140,404,1,rarra,,,,
,,,,,,5bf01b3e2a9d2c00013ddc2a,676192165fb32c2e1fb7aee6,67d1942156cd6e1dbd59ca6a,2025-03-12_15h03.49.050,Tarea de decisión léxica,2024.2.5,Win32,144.9275362,,,,,,,,,,,,,,,,,,,,,,,409.857,410.9267,l,1,0.4168,,0.4168,1,410.9267,411.426,,,,,,456,MAS,NOWORD,DIS,150,riaso,,la,,,411.4264,411.4267,0.221296353,-0.052777778,0,0,0,,0,141,141,455,1,reino,,,,
,,,,,,5bf01b3e2a9d2c00013ddc2a,676192165fb32c2e1fb7aee6,67d1942156cd6e1dbd59ca6a,2025-03-12_15h03.49.050,Tarea de decisión léxica,2024.2.5,Win32,144.9275362,,,,,,,,,,,,,,,,,,,,,,,411.427,412.961,l,1,0.8759,,0.8759,1,412.9611,413.4611,,,,,,98,MAS,NOWORD,AGR,150,fopo,,el,,,413.4611,413.4612,0.221296353,-0.052777778,0,0,0,,0,142,142,97,1,mono,,,,
,,,,,,5bf01b3e2a9d2c00013ddc2a,676192165fb32c2e1fb7aee6,67d1942156cd6e1dbd59ca6a,2025-03-12_15h03.49.050,Tarea de decisión léxica,2024.2.5,Win32,144.9275362,,,,,,,,,,,,,,,,,,,,,,,413.4616,414.5729,a,1,0.4573,,0.4573,1,414.5729,415.0724,,,,,,253,MAS,WORD,AGR,150,chico,,el,,,415.0724,415.0724,0.221296353,-0.052777778,0,0,0,,0,143,143,252,1,trido,,,,
,,,,,,5bf01b3e2a9d2c00013ddc2a,676192165fb32c2e1fb7aee6,67d1942156cd6e1dbd59ca6a,2025-03-12_15h03.49.050,Tarea de decisión léxica,2024.2.5,Win32,144.9275362,,,,,,,,,,,,,,,,,,,,,,,415.0728,416.4619,a,1,0.7363,,0.7363,1,416.4619,416.9614,,,,,,191,FEM,WORD,AGR,150,pila,,la,,,416.9615,416.9615,0.221296353,-0.052777778,0,0,0,,0,144,144,190,1,bila,,,,
,,,,,,5bf01b3e2a9d2c00013ddc2a,676192165fb32c2e1fb7aee6,67d1942156cd6e1dbd59ca6a,2025-03-12_15h03.49.050,Tarea de decisión léxica,2024.2.5,Win32,144.9275362,,,,,,,,,,,,,,,,,,,,,,,416.9619,418.0731,a,1,0.4581,,0.4581,1,418.0731,418.5728,,,,,,271,FEM,WORD,DIS,150,señal,,el,,,418.5728,418.5728,0.221296353,-0.052777778,0,0,0,,0,145,145,270,1,refal,,,,
,,,,,,5bf01b3e2a9d2c00013ddc2a,676192165fb32c2e1fb7aee6,67d1942156cd6e1dbd59ca6a,2025-03-12_15h03.49.050,Tarea de decisión léxica,2024.2.5,Win32,144.9275362,,,,,,,,,,,,,,,,,,,,,,,418.5731,419.6493,l,1,0.4197,,0.4197,1,419.6494,420.1493,,,,,,22,MAS,NOWORD,AGR,150,blan,,el,,,420.1498,420.1501,0.221296353,-0.052777778,0,0,0,,0,146,146,21,1,plan,,,,
,,,,,,5bf01b3e2a9d2c00013ddc2a,676192165fb32c2e1fb7aee6,67d1942156cd6e1dbd59ca6a,2025-03-12_15h03.49.050,Tarea de decisión léxica,2024.2.5,Win32,144.9275362,,,,,,,,,,,,,,,,,,,,,,,420.1503,421.205,l,1,0.398,,0.398,1,421.205,421.705,,,,,,132,FEM,NOWORD,DIS,150,fada,,el,,,421.705,421.7051,0.221296353,-0.052777778,0,0,0,,0,147,147,131,1,mina,,,,
,,,,,,5bf01b3e2a9d2c00013ddc2a,676192165fb32c2e1fb7aee6,67d1942156cd6e1dbd59ca6a,2025-03-12_15h03.49.050,Tarea de decisión léxica,2024.2.5,Win32,144.9275362,,,,,,,,,,,,,,,,,,,,,,,421.7055,422.726,l,1,0.3623,,0.3623,1,422.726,423.226,,,,,,50,FEM,NOWORD,AGR,150,ecat,,la,,,423.226,423.226,0.221296353,-0.052777778,0,0,0,,0,148,148,49,1,edad,,,,
,,,,,,5bf01b3e2a9d2c00013ddc2a,676192165fb32c2e1fb7aee6,67d1942156cd6e1dbd59ca6a,2025-03-12_15h03.49.050,Tarea de decisión léxica,2024.2.5,Win32,144.9275362,,,,,,,,,,,,,,,,,,,,,,,423.2264,424.3512,a,1,0.4682,,0.4682,1,424.3512,424.8511,,,,,,295,MAS,WORD,AGR,150,dolor,,el,,,424.8511,424.8511,0.221296353,-0.052777778,0,0,0,,0,149,149,294,1,goler,,,,
,,,,,,5bf01b3e2a9d2c00013ddc2a,676192165fb32c2e1fb7aee6,67d1942156cd6e1dbd59ca6a,2025-03-12_15h03.49.050,Tarea de decisión léxica,2024.2.5,Win32,144.9275362,,,,,,,,,,,,,,,,,,,,,,,424.8515,425.8792,a,1,0.3742,,0.3742,1,425.8793,426.3794,,,,,,469,MAS,WORD,AGR,150,patio,,el,,,426.3794,426.3794,0.221296353,-0.052777778,0,0,0,,0,150,150,468,1,matia,,,,
,,,,,,5bf01b3e2a9d2c00013ddc2a,676192165fb32c2e1fb7aee6,67d1942156cd6e1dbd59ca6a,2025-03-12_15h03.49.050,Tarea de decisión léxica,2024.2.5,Win32,144.9275362,,,,,,,,,,,,,,,,,,,,,,,426.3799,427.4071,a,1,0.3687,,0.3687,1,427.4071,427.9071,,,,,,421,MAS,WORD,AGR,150,primo,,el,,,427.9075,427.9077,0.221296353,-0.052777778,0,0,0,,0,151,151,420,1,griso,,,,
,,,,,,5bf01b3e2a9d2c00013ddc2a,676192165fb32c2e1fb7aee6,67d1942156cd6e1dbd59ca6a,2025-03-12_15h03.49.050,Tarea de decisión léxica,2024.2.5,Win32,144.9275362,,,,,,,,,,,,,,,,,,,,,,,427.908,428.8377,a,1,0.2754,,0.2754,1,428.8377,429.3377,,,,,,3,FEM,WORD,AGR,150,vida,,la,,,429.3377,429.3378,0.221296353,-0.052777778,0,0,0,,0,152,152,2,1,dica,,,,
,,,,,,5bf01b3e2a9d2c00013ddc2a,676192165fb32c2e1fb7aee6,67d1942156cd6e1dbd59ca6a,2025-03-12_15h03.49.050,Tarea de decisión léxica,2024.2.5,Win32,144.9275362,,,,,,,,,,,,,,,,,,,,,,,429.3382,430.3448,l,1,0.3506,,0.3506,1,430.3449,430.8448,,,,,,380,MAS,NOWORD,DIS,150,tunso,,la,,,430.8448,430.8448,0.221296353,-0.052777778,0,0,0,,0,153,153,379,1,turno,,,,
,,,,,,5bf01b3e2a9d2c00013ddc2a,676192165fb32c2e1fb7aee6,67d1942156cd6e1dbd59ca6a,2025-03-12_15h03.49.050,Tarea de decisión léxica,2024.2.5,Win32,144.9275362,,,,,,,,,,,,,,,,,,,,,,,430.8454,431.8728,a,1,0.3695,,0.3695,1,431.8728,432.3728,,,,,,31,FEM,WORD,DIS,150,ropa,,el,,,432.3728,432.3729,0.221296353,-0.052777778,0,0,0,,0,154,154,30,1,bova,,,,
,,,,,,5bf01b3e2a9d2c00013ddc2a,676192165fb32c2e1fb7aee6,67d1942156cd6e1dbd59ca6a,2025-03-12_15h03.49.050,Tarea de decisión léxica,2024.2.5,Win32,144.9275362,,,,,,,,,,,,,,,,,,,,,,,432.3733,433.4424,l,1,0.411,,0.411,1,433.4424,433.9424,,,,,,62,FEM,NOWORD,AGR,150,efla,,la,,,433.9429,433.9432,0.221296353,-0.052777778,0,0,0,,0,155,155,61,1,obra,,,,
,,,,,,5bf01b3e2a9d2c00013ddc2a,676192165fb32c2e1fb7aee6,67d1942156cd6e1dbd59ca6a,2025-03-12_15h03.49.050,Tarea de decisión léxica,2024.2.5,Win32,144.9275362,,,,,,,,,,,,,,,,,,,,,,,433.9435,434.991,a,1,0.3938,,0.3938,1,434.991,435.4912,,,,,,277,MAS,WORD,DIS,150,fuego,,la,,,435.4912,435.4912,0.221296353,-0.052777778,0,0,0,,0,156,156,276,1,vuemo,,,,
,,,,,,5bf01b3e2a9d2c00013ddc2a,676192165fb32c2e1fb7aee6,67d1942156cd6e1dbd59ca6a,2025-03-12_15h03.49.050,Tarea de decisión léxica,2024.2.5,Win32,144.9275362,,,,,,,,,,,,,,,,,,,,,,,435.4917,436.4495,a,1,0.3043,,0.3043,1,436.4495,436.9496,,,,,,141,FEM,WORD,AGR,150,cruz,,la,,,436.9497,436.9497,0.221296353,-0.052777778,0,0,0,,0,157,157,140,1,sina,,,,
,,,,,,5bf01b3e2a9d2c00013ddc2a,676192165fb32c2e1fb7aee6,67d1942156cd6e1dbd59ca6a,2025-03-12_15h03.49.050,Tarea de decisión léxica,2024.2.5,Win32,144.9275362,,,,,,,,,,,,,,,,,,,,,,,436.9501,437.8735,a,1,0.2666,,0.2666,1,437.8736,438.3735,,,,,,447,MAS,WORD,DIS,150,bolso,,la,,,438.3735,438.3735,0.221296353,-0.052777778,0,0,0,,0,158,158,446,1,buaso,,,,
,,,,,,5bf01b3e2a9d2c00013ddc2a,676192165fb32c2e1fb7aee6,67d1942156cd6e1dbd59ca6a,2025-03-12_15h03.49.050,Tarea de decisión léxica,2024.2.5,Win32,144.9275362,,,,,,,,,,,,,,,,,,,,,,,438.3739,439.5055,a,1,0.4749,,0.4749,1,439.5056,440.0054,,,,,,197,MAS,WORD,DIS,150,bate,,la,,,440.0054,440.0055,0.221296353,-0.052777778,0,0,0,,0,159,159,196,1,dade,,,,
,,,,,,5bf01b3e2a9d2c00013ddc2a,676192165fb32c2e1fb7aee6,67d1942156cd6e1dbd59ca6a,2025-03-12_15h03.49.050,Tarea de decisión léxica,2024.2.5,Win32,144.9275362,,,,,,,,,,,,,,,,,,,,,,,440.0059,440.957,a,1,0.2936,,0.2936,1,440.957,441.457,,,,,,25,FEM,WORD,AGR,150,cama,,la,,,441.4575,446.3814,0.221296353,-0.052777778,0,0,0,space,0,160,160,24,1,paza,4.9127,,,
,,,,,,5bf01b3e2a9d2c00013ddc2a,676192165fb32c2e1fb7aee6,67d1942156cd6e1dbd59ca6a,2025-03-12_15h03.49.050,Tarea de decisión léxica,2024.2.5,Win32,144.9275362,,,,,,,,,,,,,,,,,,,,,,,446.3818,447.3188,a,1,0.2793,,0.2793,1,447.319,447.8188,,,,,,311,MAS,WORD,DIS,150,honor,,la,,,447.8188,447.8188,0.221296353,-0.052777778,0,0,0,,0,161,161,310,1,nosor,,,,
,,,,,,5bf01b3e2a9d2c00013ddc2a,676192165fb32c2e1fb7aee6,67d1942156cd6e1dbd59ca6a,2025-03-12_15h03.49.050,Tarea de decisión léxica,2024.2.5,Win32,144.9275362,,,,,,,,,,,,,,,,,,,,,,,447.8193,448.9092,l,1,0.4345,,0.4345,1,448.9092,449.4094,,,,,,190,MAS,NOWORD,AGR,150,muvo,,el,,,449.4094,449.4094,0.221296353,-0.052777778,0,0,0,,0,162,162,189,1,puño,,,,
,,,,,,5bf01b3e2a9d2c00013ddc2a,676192165fb32c2e1fb7aee6,67d1942156cd6e1dbd59ca6a,2025-03-12_15h03.49.050,Tarea de decisión léxica,2024.2.5,Win32,144.9275362,,,,,,,,,,,,,,,,,,,,,,,449.4099,450.4511,l,1,0.384,,0.384,1,450.4512,450.951,,,,,,256,MAS,NOWORD,DIS,150,mauco,,la,,,450.951,450.9511,0.221296353,-0.052777778,0,0,0,,0,163,163,255,1,miedo,,,,
,,,,,,5bf01b3e2a9d2c00013ddc2a,676192165fb32c2e1fb7aee6,67d1942156cd6e1dbd59ca6a,2025-03-12_15h03.49.050,Tarea de decisión léxica,2024.2.5,Win32,144.9275362,,,,,,,,,,,,,,,,,,,,,,,450.9516,451.965,a,1,0.3601,,0.3601,1,451.965,452.4651,,,,,,91,FEM,WORD,AGR,150,taza,,la,,,452.4651,452.4652,0.221296353,-0.052777778,0,0,0,,0,164,164,90,1,sava,,,,
,,,,,,5bf01b3e2a9d2c00013ddc2a,676192165fb32c2e1fb7aee6,67d1942156cd6e1dbd59ca6a,2025-03-12_15h03.49.050,Tarea de decisión léxica,2024.2.5,Win32,144.9275362,,,,,,,,,,,,,,,,,,,,,,,452.4656,453.389,a,1,0.2663,,0.2663,1,453.3891,453.8889,,,,,,201,FEM,WORD,DIS,150,cuna,,el,,,453.8893,453.8896,0.221296353,-0.052777778,0,0,0,,0,165,165,200,1,cusa,,,,
,,,,,,5bf01b3e2a9d2c00013ddc2a,676192165fb32c2e1fb7aee6,67d1942156cd6e1dbd59ca6a,2025-03-12_15h03.49.050,Tarea de decisión léxica,2024.2.5,Win32,144.9275362,,,,,,,,,,,,,,,,,,,,,,,453.8899,454.7638,a,1,0.2194,,0.2194,1,454.7638,455.264,,,,,,59,FEM,WORD,DIS,150,sala,,el,,,455.264,455.2641,0.221296353,-0.052777778,0,0,0,,0,166,166,58,1,tafa,,,,
,,,,,,5bf01b3e2a9d2c00013ddc2a,676192165fb32c2e1fb7aee6,67d1942156cd6e1dbd59ca6a,2025-03-12_15h03.49.050,Tarea de decisión léxica,2024.2.5,Win32,144.9275362,,,,,,,,,,,,,,,,,,,,,,,455.2646,456.2989,a,1,0.3755,,0.3755,1,456.299,456.7989,,,,,,433,MAS,WORD,DIS,150,disco,,la,,,456.7989,456.799,0.221296353,-0.052777778,0,0,0,,0,167,167,432,1,durco,,,,
,,,,,,5bf01b3e2a9d2c00013ddc2a,676192165fb32c2e1fb7aee6,67d1942156cd6e1dbd59ca6a,2025-03-12_15h03.49.050,Tarea de decisión léxica,2024.2.5,Win32,144.9275362,,,,,,,,,,,,,,,,,,,,,,,456.7995,457.931,l,1,0.4734,,0.4734,1,457.931,458.431,,,,,,222,FEM,NOWORD,AGR,150,puca,,la,,,458.431,458.4311,0.221296353,-0.052777778,0,0,0,,0,168,168,221,1,mula,,,,
,,,,,,5bf01b3e2a9d2c00013ddc2a,676192165fb32c2e1fb7aee6,67d1942156cd6e1dbd59ca6a,2025-03-12_15h03.49.050,Tarea de decisión léxica,2024.2.5,Win32,144.9275362,,,,,,,,,,,,,,,,,,,,,,,458.4316,459.4798,a,1,0.3944,,0.3944,1,459.48,459.9798,,,,,,97,MAS,WORD,DIS,150,mono,,la,,,459.9798,459.9798,0.221296353,-0.052777778,0,0,0,,0,169,169,96,1,fopo,,,,
,,,,,,5bf01b3e2a9d2c00013ddc2a,676192165fb32c2e1fb7aee6,67d1942156cd6e1dbd59ca6a,2025-03-12_15h03.49.050,Tarea de decisión léxica,2024.2.5,Win32,144.9275362,,,,,,,,,,,,,,,,,,,,,,,459.9802,461.1049,l,1,0.4665,,0.4665,1,461.1049,461.6049,,,,,,384,FEM,NOWORD,DIS,150,brame,,el,,,461.6054,461.6056,0.221296353,-0.052777778,0,0,0,,0,170,170,383,1,frase,,,,
,,,,,,5bf01b3e2a9d2c00013ddc2a,676192165fb32c2e1fb7aee6,67d1942156cd6e1dbd59ca6a,2025-03-12_15h03.49.050,Tarea de decisión léxica,2024.2.5,Win32,144.9275362,,,,,,,,,,,,,,,,,,,,,,,461.6059,462.6327,l,1,0.3703,,0.3703,1,462.6328,463.1328,,,,,,142,FEM,NOWORD,AGR,150,sina,,la,,,463.1328,463.1329,0.221296353,-0.052777778,0,0,0,,0,171,171,141,1,cruz,,,,
,,,,,,5bf01b3e2a9d2c00013ddc2a,676192165fb32c2e1fb7aee6,67d1942156cd6e1dbd59ca6a,2025-03-12_15h03.49.050,Tarea de decisión léxica,2024.2.5,Win32,144.9275362,,,,,,,,,,,,,,,,,,,,,,,463.1333,464.2233,l,1,0.4334,,0.4334,1,464.2233,464.7233,,,,,,52,FEM,NOWORD,DIS,150,mava,,el,,,464.7233,464.7233,0.221296353,-0.052777778,0,0,0,,0,172,172,51,1,caja,,,,
,,,,,,5bf01b3e2a9d2c00013ddc2a,676192165fb32c2e1fb7aee6,67d1942156cd6e1dbd59ca6a,2025-03-12_15h03.49.050,Tarea de decisión léxica,2024.2.5,Win32,144.9275362,,,,,,,,,,,,,,,,,,,,,,,464.7236,465.6819,l,0,0.303,,0.303,0,465.6822,466.182,,,,,,449,FEM,WORD,AGR,150,pluma,,la,,,466.182,466.1821,0.221296353,-0.052777778,0,0,0,,0,173,173,448,1,crusa,,,,
,,,,,,5bf01b3e2a9d2c00013ddc2a,676192165fb32c2e1fb7aee6,67d1942156cd6e1dbd59ca6a,2025-03-12_15h03.49.050,Tarea de decisión léxica,2024.2.5,Win32,144.9275362,,,,,,,,,,,,,,,,,,,,,,,466.1824,467.4109,a,0,0.5703,,0.5703,0,467.411,467.9111,,,,,,178,MAS,NOWORD,AGR,150,bito,,el,,,467.9111,467.9111,0.221296353,-0.052777778,0,0,0,,0,174,174,177,1,reto,,,,
,,,,,,5bf01b3e2a9d2c00013ddc2a,676192165fb32c2e1fb7aee6,67d1942156cd6e1dbd59ca6a,2025-03-12_15h03.49.050,Tarea de decisión léxica,2024.2.5,Win32,144.9275362,,,,,,,,,,,,,,,,,,,,,,,467.9116,468.9528,l,0,0.3824,,0.3824,0,468.9528,469.4529,,,,,,263,FEM,WORD,DIS,150,vista,,el,,,469.4533,469.4536,0.221296353,-0.052777778,0,0,0,,0,175,175,262,1,dosta,,,,
,,,,,,5bf01b3e2a9d2c00013ddc2a,676192165fb32c2e1fb7aee6,67d1942156cd6e1dbd59ca6a,2025-03-12_15h03.49.050,Tarea de decisión léxica,2024.2.5,Win32,144.9275362,,,,,,,,,,,,,,,,,,,,,,,469.4539,470.5923,l,1,0.4828,,0.4828,1,470.5925,471.0921,,,,,,370,MAS,NOWORD,AGR,150,rioco,,el,,,471.0922,471.0922,0.221296353,-0.052777778,0,0,0,,0,176,176,369,1,ruido,,,,
,,,,,,5bf01b3e2a9d2c00013ddc2a,676192165fb32c2e1fb7aee6,67d1942156cd6e1dbd59ca6a,2025-03-12_15h03.49.050,Tarea de decisión léxica,2024.2.5,Win32,144.9275362,,,,,,,,,,,,,,,,,,,,,,,471.0925,472.1961,l,1,0.4501,,0.4501,1,472.1962,472.6963,,,,,,294,MAS,NOWORD,AGR,150,cacso,,el,,,472.6963,472.6963,0.221296353,-0.052777778,0,0,0,,0,177,177,293,1,campo,,,,
,,,,,,5bf01b3e2a9d2c00013ddc2a,676192165fb32c2e1fb7aee6,67d1942156cd6e1dbd59ca6a,2025-03-12_15h03.49.050,Tarea de decisión léxica,2024.2.5,Win32,144.9275362,,,,,,,,,,,,,,,,,,,,,,,472.6967,473.7033,a,1,0.3501,,0.3501,1,473.7033,474.2033,,,,,,179,MAS,WORD,DIS,150,toro,,la,,,474.2033,474.2033,0.221296353,-0.052777778,0,0,0,,0,178,178,178,1,sono,,,,
,,,,,,5bf01b3e2a9d2c00013ddc2a,676192165fb32c2e1fb7aee6,67d1942156cd6e1dbd59ca6a,2025-03-12_15h03.49.050,Tarea de decisión léxica,2024.2.5,Win32,144.9275362,,,,,,,,,,,,,,,,,,,,,,,474.2037,475.2382,l,1,0.3757,,0.3757,1,475.2382,475.7382,,,,,,86,MAS,NOWORD,AGR,150,babo,,el,,,475.7387,475.739,0.221296353,-0.052777778,0,0,0,,0,179,179,85,1,lago,,,,
,,,,,,5bf01b3e2a9d2c00013ddc2a,676192165fb32c2e1fb7aee6,67d1942156cd6e1dbd59ca6a,2025-03-12_15h03.49.050,Tarea de decisión léxica,2024.2.5,Win32,144.9275362,,,,,,,,,,,,,,,,,,,,,,,475.7392,476.8218,l,1,0.424,,0.424,1,476.8219,477.322,,,,,,334,FEM,NOWORD,AGR,150,dalea,,la,,,477.322,477.322,0.221296353,-0.052777778,0,0,0,,0,180,180,333,1,tarea,,,,
,,,,,,5bf01b3e2a9d2c00013ddc2a,676192165fb32c2e1fb7aee6,67d1942156cd6e1dbd59ca6a,2025-03-12_15h03.49.050,Tarea de decisión léxica,2024.2.5,Win32,144.9275362,,,,,,,,,,,,,,,,,,,,,,,477.3224,478.3913,a,1,0.4146,,0.4146,1,478.3914,478.8914,,,,,,231,FEM,WORD,AGR,150,bota,,la,,,478.8914,478.8915,0.221296353,-0.052777778,0,0,0,,0,181,181,230,1,heta,,,,
,,,,,,5bf01b3e2a9d2c00013ddc2a,676192165fb32c2e1fb7aee6,67d1942156cd6e1dbd59ca6a,2025-03-12_15h03.49.050,Tarea de decisión léxica,2024.2.5,Win32,144.9275362,,,,,,,,,,,,,,,,,,,,,,,478.8918,479.8291,a,1,0.281,,0.281,1,479.8292,480.3291,,,,,,53,FEM,WORD,AGR,150,boda,,la,,,480.3291,480.3292,0.221296353,-0.052777778,0,0,0,,0,182,182,52,1,rora,,,,
,,,,,,5bf01b3e2a9d2c00013ddc2a,676192165fb32c2e1fb7aee6,67d1942156cd6e1dbd59ca6a,2025-03-12_15h03.49.050,Tarea de decisión léxica,2024.2.5,Win32,144.9275362,,,,,,,,,,,,,,,,,,,,,,,480.3296,481.2251,a,1,0.237,,0.237,1,481.2252,481.725,,,,,,243,MAS,WORD,AGR,150,amigo,,el,,,481.725,481.725,0.221296353,-0.052777778,0,0,0,,0,183,183,242,1,asamo,,,,
,,,,,,5bf01b3e2a9d2c00013ddc2a,676192165fb32c2e1fb7aee6,67d1942156cd6e1dbd59ca6a,2025-03-12_15h03.49.050,Tarea de decisión léxica,2024.2.5,Win32,144.9275362,,,,,,,,,,,,,,,,,,,,,,,481.7254,482.7806,l,1,0.399,,0.399,1,482.7806,483.2807,,,,,,268,MAS,NOWORD,DIS,150,figro,,la,,,483.2811,483.2814,0.221296353,-0.052777778,0,0,0,,0,184,184,267,1,libro,,,,
,,,,,,5bf01b3e2a9d2c00013ddc2a,676192165fb32c2e1fb7aee6,67d1942156cd6e1dbd59ca6a,2025-03-12_15h03.49.050,Tarea de decisión léxica,2024.2.5,Win32,144.9275362,,,,,,,,,,,,,,,,,,,,,,,483.2816,484.3364,a,1,0.3996,,0.3996,1,484.3365,484.8365,,,,,,319,MAS,WORD,DIS,150,suelo,,la,,,484.8365,484.8365,0.221296353,-0.052777778,0,0,0,,0,185,185,318,1,tuero,,,,
,,,,,,5bf01b3e2a9d2c00013ddc2a,676192165fb32c2e1fb7aee6,67d1942156cd6e1dbd59ca6a,2025-03-12_15h03.49.050,Tarea de decisión léxica,2024.2.5,Win32,144.9275362,,,,,,,,,,,,,,,,,,,,,,,484.837,485.8299,l,1,0.3403,,0.3403,1,485.8299,486.3296,,,,,,390,MAS,NOWORD,AGR,150,cenco,,el,,,486.3297,486.3297,0.221296353,-0.052777778,0,0,0,,0,186,186,389,1,cerdo,,,,
,,,,,,5bf01b3e2a9d2c00013ddc2a,676192165fb32c2e1fb7aee6,67d1942156cd6e1dbd59ca6a,2025-03-12_15h03.49.050,Tarea de decisión léxica,2024.2.5,Win32,144.9275362,,,,,,,,,,,,,,,,,,,,,,,486.3301,487.3577,l,1,0.3736,,0.3736,1,487.3577,487.8574,,,,,,166,FEM,NOWORD,AGR,150,dera,,la,,,487.8575,487.8575,0.221296353,-0.052777778,0,0,0,,0,187,187,165,1,vela,,,,
,,,,,,5bf01b3e2a9d2c00013ddc2a,676192165fb32c2e1fb7aee6,67d1942156cd6e1dbd59ca6a,2025-03-12_15h03.49.050,Tarea de decisión léxica,2024.2.5,Win32,144.9275362,,,,,,,,,,,,,,,,,,,,,,,487.858,488.8923,a,1,0.3807,,0.3807,1,488.8924,489.3926,,,,,,305,MAS,WORD,DIS,150,avión,,la,,,489.3926,489.3926,0.221296353,-0.052777778,0,0,0,,0,188,188,304,1,adiol,,,,
,,,,,,5bf01b3e2a9d2c00013ddc2a,676192165fb32c2e1fb7aee6,67d1942156cd6e1dbd59ca6a,2025-03-12_15h03.49.050,Tarea de decisión léxica,2024.2.5,Win32,144.9275362,,,,,,,,,,,,,,,,,,,,,,,489.393,490.4968,l,1,0.4476,,0.4476,1,490.4968,490.997,,,,,,116,FEM,NOWORD,DIS,150,haca,,el,,,490.9974,490.9978,0.221296353,-0.052777778,0,0,0,,0,189,189,115,1,pata,,,,
,,,,,,5bf01b3e2a9d2c00013ddc2a,676192165fb32c2e1fb7aee6,67d1942156cd6e1dbd59ca6a,2025-03-12_15h03.49.050,Tarea de decisión léxica,2024.2.5,Win32,144.9275362,,,,,,,,,,,,,,,,,,,,,,,490.9981,492.0108,a,1,0.3584,,0.3584,1,492.0109,492.5109,,,,,,133,FEM,WORD,DIS,150,vaca,,el,,,492.5109,492.511,0.221296353,-0.052777778,0,0,0,,0,190,190,132,1,vesa,,,,
,,,,,,5bf01b3e2a9d2c00013ddc2a,676192165fb32c2e1fb7aee6,67d1942156cd6e1dbd59ca6a,2025-03-12_15h03.49.050,Tarea de decisión léxica,2024.2.5,Win32,144.9275362,,,,,,,,,,,,,,,,,,,,,,,492.5114,493.636,a,1,0.4676,,0.4676,1,493.6361,494.1362,,,,,,437,FEM,WORD,DIS,150,plaza,,el,,,494.1362,494.1362,0.221296353,-0.052777778,0,0,0,,0,191,191,436,1,glava,,,,
,,,,,,5bf01b3e2a9d2c00013ddc2a,676192165fb32c2e1fb7aee6,67d1942156cd6e1dbd59ca6a,2025-03-12_15h03.49.050,Tarea de decisión léxica,2024.2.5,Win32,144.9275362,,,,,,,,,,,,,,,,,,,,,,,494.1367,495.2473,l,1,0.4553,,0.4553,1,495.2473,495.7474,,,,,,446,MAS,NOWORD,AGR,150,ascor,,el,,,495.7474,495.7474,0.221296353,-0.052777778,0,0,0,,0,192,192,445,1,actor,,,,
,,,,,,5bf01b3e2a9d2c00013ddc2a,676192165fb32c2e1fb7aee6,67d1942156cd6e1dbd59ca6a,2025-03-12_15h03.49.050,Tarea de decisión léxica,2024.2.5,Win32,144.9275362,,,,,,,,,,,,,,,,,,,,,,,495.7479,496.7684,l,1,0.3619,,0.3619,1,496.7684,497.2683,,,,,,442,FEM,NOWORD,AGR,150,telza,,la,,,497.2684,497.2684,0.221296353,-0.052777778,0,0,0,,0,193,193,441,1,selva,,,,
,,,,,,5bf01b3e2a9d2c00013ddc2a,676192165fb32c2e1fb7aee6,67d1942156cd6e1dbd59ca6a,2025-03-12_15h03.49.050,Tarea de decisión léxica,2024.2.5,Win32,144.9275362,,,,,,,,,,,,,,,,,,,,,,,497.2689,498.2411,l,1,0.3192,,0.3192,1,498.2411,498.7406,,,,,,10,MAS,NOWORD,AGR,150,sibo,,el,,,498.7412,498.7414,0.221296353,-0.052777778,0,0,0,,0,194,194,9,1,tipo,,,,
,,,,,,5bf01b3e2a9d2c00013ddc2a,676192165fb32c2e1fb7aee6,67d1942156cd6e1dbd59ca6a,2025-03-12_15h03.49.050,Tarea de decisión léxica,2024.2.5,Win32,144.9275362,,,,,,,,,,,,,,,,,,,,,,,498.7417,499.6993,l,1,0.3027,,0.3027,1,499.6994,500.1993,,,,,,238,MAS,NOWORD,AGR,150,huco,,el,,,500.1993,500.1993,0.221296353,-0.052777778,0,0,0,,0,195,195,237,1,nudo,,,,
,,,,,,5bf01b3e2a9d2c00013ddc2a,676192165fb32c2e1fb7aee6,67d1942156cd6e1dbd59ca6a,2025-03-12_15h03.49.050,Tarea de decisión léxica,2024.2.5,Win32,144.9275362,,,,,,,,,,,,,,,,,,,,,,,500.1998,501.6576,l,1,0.7991,,0.7991,1,501.6577,502.1577,,,,,,460,MAS,NOWORD,DIS,150,fraco,,la,,,502.1577,502.1578,0.221296353,-0.052777778,0,0,0,,0,196,196,459,1,grado,,,,
,,,,,,5bf01b3e2a9d2c00013ddc2a,676192165fb32c2e1fb7aee6,67d1942156cd6e1dbd59ca6a,2025-03-12_15h03.49.050,Tarea de decisión léxica,2024.2.5,Win32,144.9275362,,,,,,,,,,,,,,,,,,,,,,,502.1582,503.1929,l,1,0.382,,0.382,1,503.193,503.6925,,,,,,274,FEM,NOWORD,AGR,150,frosa,,la,,,503.6925,503.6926,0.221296353,-0.052777778,0,0,0,,0,197,197,273,1,broma,,,,
,,,,,,5bf01b3e2a9d2c00013ddc2a,676192165fb32c2e1fb7aee6,67d1942156cd6e1dbd59ca6a,2025-03-12_15h03.49.050,Tarea de decisión léxica,2024.2.5,Win32,144.9275362,,,,,,,,,,,,,,,,,,,,,,,503.6931,504.7554,l,1,0.4078,,0.4078,1,504.7554,505.2554,,,,,,288,FEM,NOWORD,DIS,150,fosta,,el,,,505.2554,505.2554,0.221296353,-0.052777778,0,0,0,,0,198,198,287,1,lista,,,,
,,,,,,5bf01b3e2a9d2c00013ddc2a,676192165fb32c2e1fb7aee6,67d1942156cd6e1dbd59ca6a,2025-03-12_15h03.49.050,Tarea de decisión léxica,2024.2.5,Win32,144.9275362,,,,,,,,,,,,,,,,,,,,,,,505.2559,506.1997,l,1,0.289,,0.289,1,506.1998,506.6999,,,,,,46,FEM,NOWORD,AGR,150,pema,,la,,,506.7003,506.7006,0.221296353,-0.052777778,0,0,0,,0,199,199,45,1,mesa,,,,
,,,,,,5bf01b3e2a9d2c00013ddc2a,676192165fb32c2e1fb7aee6,67d1942156cd6e1dbd59ca6a,2025-03-12_15h03.49.050,Tarea de decisión léxica,2024.2.5,Win32,144.9275362,,,,,,,,,,,,,,,,,,,,,,,506.7009,507.7624,a,1,0.4043,,0.4043,1,507.7625,508.2624,,,,,,77,MAS,WORD,DIS,150,loco,,la,,,508.2625,508.2625,0.221296353,-0.052777778,0,0,0,,0,200,200,76,1,fodo,,,,
,,,,,,5bf01b3e2a9d2c00013ddc2a,676192165fb32c2e1fb7aee6,67d1942156cd6e1dbd59ca6a,2025-03-12_15h03.49.050,Tarea de decisión léxica,2024.2.5,Win32,144.9275362,,,,,,,,,,,,,,,,,,,,,,,508.2631,509.3252,l,1,0.4058,,0.4058,1,509.3252,509.8252,,,,,,418,FEM,NOWORD,AGR,150,banja,,la,,,509.8252,509.8252,0.221296353,-0.052777778,0,0,0,,0,201,201,417,1,barba,,,,
,,,,,,5bf01b3e2a9d2c00013ddc2a,676192165fb32c2e1fb7aee6,67d1942156cd6e1dbd59ca6a,2025-03-12_15h03.49.050,Tarea de decisión léxica,2024.2.5,Win32,144.9275362,,,,,,,,,,,,,,,,,,,,,,,509.8256,510.8808,l,1,0.4002,,0.4002,1,510.8808,511.3807,,,,,,4,FEM,NOWORD,DIS,150,dica,,el,,,511.3807,511.3807,0.221296353,-0.052777778,0,0,0,,0,202,202,3,1,vida,,,,
,,,,,,5bf01b3e2a9d2c00013ddc2a,676192165fb32c2e1fb7aee6,67d1942156cd6e1dbd59ca6a,2025-03-12_15h03.49.050,Tarea de decisión léxica,2024.2.5,Win32,144.9275362,,,,,,,,,,,,,,,,,,,,,,,511.3812,512.4295,l,1,0.3925,,0.3925,1,512.4296,512.9296,,,,,,34,FEM,NOWORD,AGR,150,loda,,la,,,512.9302,512.9305,0.221296353,-0.052777778,0,0,0,,0,203,203,33,1,boca,,,,
,,,,,,5bf01b3e2a9d2c00013ddc2a,676192165fb32c2e1fb7aee6,67d1942156cd6e1dbd59ca6a,2025-03-12_15h03.49.050,Tarea de decisión léxica,2024.2.5,Win32,144.9275362,,,,,,,,,,,,,,,,,,,,,,,512.9308,513.9722,l,1,0.389,,0.389,1,513.9722,514.4715,,,,,,320,MAS,NOWORD,DIS,150,tuero,,la,,,514.4715,514.4715,0.221296353,-0.052777778,0,0,0,,0,204,204,319,1,suelo,,,,
,,,,,,5bf01b3e2a9d2c00013ddc2a,676192165fb32c2e1fb7aee6,67d1942156cd6e1dbd59ca6a,2025-03-12_15h03.49.050,Tarea de decisión léxica,2024.2.5,Win32,144.9275362,,,,,,,,,,,,,,,,,,,,,,,514.472,515.8674,l,1,0.7368,,0.7368,1,515.8675,516.3676,,,,,,96,FEM,NOWORD,DIS,151,neda,,el,,,516.3676,516.3676,0.221296353,-0.052777778,0,0,0,,0,205,205,95,1,moda,,,,
,,,,,,5bf01b3e2a9d2c00013ddc2a,676192165fb32c2e1fb7aee6,67d1942156cd6e1dbd59ca6a,2025-03-12_15h03.49.050,Tarea de decisión léxica,2024.2.5,Win32,144.9275362,,,,,,,,,,,,,,,,,,,,,,,516.368,517.3677,l,1,0.3429,,0.3429,1,517.3677,517.8677,,,,,,346,FEM,NOWORD,AGR,150,anera,,la,,,517.8677,517.8677,0.221296353,-0.052777778,0,0,0,,0,206,206,345,1,arena,,,,
,,,,,,5bf01b3e2a9d2c00013ddc2a,676192165fb32c2e1fb7aee6,67d1942156cd6e1dbd59ca6a,2025-03-12_15h03.49.050,Tarea de decisión léxica,2024.2.5,Win32,144.9275362,,,,,,,,,,,,,,,,,,,,,,,517.8682,518.8954,l,1,0.3726,,0.3726,1,518.8955,519.3955,,,,,,458,MAS,NOWORD,AGR,150,glaco,,el,,,519.3955,519.3955,0.221296353,-0.052777778,0,0,0,,0,207,207,457,1,plato,,,,
,,,,,,5bf01b3e2a9d2c00013ddc2a,676192165fb32c2e1fb7aee6,67d1942156cd6e1dbd59ca6a,2025-03-12_15h03.49.050,Tarea de decisión léxica,2024.2.5,Win32,144.9275362,,,,,,,,,,,,,,,,,,,,,,,519.396,520.4587,a,1,0.4097,,0.4097,1,520.4587,520.9582,,,,,,55,MAS,WORD,AGR,150,gato,,el,,,520.9586,520.9589,0.221296353,-0.052777778,0,0,0,,0,208,208,54,1,jado,,,,
,,,,,,5bf01b3e2a9d2c00013ddc2a,676192165fb32c2e1fb7aee6,67d1942156cd6e1dbd59ca6a,2025-03-12_15h03.49.050,Tarea de decisión léxica,2024.2.5,Win32,144.9275362,,,,,,,,,,,,,,,,,,,,,,,520.9593,522.0209,a,1,0.4072,,0.4072,1,522.0209,522.5209,,,,,,439,FEM,WORD,AGR,150,presa,,la,,,522.5209,522.5209,0.221296353,-0.052777778,0,0,0,,0,209,209,438,1,prema,,,,
,,,,,,5bf01b3e2a9d2c00013ddc2a,676192165fb32c2e1fb7aee6,67d1942156cd6e1dbd59ca6a,2025-03-12_15h03.49.050,Tarea de decisión léxica,2024.2.5,Win32,144.9275362,,,,,,,,,,,,,,,,,,,,,,,522.5213,523.4793,a,1,0.3024,,0.3024,1,523.4794,523.9793,,,,,,471,FEM,WORD,AGR,150,grasa,,la,,,523.9793,523.9793,0.221296353,-0.052777778,0,0,0,,0,210,210,470,1,prana,,,,
,,,,,,5bf01b3e2a9d2c00013ddc2a,676192165fb32c2e1fb7aee6,67d1942156cd6e1dbd59ca6a,2025-03-12_15h03.49.050,Tarea de decisión léxica,2024.2.5,Win32,144.9275362,,,,,,,,,,,,,,,,,,,,,,,523.9797,525.0978,l,1,0.4589,,0.4589,1,525.0979,525.5977,,,,,,240,MAS,NOWORD,DIS,150,poño,,la,,,525.5978,525.5978,0.221296353,-0.052777778,0,0,0,,0,211,211,239,1,mozo,,,,
,,,,,,5bf01b3e2a9d2c00013ddc2a,676192165fb32c2e1fb7aee6,67d1942156cd6e1dbd59ca6a,2025-03-12_15h03.49.050,Tarea de decisión léxica,2024.2.5,Win32,144.9275362,,,,,,,,,,,,,,,,,,,,,,,525.5982,526.6187,l,1,0.3667,,0.3667,1,526.6187,527.1187,,,,,,310,FEM,NOWORD,AGR,150,tirra,,la,,,527.1187,527.1188,0.221296353,-0.052777778,0,0,0,,0,212,212,309,1,silla,,,,
,,,,,,5bf01b3e2a9d2c00013ddc2a,676192165fb32c2e1fb7aee6,67d1942156cd6e1dbd59ca6a,2025-03-12_15h03.49.050,Tarea de decisión léxica,2024.2.5,Win32,144.9275362,,,,,,,,,,,,,,,,,,,,,,,527.1192,528.2229,a,1,0.4449,,0.4449,1,528.2229,528.723,,,,,,1,FEM,WORD,DIS,150,casa,,el,,,528.7233,528.7236,0.221296353,-0.052777778,0,0,0,,0,213,213,0,1,mada,,,,
,,,,,,5bf01b3e2a9d2c00013ddc2a,676192165fb32c2e1fb7aee6,67d1942156cd6e1dbd59ca6a,2025-03-12_15h03.49.050,Tarea de decisión léxica,2024.2.5,Win32,144.9275362,,,,,,,,,,,,,,,,,,,,,,,528.7239,530.1678,l,1,0.7853,,0.7853,1,530.1679,530.6677,,,,,,250,FEM,NOWORD,AGR,150,plane,,la,,,530.6677,530.6678,0.221296353,-0.052777778,0,0,0,,0,214,214,249,1,clase,,,,
,,,,,,5bf01b3e2a9d2c00013ddc2a,676192165fb32c2e1fb7aee6,67d1942156cd6e1dbd59ca6a,2025-03-12_15h03.49.050,Tarea de decisión léxica,2024.2.5,Win32,144.9275362,,,,,,,,,,,,,,,,,,,,,,,530.6682,531.7509,l,1,0.4239,,0.4239,1,531.7509,532.2507,,,,,,362,FEM,NOWORD,AGR,150,solle,,la,,,532.2507,532.2508,0.221296353,-0.052777778,0,0,0,,0,215,215,361,1,torre,,,,
,,,,,,5bf01b3e2a9d2c00013ddc2a,676192165fb32c2e1fb7aee6,67d1942156cd6e1dbd59ca6a,2025-03-12_15h03.49.050,Tarea de decisión léxica,2024.2.5,Win32,144.9275362,,,,,,,,,,,,,,,,,,,,,,,532.2513,533.2031,l,0,0.2984,,0.2984,0,533.2034,533.7026,,,,,,363,FEM,WORD,DIS,150,deuda,,el,,,533.7026,533.7027,0.221296353,-0.052777778,0,0,0,,0,216,216,362,1,veida,,,,
,,,,,,5bf01b3e2a9d2c00013ddc2a,676192165fb32c2e1fb7aee6,67d1942156cd6e1dbd59ca6a,2025-03-12_15h03.49.050,Tarea de decisión léxica,2024.2.5,Win32,144.9275362,,,,,,,,,,,,,,,,,,,,,,,533.7031,534.793,l,1,0.4317,,0.4317,1,534.7933,535.2931,,,,,,356,FEM,NOWORD,DIS,150,bepla,,el,,,535.2932,535.2932,0.221296353,-0.052777778,0,0,0,,0,217,217,355,1,regla,,,,
,,,,,,5bf01b3e2a9d2c00013ddc2a,676192165fb32c2e1fb7aee6,67d1942156cd6e1dbd59ca6a,2025-03-12_15h03.49.050,Tarea de decisión léxica,2024.2.5,Win32,144.9275362,,,,,,,,,,,,,,,,,,,,,,,535.2935,536.3211,l,0,0.3705,,0.3705,0,536.3213,536.821,,,,,,159,MAS,WORD,AGR,150,giro,,el,,,536.8214,536.8217,0.221296353,-0.052777778,0,0,0,,0,218,218,158,1,bilo,,,,
,,,,,,5bf01b3e2a9d2c00013ddc2a,676192165fb32c2e1fb7aee6,67d1942156cd6e1dbd59ca6a,2025-03-12_15h03.49.050,Tarea de decisión léxica,2024.2.5,Win32,144.9275362,,,,,,,,,,,,,,,,,,,,,,,536.822,538.3351,l,1,0.8604,,0.8604,1,538.3354,538.8351,,,,,,58,MAS,NOWORD,AGR,150,heco,,el,,,538.8351,538.8352,0.221296353,-0.052777778,0,0,0,,0,219,219,57,1,dedo,,,,
,,,,,,5bf01b3e2a9d2c00013ddc2a,676192165fb32c2e1fb7aee6,67d1942156cd6e1dbd59ca6a,2025-03-12_15h03.49.050,Tarea de decisión léxica,2024.2.5,Win32,144.9275362,,,,,,,,,,,,,,,,,,,,,,,538.8355,539.9602,l,1,0.4691,,0.4691,1,539.9602,540.46,,,,,,24,FEM,NOWORD,DIS,150,giva,,el,,,540.46,540.4601,0.221296353,-0.052777778,0,0,0,,0,220,220,23,1,hija,,,,
,,,,,,5bf01b3e2a9d2c00013ddc2a,676192165fb32c2e1fb7aee6,67d1942156cd6e1dbd59ca6a,2025-03-12_15h03.49.050,Tarea de decisión léxica,2024.2.5,Win32,144.9275362,,,,,,,,,,,,,,,,,,,,,,,540.4605,541.4812,a,1,0.3619,,0.3619,1,541.4813,541.9812,,,,,,475,FEM,WORD,AGR,150,manta,,la,,,541.9812,541.9812,0.221296353,-0.052777778,0,0,0,,0,221,221,474,1,mucta,,,,
,,,,,,5bf01b3e2a9d2c00013ddc2a,676192165fb32c2e1fb7aee6,67d1942156cd6e1dbd59ca6a,2025-03-12_15h03.49.050,Tarea de decisión léxica,2024.2.5,Win32,144.9275362,,,,,,,,,,,,,,,,,,,,,,,541.9817,543.0091,a,1,0.3701,,0.3701,1,543.0091,543.5091,,,,,,111,MAS,WORD,AGR,150,muro,,el,,,543.5091,543.5092,0.221296353,-0.052777778,0,0,0,,0,222,222,110,1,siro,,,,
,,,,,,5bf01b3e2a9d2c00013ddc2a,676192165fb32c2e1fb7aee6,67d1942156cd6e1dbd59ca6a,2025-03-12_15h03.49.050,Tarea de decisión léxica,2024.2.5,Win32,144.9275362,,,,,,,,,,,,,,,,,,,,,,,543.5095,544.4954,a,1,0.3281,,0.3281,1,544.4954,544.9954,,,,,,313,MAS,WORD,AGR,150,novio,,el,,,544.9959,544.9961,0.221296353,-0.052777778,0,0,0,,0,223,223,312,1,govio,,,,
,,,,,,5bf01b3e2a9d2c00013ddc2a,676192165fb32c2e1fb7aee6,67d1942156cd6e1dbd59ca6a,2025-03-12_15h03.49.050,Tarea de decisión léxica,2024.2.5,Win32,144.9275362,,,,,,,,,,,,,,,,,,,,,,,544.9963,546.1136,l,1,0.464,,0.464,1,546.1136,546.6135,,,,,,316,FEM,NOWORD,DIS,150,riosa,,el,,,546.6136,546.6136,0.221296353,-0.052777778,0,0,0,,0,224,224,315,1,reina,,,,
,,,,,,5bf01b3e2a9d2c00013ddc2a,676192165fb32c2e1fb7aee6,67d1942156cd6e1dbd59ca6a,2025-03-12_15h03.49.050,Tarea de decisión léxica,2024.2.5,Win32,144.9275362,,,,,,,,,,,,,,,,,,,,,,,546.614,547.711,a,1,0.4377,,0.4377,1,547.711,548.2111,,,,,,5,FEM,WORD,DIS,150,cosa,,el,,,548.2111,548.2111,0.221296353,-0.052777778,0,0,0,,0,225,225,4,1,poga,,,,
,,,,,,5bf01b3e2a9d2c00013ddc2a,676192165fb32c2e1fb7aee6,67d1942156cd6e1dbd59ca6a,2025-03-12_15h03.49.050,Tarea de decisión léxica,2024.2.5,Win32,144.9275362,,,,,,,,,,,,,,,,,,,,,,,548.2115,549.1903,a,1,0.3238,,0.3238,1,549.1903,549.6901,,,,,,79,FEM,WORD,DIS,150,piel,,el,,,549.6901,549.6901,0.221296353,-0.052777778,0,0,0,,0,226,226,78,1,ciel,,,,
,,,,,,5bf01b3e2a9d2c00013ddc2a,676192165fb32c2e1fb7aee6,67d1942156cd6e1dbd59ca6a,2025-03-12_15h03.49.050,Tarea de decisión léxica,2024.2.5,Win32,144.9275362,,,,,,,,,,,,,,,,,,,,,,,549.6906,550.7251,l,1,0.381,,0.381,1,550.7251,551.2253,,,,,,454,FEM,NOWORD,AGR,150,pafia,,la,,,551.2257,551.226,0.221296353,-0.052777778,0,0,0,,0,227,227,453,1,mafia,,,,
,,,,,,5bf01b3e2a9d2c00013ddc2a,676192165fb32c2e1fb7aee6,67d1942156cd6e1dbd59ca6a,2025-03-12_15h03.49.050,Tarea de decisión léxica,2024.2.5,Win32,144.9275362,,,,,,,,,,,,,,,,,,,,,,,551.2263,552.3433,a,1,0.4641,,0.4641,1,552.3434,552.8435,,,,,,63,FEM,WORD,DIS,150,luna,,el,,,552.8435,552.8435,0.221296353,-0.052777778,0,0,0,,0,228,228,62,1,funa,,,,
,,,,,,5bf01b3e2a9d2c00013ddc2a,676192165fb32c2e1fb7aee6,67d1942156cd6e1dbd59ca6a,2025-03-12_15h03.49.050,Tarea de decisión léxica,2024.2.5,Win32,144.9275362,,,,,,,,,,,,,,,,,,,,,,,552.844,553.8997,l,1,0.4029,,0.4029,1,553.8997,554.3992,,,,,,212,FEM,NOWORD,DIS,150,joad,,el,,,554.3992,554.3993,0.221296353,-0.052777778,0,0,0,,0,229,229,211,1,joya,,,,
,,,,,,5bf01b3e2a9d2c00013ddc2a,676192165fb32c2e1fb7aee6,67d1942156cd6e1dbd59ca6a,2025-03-12_15h03.49.050,Tarea de decisión léxica,2024.2.5,Win32,144.9275362,,,,,,,,,,,,,,,,,,,,,,,554.3997,555.379,l,1,0.3264,,0.3264,1,555.3791,555.8785,,,,,,122,MAS,NOWORD,AGR,150,bomo,,el,,,555.8785,555.8785,0.221296353,-0.052777778,0,0,0,,0,230,230,121,1,hoyo,,,,
,,,,,,5bf01b3e2a9d2c00013ddc2a,676192165fb32c2e1fb7aee6,67d1942156cd6e1dbd59ca6a,2025-03-12_15h03.49.050,Tarea de decisión léxica,2024.2.5,Win32,144.9275362,,,,,,,,,,,,,,,,,,,,,,,555.879,556.8508,a,1,0.3179,,0.3179,1,556.8508,557.3507,,,,,,407,FEM,WORD,AGR,150,cueva,,la,,,557.3507,557.3508,0.221296353,-0.052777778,0,0,0,,0,231,231,406,1,cauba,,,,
,,,,,,5bf01b3e2a9d2c00013ddc2a,676192165fb32c2e1fb7aee6,67d1942156cd6e1dbd59ca6a,2025-03-12_15h03.49.050,Tarea de decisión léxica,2024.2.5,Win32,144.9275362,,,,,,,,,,,,,,,,,,,,,,,557.3512,558.4482,l,1,0.4424,,0.4424,1,558.4482,558.9484,,,,,,262,MAS,NOWORD,AGR,150,titio,,el,,,558.9488,558.949,0.221296353,-0.052777778,0,0,0,,0,232,232,261,1,sitio,,,,
,,,,,,5bf01b3e2a9d2c00013ddc2a,676192165fb32c2e1fb7aee6,67d1942156cd6e1dbd59ca6a,2025-03-12_15h03.49.050,Tarea de decisión léxica,2024.2.5,Win32,144.9275362,,,,,,,,,,,,,,,,,,,,,,,558.9493,559.9484,l,1,0.344,,0.344,1,559.9484,560.4484,,,,,,332,MAS,NOWORD,DIS,150,erato,,la,,,560.4484,560.4485,0.221296353,-0.052777778,0,0,0,,0,233,233,331,1,éxito,,,,
,,,,,,5bf01b3e2a9d2c00013ddc2a,676192165fb32c2e1fb7aee6,67d1942156cd6e1dbd59ca6a,2025-03-12_15h03.49.050,Tarea de decisión léxica,2024.2.5,Win32,144.9275362,,,,,,,,,,,,,,,,,,,,,,,560.449,561.6152,a,1,0.5106,,0.5106,1,561.6153,562.1152,,,,,,291,FEM,WORD,AGR,150,pista,,la,,,562.1152,562.1152,0.221296353,-0.052777778,0,0,0,,0,234,234,290,1,mesta,,,,
,,,,,,5bf01b3e2a9d2c00013ddc2a,676192165fb32c2e1fb7aee6,67d1942156cd6e1dbd59ca6a,2025-03-12_15h03.49.050,Tarea de decisión léxica,2024.2.5,Win32,144.9275362,,,,,,,,,,,,,,,,,,,,,,,562.1159,563.1432,l,1,0.3729,,0.3729,1,563.1432,563.6432,,,,,,208,MAS,NOWORD,DIS,150,kedo,,la,,,563.6432,563.6433,0.221296353,-0.052777778,0,0,0,,0,235,235,207,1,kilo,,,,
,,,,,,5bf01b3e2a9d2c00013ddc2a,676192165fb32c2e1fb7aee6,67d1942156cd6e1dbd59ca6a,2025-03-12_15h03.49.050,Tarea de decisión léxica,2024.2.5,Win32,144.9275362,,,,,,,,,,,,,,,,,,,,,,,563.6437,564.7892,a,1,0.4919,,0.4919,1,564.7892,565.2892,,,,,,51,FEM,WORD,DIS,150,caja,,el,,,565.2892,565.2893,0.221296353,-0.052777778,0,0,0,,0,236,236,50,1,mava,,,,
,,,,,,5bf01b3e2a9d2c00013ddc2a,676192165fb32c2e1fb7aee6,67d1942156cd6e1dbd59ca6a,2025-03-12_15h03.49.050,Tarea de decisión léxica,2024.2.5,Win32,144.9275362,,,,,,,,,,,,,,,,,,,,,,,565.2897,566.6295,l,0,0.6839,,0.6839,0,566.6299,567.1297,,,,,,139,MAS,WORD,DIS,150,mago,,la,,,567.1301,567.1304,0.221296353,-0.052777778,0,0,0,,0,237,237,138,1,nila,,,,
,,,,,,5bf01b3e2a9d2c00013ddc2a,676192165fb32c2e1fb7aee6,67d1942156cd6e1dbd59ca6a,2025-03-12_15h03.49.050,Tarea de decisión léxica,2024.2.5,Win32,144.9275362,,,,,,,,,,,,,,,,,,,,,,,567.1306,568.3937,l,1,0.6067,,0.6067,1,568.3941,568.8937,,,,,,302,FEM,NOWORD,AGR,150,ranga,,la,,,568.8937,568.8937,0.221296353,-0.052777778,0,0,0,,0,238,238,301,1,banda,,,,
,,,,,,5bf01b3e2a9d2c00013ddc2a,676192165fb32c2e1fb7aee6,67d1942156cd6e1dbd59ca6a,2025-03-12_15h03.49.050,Tarea de decisión léxica,2024.2.5,Win32,144.9275362,,,,,,,,,,,,,,,,,,,,,,,568.8942,569.9425,l,1,0.3914,,0.3914,1,569.9425,570.4425,,,,,,114,FEM,NOWORD,AGR,150,tada,,la,,,570.4425,570.4425,0.221296353,-0.052777778,0,0,0,,0,239,239,113,1,miel,,,,
,,,,,,5bf01b3e2a9d2c00013ddc2a,676192165fb32c2e1fb7aee6,67d1942156cd6e1dbd59ca6a,2025-03-12_15h03.49.050,Tarea de decisión léxica,2024.2.5,Win32,144.9275362,,,,,,,,,,,,,,,,,,,,,,,570.443,571.6507,l,1,0.5497,,0.5497,1,571.6508,572.151,,,,,,406,FEM,NOWORD,AGR,150,rarra,,la,,,572.151,572.1511,0.221296353,-0.052777778,0,0,0,,0,240,240,405,1,barra,,,,
,,,,,,5bf01b3e2a9d2c00013ddc2a,676192165fb32c2e1fb7aee6,67d1942156cd6e1dbd59ca6a,2025-03-12_15h03.49.050,Tarea de decisión léxica,2024.2.5,Win32,144.9275362,,,,,,,,,,,,,,,,,,,,,,,572.1516,573.2001,a,1,0.3956,,0.3956,1,573.2001,573.6996,,,,,,317,FEM,WORD,DIS,150,playa,,el,,,573.6996,573.6996,0.221296353,-0.052777778,0,0,0,,0,241,241,316,1,plaad,,,,
,,,,,,5bf01b3e2a9d2c00013ddc2a,676192165fb32c2e1fb7aee6,67d1942156cd6e1dbd59ca6a,2025-03-12_15h03.49.050,Tarea de decisión léxica,2024.2.5,Win32,144.9275362,,,,,,,,,,,,,,,,,,,,,,,573.7,574.7971,l,1,0.4414,,0.4414,1,574.7971,575.2974,,,,,,232,FEM,NOWORD,DIS,150,heta,,el,,,575.2978,575.2981,0.221296353,-0.052777778,0,0,0,,0,242,242,231,1,bota,,,,
,,,,,,5bf01b3e2a9d2c00013ddc2a,676192165fb32c2e1fb7aee6,67d1942156cd6e1dbd59ca6a,2025-03-12_15h03.49.050,Tarea de decisión léxica,2024.2.5,Win32,144.9275362,,,,,,,,,,,,,,,,,,,,,,,575.2984,576.3667,l,1,0.4153,,0.4153,1,576.3668,576.8667,,,,,,254,MAS,NOWORD,AGR,150,trido,,el,,,576.8667,576.8667,0.221296353,-0.052777778,0,0,0,,0,243,243,253,1,chico,,,,
,,,,,,5bf01b3e2a9d2c00013ddc2a,676192165fb32c2e1fb7aee6,67d1942156cd6e1dbd59ca6a,2025-03-12_15h03.49.050,Tarea de decisión léxica,2024.2.5,Win32,144.9275362,,,,,,,,,,,,,,,,,,,,,,,576.8672,577.9711,a,1,0.4483,,0.4483,1,577.9712,578.4711,,,,,,365,FEM,WORD,AGR,150,ducha,,la,,,578.4711,578.4712,0.221296353,-0.052777778,0,0,0,,0,244,244,364,1,gulla,,,,
,,,,,,5bf01b3e2a9d2c00013ddc2a,676192165fb32c2e1fb7aee6,67d1942156cd6e1dbd59ca6a,2025-03-12_15h03.49.050,Tarea de decisión léxica,2024.2.5,Win32,144.9275362,,,,,,,,,,,,,,,,,,,,,,,578.4716,579.4989,a,1,0.369,,0.369,1,579.4989,579.9988,,,,,,11,MAS,WORD,DIS,150,lado,,la,,,579.9989,579.9989,0.221296353,-0.052777778,0,0,0,,0,245,245,10,1,bapo,,,,
,,,,,,5bf01b3e2a9d2c00013ddc2a,676192165fb32c2e1fb7aee6,67d1942156cd6e1dbd59ca6a,2025-03-12_15h03.49.050,Tarea de decisión léxica,2024.2.5,Win32,144.9275362,,,,,,,,,,,,,,,,,,,,,,,579.9993,581.0893,l,1,0.4364,,0.4364,1,581.0894,581.5895,,,,,,430,FEM,NOWORD,AGR,150,tenta,,la,,,581.5895,581.5895,0.221296353,-0.052777778,0,0,0,,0,246,246,429,1,tarta,,,,
,,,,,,5bf01b3e2a9d2c00013ddc2a,676192165fb32c2e1fb7aee6,67d1942156cd6e1dbd59ca6a,2025-03-12_15h03.49.050,Tarea de decisión léxica,2024.2.5,Win32,144.9275362,,,,,,,,,,,,,,,,,,,,,,,581.5899,582.5759,l,1,0.3329,,0.3329,1,582.5759,583.0757,,,,,,358,FEM,NOWORD,AGR,150,gruba,,la,,,583.0761,583.0764,0.221296353,-0.052777778,0,0,0,,0,247,247,357,1,bruja,,,,
,,,,,,5bf01b3e2a9d2c00013ddc2a,676192165fb32c2e1fb7aee6,67d1942156cd6e1dbd59ca6a,2025-03-12_15h03.49.050,Tarea de decisión léxica,2024.2.5,Win32,144.9275362,,,,,,,,,,,,,,,,,,,,,,,583.0766,584.0272,l,1,0.2947,,0.2947,1,584.0273,584.5272,,,,,,364,FEM,NOWORD,DIS,150,veida,,el,,,584.5272,584.5272,0.221296353,-0.052777778,0,0,0,,0,248,248,363,1,deuda,,,,
,,,,,,5bf01b3e2a9d2c00013ddc2a,676192165fb32c2e1fb7aee6,67d1942156cd6e1dbd59ca6a,2025-03-12_15h03.49.050,Tarea de decisión léxica,2024.2.5,Win32,144.9275362,,,,,,,,,,,,,,,,,,,,,,,584.5277,585.6384,a,1,0.4559,,0.4559,1,585.6385,586.1386,,,,,,71,FEM,WORD,AGR,150,isla,,la,,,586.1386,586.1386,0.221296353,-0.052777778,0,0,0,,0,249,249,70,1,urla,,,,
,,,,,,5bf01b3e2a9d2c00013ddc2a,676192165fb32c2e1fb7aee6,67d1942156cd6e1dbd59ca6a,2025-03-12_15h03.49.050,Tarea de decisión léxica,2024.2.5,Win32,144.9275362,,,,,,,,,,,,,,,,,,,,,,,586.139,587.2428,a,1,0.4446,,0.4446,1,587.2429,587.7429,,,,,,323,FEM,WORD,AGR,150,cinta,,la,,,587.7429,587.7429,0.221296353,-0.052777778,0,0,0,,0,250,250,322,1,certa,,,,
,,,,,,5bf01b3e2a9d2c00013ddc2a,676192165fb32c2e1fb7aee6,67d1942156cd6e1dbd59ca6a,2025-03-12_15h03.49.050,Tarea de decisión léxica,2024.2.5,Win32,144.9275362,,,,,,,,,,,,,,,,,,,,,,,587.7434,588.7777,l,1,0.3793,,0.3793,1,588.7777,589.2777,,,,,,18,FEM,NOWORD,AGR,150,paba,,la,,,589.2781,589.2783,0.221296353,-0.052777778,0,0,0,,0,251,251,17,1,mamá,,,,
,,,,,,5bf01b3e2a9d2c00013ddc2a,676192165fb32c2e1fb7aee6,67d1942156cd6e1dbd59ca6a,2025-03-12_15h03.49.050,Tarea de decisión léxica,2024.2.5,Win32,144.9275362,,,,,,,,,,,,,,,,,,,,,,,589.2786,590.2986,l,1,0.3647,,0.3647,1,590.2986,590.7988,,,,,,28,MAS,NOWORD,DIS,150,ravo,,la,,,590.7988,590.7988,0.221296353,-0.052777778,0,0,0,,0,252,252,27,1,baño,,,,
,,,,,,5bf01b3e2a9d2c00013ddc2a,676192165fb32c2e1fb7aee6,67d1942156cd6e1dbd59ca6a,2025-03-12_15h03.49.050,Tarea de decisión léxica,2024.2.5,Win32,144.9275362,,,,,,,,,,,,,,,,,,,,,,,590.7992,591.8337,a,1,0.3807,,0.3807,1,591.8337,592.3335,,,,,,371,FEM,WORD,DIS,150,pasta,,el,,,592.3336,592.3336,0.221296353,-0.052777778,0,0,0,,0,253,253,370,1,mosta,,,,
,,,,,,5bf01b3e2a9d2c00013ddc2a,676192165fb32c2e1fb7aee6,67d1942156cd6e1dbd59ca6a,2025-03-12_15h03.49.050,Tarea de decisión léxica,2024.2.5,Win32,144.9275362,,,,,,,,,,,,,,,,,,,,,,,592.3339,593.3404,a,1,0.3505,,0.3505,1,593.3404,593.8407,,,,,,173,FEM,WORD,AGR,150,rosa,,la,,,593.8408,593.8408,0.221296353,-0.052777778,0,0,0,,0,254,254,172,1,boma,,,,
,,,,,,5bf01b3e2a9d2c00013ddc2a,676192165fb32c2e1fb7aee6,67d1942156cd6e1dbd59ca6a,2025-03-12_15h03.49.050,Tarea de decisión léxica,2024.2.5,Win32,144.9275362,,,,,,,,,,,,,,,,,,,,,,,593.8412,594.938,l,1,0.4396,,0.4396,1,594.938,595.438,,,,,,470,MAS,NOWORD,AGR,150,matia,,el,,,595.4381,595.4381,0.221296353,-0.052777778,0,0,0,,0,255,255,469,1,patio,,,,
,,,,,,5bf01b3e2a9d2c00013ddc2a,676192165fb32c2e1fb7aee6,67d1942156cd6e1dbd59ca6a,2025-03-12_15h03.49.050,Tarea de decisión léxica,2024.2.5,Win32,144.9275362,,,,,,,,,,,,,,,,,,,,,,,595.4385,596.5006,a,1,0.4053,,0.4053,1,596.5006,597.0007,,,,,,249,FEM,WORD,DIS,150,clase,,el,,,597.0011,597.0015,0.221296353,-0.052777778,0,0,0,,0,256,256,248,1,plane,,,,
,,,,,,5bf01b3e2a9d2c00013ddc2a,676192165fb32c2e1fb7aee6,67d1942156cd6e1dbd59ca6a,2025-03-12_15h03.49.050,Tarea de decisión léxica,2024.2.5,Win32,144.9275362,,,,,,,,,,,,,,,,,,,,,,,597.0017,598.0564,a,1,0.3996,,0.3996,1,598.0565,598.5567,,,,,,109,MAS,WORD,DIS,150,rayo,,la,,,598.5568,598.5568,0.221296353,-0.052777778,0,0,0,,0,257,257,108,1,suno,,,,
,,,,,,5bf01b3e2a9d2c00013ddc2a,676192165fb32c2e1fb7aee6,67d1942156cd6e1dbd59ca6a,2025-03-12_15h03.49.050,Tarea de decisión léxica,2024.2.5,Win32,144.9275362,,,,,,,,,,,,,,,,,,,,,,,598.5572,599.8621,a,1,0.6499,,0.6499,1,599.8621,600.3621,,,,,,385,FEM,WORD,DIS,150,letra,,el,,,600.3621,600.3621,0.221296353,-0.052777778,0,0,0,,0,258,258,384,1,febra,,,,
,,,,,,5bf01b3e2a9d2c00013ddc2a,676192165fb32c2e1fb7aee6,67d1942156cd6e1dbd59ca6a,2025-03-12_15h03.49.050,Tarea de decisión léxica,2024.2.5,Win32,144.9275362,,,,,,,,,,,,,,,,,,,,,,,600.3624,601.4177,l,1,0.3982,,0.3982,1,601.4177,601.9179,,,,,,92,FEM,NOWORD,DIS,150,sava,,el,,,601.9179,601.918,0.221296353,-0.052777778,0,0,0,,0,259,259,91,1,taza,,,,
,,,,,,5bf01b3e2a9d2c00013ddc2a,676192165fb32c2e1fb7aee6,67d1942156cd6e1dbd59ca6a,2025-03-12_15h03.49.050,Tarea de decisión léxica,2024.2.5,Win32,144.9275362,,,,,,,,,,,,,,,,,,,,,,,601.9183,602.9319,l,1,0.3553,,0.3553,1,602.932,603.4318,,,,,,314,MAS,NOWORD,AGR,150,govio,,el,,,603.4318,603.4318,0.221296353,-0.052777778,0,0,0,,0,260,260,313,1,novio,,,,
,,,,,,5bf01b3e2a9d2c00013ddc2a,676192165fb32c2e1fb7aee6,67d1942156cd6e1dbd59ca6a,2025-03-12_15h03.49.050,Tarea de decisión léxica,2024.2.5,Win32,144.9275362,,,,,,,,,,,,,,,,,,,,,,,603.4323,604.4252,l,1,0.3375,,0.3375,1,604.4252,604.9251,,,,,,16,FEM,NOWORD,DIS,150,odea,,el,,,604.9255,604.9258,0.221296353,-0.052777778,0,0,0,,0,261,261,15,1,idea,,,,
,,,,,,5bf01b3e2a9d2c00013ddc2a,676192165fb32c2e1fb7aee6,67d1942156cd6e1dbd59ca6a,2025-03-12_15h03.49.050,Tarea de decisión léxica,2024.2.5,Win32,144.9275362,,,,,,,,,,,,,,,,,,,,,,,604.9262,605.9113,l,1,0.3289,,0.3289,1,605.9113,606.4115,,,,,,394,FEM,NOWORD,AGR,150,ashea,,la,,,606.4115,606.4115,0.221296353,-0.052777778,0,0,0,,0,262,262,393,1,aldea,,,,
