counterbalancing_condition,consent_prescreening.block_1/declare_consent,consent_prescreening.block_1/age_years,consent_prescreening.block_1/gender,consent_prescreening.block_1/language_disorder,consent_prescreening.block_1/first_language,PROLIFIC_PID,STUDY_ID,SESSION_ID,date,expName,psychopyVersion,OS,frameRate,check_prescreening_answers.started,check_prescreening_answers.stopped,Instructions.started,Instructions.stopped,instr_done_keyboard.keys,instr_done_touch.x,instr_done_touch.y,instr_done_touch.leftButton,instr_done_touch.midButton,instr_done_touch.rightButton,instr_done_touch.clicked_name,instruction_pages.thisRepN,instruction_pages.thisTrialN,instruction_pages.thisN,instruction_pages.thisIndex,instruction_pages.ran,pageN,phase,instruct_text,has_image,instruct_image,instr_done_keyboard.rt,instr_done_keyboard.duration,presentTrial.started,presentTrial.stopped,response.keys,response.corr,rt,corr,feedback.started,feedback.stopped,practice_trials.thisRepN,practice_trials.thisTrialN,practice_trials.thisN,practice_trials.thisIndex,practice_trials.ran,TrialID,Gender,StimulusType,Condition,PrimeDuration,Prime,len,Flanker,corrAns,response.rt,response.duration,Break.started,Break.stopped,break_done_touch.x,break_done_touch.y,break_done_touch.leftButton,break_done_touch.midButton,break_done_touch.rightButton,break_done_keyboard.keys,experiment_trials.thisRepN,experiment_trials.thisTrialN,experiment_trials.thisN,experiment_trials.thisIndex,experiment_trials.ran,PairedWith,break_done_touch.clicked_name,break_done_keyboard.rt,break_done_keyboard.duration,End.started,End.stopped
0,"[""over_18"",""comfortable"",""read_info"",""consent_given""]",19,M,"[""none""]","[""spanish""]",5c90617326e3ed00019896a5,676192165fb32c2e1fb7aee6,67d0b23f22823a223eec8ad2,2025-03-11_16h02.25.167,Tarea de decisión léxica,2024.2.5,Win32,59.52380952,,,,,,,,,,,,,,,,,,,,,,,,,,,,,,,,,,,,,,,,,,,,,,,,,,,,,,,,,,,,,,,,,,
,,,,,,5c90617326e3ed00019896a5,676192165fb32c2e1fb7aee6,67d0b23f22823a223eec8ad2,2025-03-11_16h02.25.167,Tarea de decisión léxica,2024.2.5,Win32,59.52380952,175.4651,175.4652,,,,,,,,,,,,,,,,,,,,,,,,,,,,,,,,,,,,,,,,,,,,,,,,,,,,,,,,,,,,,,,,
,,,,,,5c90617326e3ed00019896a5,676192165fb32c2e1fb7aee6,67d0b23f22823a223eec8ad2,2025-03-11_16h02.25.167,Tarea de decisión léxica,2024.2.5,Win32,59.52380952,,,175.5089,265.887,,-0.0390625,-0.38671875,1,0,0,instr_done_button,0,0,0,0,1,1,instructions,"INSTRUCCIONES
Va a realizar una prueba de decisión léxica. Desde el comienzo de la prueba mire siempre al centro de la pantalla. Se presentará una serie de cadenas de letras, una a la vez, en la pantalla. Su tarea consiste en determinar si cada cadena de letras constituye una palabra real en español o una no-palabra (una secuencia de letras que no constituye una palabra real). 

Pulse la tecla ESPACIO para continuar.",0,keyboardresponseWN.png,,,,,,,,,,,,,,,,,,,,,,,,,,,,,,,,,,,,,,,,,,,,,
,,,,,,5c90617326e3ed00019896a5,676192165fb32c2e1fb7aee6,67d0b23f22823a223eec8ad2,2025-03-11_16h02.25.167,Tarea de decisión léxica,2024.2.5,Win32,59.52380952,,,265.8903,372.7098,,-0.046875,-0.37890625,1,0,0,instr_done_button,0,1,1,1,1,2,instructions,"El procedimiento es el siguiente: Aparecerán dos barras verticales posicionadas en el centro de la pantalla, separadas por un pequeño espacio.Por favor, enfoque su atención en el espacio entre las barras. Esto preparará sus ojos para la siguiente cadena de letras, que aparecerá entre las dos barras durante un instante.

Pulse la tecla ESPACIO para continuar.",0,keyboardresponseNW.png,,,,,,,,,,,,,,,,,,,,,,,,,,,,,,,,,,,,,,,,,,,,,
,,,,,,5c90617326e3ed00019896a5,676192165fb32c2e1fb7aee6,67d0b23f22823a223eec8ad2,2025-03-11_16h02.25.167,Tarea de decisión léxica,2024.2.5,Win32,59.52380952,,,372.7274,506.0325,space,-0.270833333,0.032552083,0,0,0,,0,2,2,2,1,3,instructions,"En el teclado de su dispositivo, pulse la tecla ""A"" si la cadena de letras es una palabra real en español (por ejemplo: ""mano"") y la tecla ""L"" si la cadena de letras es una no-palabra (por ejemplo: ""minu"").
Pulse la tecla ESPACIO para continuar.",1,keyboardresponseWN.png,133.0734,,,,,,,,,,,,,,,,,,,,,,,,,,,,,,,,,,,,,,,,,,,,
,,,,,,5c90617326e3ed00019896a5,676192165fb32c2e1fb7aee6,67d0b23f22823a223eec8ad2,2025-03-11_16h02.25.167,Tarea de decisión léxica,2024.2.5,Win32,59.52380952,,,506.0374,639.003,,-0.015625,-0.377604167,1,0,0,instr_done_button,0,3,3,3,1,4,instructions,"Es muy importante que responda con la mayor rapidez y precisión posibles. Si no responde dentro de 2 segundos, aparecerá el mensaje ""Muy lento"" y el experimento pasará a la siguiente palabra. Inmediatamente después de su respuesta se indicará si fue correcta o no. Los primeros 15 intentos serán de práctica y habrá dos descansos durante la prueba.

Pulse la tecla ESPACIO  para iniciar la parte de práctica.",0,keyboardresponseWN.png,,,,,,,,,,,,,,,,,,,,,,,,,,,,,,,,,,,,,,,,,,,,,
,,,,,,5c90617326e3ed00019896a5,676192165fb32c2e1fb7aee6,67d0b23f22823a223eec8ad2,2025-03-11_16h02.25.167,Tarea de decisión léxica,2024.2.5,Win32,59.52380952,,,,,,,,,,,,,,,,,,,,,,,,639.0338,641.6882,,0,,-1,641.6898,642.1796,0,0,0,4,1,1005,MAS,NOWORD,DIS,150,nobad,5,la,a,,,,,,,,,,,,,,,,,,,,,
,,,,,,5c90617326e3ed00019896a5,676192165fb32c2e1fb7aee6,67d0b23f22823a223eec8ad2,2025-03-11_16h02.25.167,Tarea de decisión léxica,2024.2.5,Win32,59.52380952,,,,,,,,,,,,,,,,,,,,,,,,642.1811,644.829,,0,,-1,644.8297,645.3289,0,1,1,3,1,1004,FEM,NOWORD,AGR,150,bireo,5,la,a,,,,,,,,,,,,,,,,,,,,,
,,,,,,5c90617326e3ed00019896a5,676192165fb32c2e1fb7aee6,67d0b23f22823a223eec8ad2,2025-03-11_16h02.25.167,Tarea de decisión léxica,2024.2.5,Win32,59.52380952,,,,,,,,,,,,,,,,,,,,,,,,645.3308,646.7459,a,1,0.7275,1,646.8142,647.2458,0,2,2,9,1,1010,MAS,WORD,DIS,150,video,5,la,l,0.7275,,,,,,,,,,,,,,,,,,,,
,,,,,,5c90617326e3ed00019896a5,676192165fb32c2e1fb7aee6,67d0b23f22823a223eec8ad2,2025-03-11_16h02.25.167,Tarea de decisión léxica,2024.2.5,Win32,59.52380952,,,,,,,,,,,,,,,,,,,,,,,,647.25,648.6608,l,1,0.7206,1,648.6612,649.162,0,3,3,1,1,1002,FEM,NOWORD,DIS,150,mabo,4,el,a,0.7206,,,,,,,,,,,,,,,,,,,,
,,,,,,5c90617326e3ed00019896a5,676192165fb32c2e1fb7aee6,67d0b23f22823a223eec8ad2,2025-03-11_16h02.25.167,Tarea de decisión léxica,2024.2.5,Win32,59.52380952,,,,,,,,,,,,,,,,,,,,,,,,649.1639,650.3789,a,1,0.5306,1,650.3791,650.8714,0,4,4,6,1,1007,MAS,WORD,DIS,150,masa,4,la,l,0.5306,,,,,,,,,,,,,,,,,,,,
,,,,,,5c90617326e3ed00019896a5,676192165fb32c2e1fb7aee6,67d0b23f22823a223eec8ad2,2025-03-11_16h02.25.167,Tarea de decisión léxica,2024.2.5,Win32,59.52380952,,,,,,,,,,,,,,,,,,,,,,,,650.8727,652.1112,l,0,0.5674,0,652.1149,652.6112,0,5,5,7,1,1008,MAS,WORD,DIS,150,frío,4,la,l,0.5674,,,,,,,,,,,,,,,,,,,,
,,,,,,5c90617326e3ed00019896a5,676192165fb32c2e1fb7aee6,67d0b23f22823a223eec8ad2,2025-03-11_16h02.25.167,Tarea de decisión léxica,2024.2.5,Win32,59.52380952,,,,,,,,,,,,,,,,,,,,,,,,652.6154,653.9444,l,1,0.6491,1,653.947,654.4447,0,6,6,0,1,1001,FEM,NOWORD,AGR,150,croz,4,la,a,0.6491,,,,,,,,,,,,,,,,,,,,
,,,,,,5c90617326e3ed00019896a5,676192165fb32c2e1fb7aee6,67d0b23f22823a223eec8ad2,2025-03-11_16h02.25.167,Tarea de decisión léxica,2024.2.5,Win32,59.52380952,,,,,,,,,,,,,,,,,,,,,,,,654.4488,655.6278,a,1,0.5002,1,655.6279,656.1279,0,7,7,8,1,1009,FEM,WORD,AGR,150,viejo,5,la,l,0.5002,,,,,,,,,,,,,,,,,,,,
,,,,,,5c90617326e3ed00019896a5,676192165fb32c2e1fb7aee6,67d0b23f22823a223eec8ad2,2025-03-11_16h02.25.167,Tarea de decisión léxica,2024.2.5,Win32,59.52380952,,,,,,,,,,,,,,,,,,,,,,,,656.1299,657.3445,a,1,0.5339,1,657.3447,657.8451,0,8,8,5,1,1006,FEM,WORD,AGR,150,cara,4,la,l,0.5339,,,,,,,,,,,,,,,,,,,,
,,,,,,5c90617326e3ed00019896a5,676192165fb32c2e1fb7aee6,67d0b23f22823a223eec8ad2,2025-03-11_16h02.25.167,Tarea de decisión léxica,2024.2.5,Win32,59.52380952,,,,,,,,,,,,,,,,,,,,,,,,657.8488,659.1446,l,1,0.6182,1,659.1446,659.645,0,9,9,2,1,1003,FEM,NOWORD,DIS,150,muvor,5,el,a,0.6182,,,,,,,,,,,,,,,,,,,,
,,,,,,5c90617326e3ed00019896a5,676192165fb32c2e1fb7aee6,67d0b23f22823a223eec8ad2,2025-03-11_16h02.25.167,Tarea de decisión léxica,2024.2.5,Win32,59.52380952,,,750.7398,778.1389,space,-0.083333333,-0.084635417,0,0,0,,,,,,,,,,,,27.3705,,778.1875,779.3551,a,1,0.4946,1,779.3554,779.8544,,,,,,47,MAS,WORD,AGR,150,club,,el,,0.4946,,779.8553,779.8742,-0.083333333,-0.084635417,0,0,0,,0,0,0,46,1,chub,,,,,
,,,,,,5c90617326e3ed00019896a5,676192165fb32c2e1fb7aee6,67d0b23f22823a223eec8ad2,2025-03-11_16h02.25.167,Tarea de decisión léxica,2024.2.5,Win32,59.52380952,,,,,,,,,,,,,,,,,,,,,,,,779.8754,781.0204,a,1,0.4704,1,781.0206,781.5205,,,,,,135,MAS,WORD,AGR,150,tubo,,el,,0.4704,,781.5207,781.5208,-0.083333333,-0.084635417,0,0,0,,0,1,1,134,1,geso,,,,,
,,,,,,5c90617326e3ed00019896a5,676192165fb32c2e1fb7aee6,67d0b23f22823a223eec8ad2,2025-03-11_16h02.25.167,Tarea de decisión léxica,2024.2.5,Win32,59.52380952,,,,,,,,,,,,,,,,,,,,,,,,781.5223,782.7038,a,1,0.5024,1,782.7039,783.2039,,,,,,199,MAS,WORD,DIS,150,lazo,,la,,0.5024,,783.2072,783.2087,-0.083333333,-0.084635417,0,0,0,,0,2,2,198,1,fano,,,,,
,,,,,,5c90617326e3ed00019896a5,676192165fb32c2e1fb7aee6,67d0b23f22823a223eec8ad2,2025-03-11_16h02.25.167,Tarea de decisión léxica,2024.2.5,Win32,59.52380952,,,,,,,,,,,,,,,,,,,,,,,,783.2095,784.4873,l,1,0.6015,1,784.4875,784.9874,,,,,,76,MAS,NOWORD,AGR,150,ocer,,el,,0.6015,,784.9876,784.9878,-0.083333333,-0.084635417,0,0,0,,0,3,3,75,1,olor,,,,,
,,,,,,5c90617326e3ed00019896a5,676192165fb32c2e1fb7aee6,67d0b23f22823a223eec8ad2,2025-03-11_16h02.25.167,Tarea de decisión léxica,2024.2.5,Win32,59.52380952,,,,,,,,,,,,,,,,,,,,,,,,784.9909,786.1879,a,1,0.5196,1,786.188,786.6872,,,,,,105,FEM,WORD,DIS,150,sopa,,el,,0.5196,,786.6872,786.6873,-0.083333333,-0.084635417,0,0,0,,0,4,4,104,1,vina,,,,,
,,,,,,5c90617326e3ed00019896a5,676192165fb32c2e1fb7aee6,67d0b23f22823a223eec8ad2,2025-03-11_16h02.25.167,Tarea de decisión léxica,2024.2.5,Win32,59.52380952,,,,,,,,,,,,,,,,,,,,,,,,786.6896,788.0213,a,0,0.6689,0,788.0245,788.5213,,,,,,352,MAS,NOWORD,AGR,150,duepo,,el,,0.6689,,788.5215,788.5217,-0.083333333,-0.084635417,0,0,0,,0,5,5,351,1,vuelo,,,,,
,,,,,,5c90617326e3ed00019896a5,676192165fb32c2e1fb7aee6,67d0b23f22823a223eec8ad2,2025-03-11_16h02.25.167,Tarea de decisión léxica,2024.2.5,Win32,59.52380952,,,,,,,,,,,,,,,,,,,,,,,,788.5247,789.6546,a,1,0.4558,1,789.6568,790.1545,,,,,,295,MAS,WORD,DIS,150,dolor,,la,,0.4558,,790.1546,790.1548,-0.083333333,-0.084635417,0,0,0,,0,6,6,294,1,goler,,,,,
,,,,,,5c90617326e3ed00019896a5,676192165fb32c2e1fb7aee6,67d0b23f22823a223eec8ad2,2025-03-11_16h02.25.167,Tarea de decisión léxica,2024.2.5,Win32,59.52380952,,,,,,,,,,,,,,,,,,,,,,,,790.1574,791.5211,l,1,0.6844,1,791.5211,792.0215,,,,,,154,MAS,NOWORD,DIS,150,tado,,la,,0.6844,,792.0249,792.0264,-0.083333333,-0.084635417,0,0,0,,0,7,7,153,1,pato,,,,,
,,,,,,5c90617326e3ed00019896a5,676192165fb32c2e1fb7aee6,67d0b23f22823a223eec8ad2,2025-03-11_16h02.25.167,Tarea de decisión léxica,2024.2.5,Win32,59.52380952,,,,,,,,,,,,,,,,,,,,,,,,792.0275,793.1215,a,1,0.4177,1,793.1216,793.6217,,,,,,241,MAS,WORD,AGR,150,mundo,,el,,0.4177,,793.6218,793.6221,-0.083333333,-0.084635417,0,0,0,,0,8,8,240,1,mirdo,,,,,
,,,,,,5c90617326e3ed00019896a5,676192165fb32c2e1fb7aee6,67d0b23f22823a223eec8ad2,2025-03-11_16h02.25.167,Tarea de decisión léxica,2024.2.5,Win32,59.52380952,,,,,,,,,,,,,,,,,,,,,,,,793.6247,794.9885,l,1,0.6866,1,794.9886,795.488,,,,,,350,MAS,NOWORD,DIS,150,cosir,,la,,0.6866,,795.4881,795.4882,-0.083333333,-0.084635417,0,0,0,,0,9,9,349,1,color,,,,,
,,,,,,5c90617326e3ed00019896a5,676192165fb32c2e1fb7aee6,67d0b23f22823a223eec8ad2,2025-03-11_16h02.25.167,Tarea de decisión léxica,2024.2.5,Win32,59.52380952,,,,,,,,,,,,,,,,,,,,,,,,795.4906,796.7881,l,0,0.617,0,796.7886,797.288,,,,,,225,MAS,WORD,DIS,150,lodo,,la,,0.617,,797.2881,797.2882,-0.083333333,-0.084635417,0,0,0,,0,10,10,224,1,boco,,,,,
,,,,,,5c90617326e3ed00019896a5,676192165fb32c2e1fb7aee6,67d0b23f22823a223eec8ad2,2025-03-11_16h02.25.167,Tarea de decisión léxica,2024.2.5,Win32,59.52380952,,,,,,,,,,,,,,,,,,,,,,,,797.2908,798.6555,l,1,0.6916,1,798.6579,799.1552,,,,,,390,MAS,NOWORD,DIS,150,cenco,,la,,0.6916,,799.158,799.1591,-0.083333333,-0.084635417,0,0,0,,0,11,11,389,1,cerdo,,,,,
,,,,,,5c90617326e3ed00019896a5,676192165fb32c2e1fb7aee6,67d0b23f22823a223eec8ad2,2025-03-11_16h02.25.167,Tarea de decisión léxica,2024.2.5,Win32,59.52380952,,,,,,,,,,,,,,,,,,,,,,,,799.1596,800.2382,a,1,0.4009,1,800.2383,800.7388,,,,,,63,FEM,WORD,AGR,150,luna,,la,,0.4009,,800.7389,800.739,-0.083333333,-0.084635417,0,0,0,,0,12,12,62,1,funa,,,,,
,,,,,,5c90617326e3ed00019896a5,676192165fb32c2e1fb7aee6,67d0b23f22823a223eec8ad2,2025-03-11_16h02.25.167,Tarea de decisión léxica,2024.2.5,Win32,59.52380952,,,,,,,,,,,,,,,,,,,,,,,,800.7429,802.3057,a,1,0.8845,1,802.3058,802.8059,,,,,,189,MAS,WORD,DIS,150,puño,,la,,0.8845,,802.8059,802.8062,-0.083333333,-0.084635417,0,0,0,,0,13,13,188,1,muvo,,,,,
,,,,,,5c90617326e3ed00019896a5,676192165fb32c2e1fb7aee6,67d0b23f22823a223eec8ad2,2025-03-11_16h02.25.167,Tarea de decisión léxica,2024.2.5,Win32,59.52380952,,,,,,,,,,,,,,,,,,,,,,,,802.8093,804.0725,l,1,0.5841,1,804.0726,804.5726,,,,,,146,MAS,NOWORD,DIS,150,nobo,,la,,0.5841,,804.5727,804.5729,-0.083333333,-0.084635417,0,0,0,,0,14,14,145,1,león,,,,,
,,,,,,5c90617326e3ed00019896a5,676192165fb32c2e1fb7aee6,67d0b23f22823a223eec8ad2,2025-03-11_16h02.25.167,Tarea de decisión léxica,2024.2.5,Win32,59.52380952,,,,,,,,,,,,,,,,,,,,,,,,804.5763,805.7392,a,0,0.4857,0,805.7409,806.2391,,,,,,136,MAS,NOWORD,AGR,150,geso,,el,,0.4857,,806.2393,806.2394,-0.083333333,-0.084635417,0,0,0,,0,15,15,135,1,tubo,,,,,
,,,,,,5c90617326e3ed00019896a5,676192165fb32c2e1fb7aee6,67d0b23f22823a223eec8ad2,2025-03-11_16h02.25.167,Tarea de decisión léxica,2024.2.5,Win32,59.52380952,,,,,,,,,,,,,,,,,,,,,,,,806.243,807.4392,l,1,0.5186,1,807.4407,807.9387,,,,,,152,MAS,NOWORD,AGR,150,sogo,,el,,0.5186,,807.9408,807.9415,-0.083333333,-0.084635417,0,0,0,,0,16,16,151,1,tomo,,,,,
,,,,,,5c90617326e3ed00019896a5,676192165fb32c2e1fb7aee6,67d0b23f22823a223eec8ad2,2025-03-11_16h02.25.167,Tarea de decisión léxica,2024.2.5,Win32,59.52380952,,,,,,,,,,,,,,,,,,,,,,,,807.9419,809.2226,l,1,0.6052,1,809.2227,809.7223,,,,,,140,MAS,NOWORD,AGR,150,nila,,el,,0.6052,,809.7224,809.7225,-0.083333333,-0.084635417,0,0,0,,0,17,17,139,1,mago,,,,,
,,,,,,5c90617326e3ed00019896a5,676192165fb32c2e1fb7aee6,67d0b23f22823a223eec8ad2,2025-03-11_16h02.25.167,Tarea de decisión léxica,2024.2.5,Win32,59.52380952,,,,,,,,,,,,,,,,,,,,,,,,809.725,810.8729,l,1,0.4694,1,810.8732,811.3728,,,,,,326,FEM,NOWORD,DIS,150,mabia,,el,,0.4694,,811.3729,811.3731,-0.083333333,-0.084635417,0,0,0,,0,18,18,325,1,magia,,,,,
,,,,,,5c90617326e3ed00019896a5,676192165fb32c2e1fb7aee6,67d0b23f22823a223eec8ad2,2025-03-11_16h02.25.167,Tarea de decisión léxica,2024.2.5,Win32,59.52380952,,,,,,,,,,,,,,,,,,,,,,,,811.3758,812.5233,l,1,0.4675,1,812.5236,813.023,,,,,,12,MAS,NOWORD,AGR,150,bapo,,el,,0.4675,,813.023,813.0232,-0.083333333,-0.084635417,0,0,0,,0,19,19,11,1,lado,,,,,
,,,,,,5c90617326e3ed00019896a5,676192165fb32c2e1fb7aee6,67d0b23f22823a223eec8ad2,2025-03-11_16h02.25.167,Tarea de decisión léxica,2024.2.5,Win32,59.52380952,,,,,,,,,,,,,,,,,,,,,,,,813.0261,814.123,l,1,0.4185,1,814.1231,814.6232,,,,,,106,FEM,NOWORD,DIS,150,vina,,el,,0.4185,,814.6233,814.6234,-0.083333333,-0.084635417,0,0,0,,0,20,20,105,1,sopa,,,,,
,,,,,,5c90617326e3ed00019896a5,676192165fb32c2e1fb7aee6,67d0b23f22823a223eec8ad2,2025-03-11_16h02.25.167,Tarea de decisión léxica,2024.2.5,Win32,59.52380952,,,,,,,,,,,,,,,,,,,,,,,,814.6258,815.7229,l,1,0.4224,1,815.7231,816.2235,,,,,,224,FEM,NOWORD,AGR,150,cira,,la,,0.4224,,816.2271,816.2282,-0.083333333,-0.084635417,0,0,0,,0,21,21,223,1,cera,,,,,
,,,,,,5c90617326e3ed00019896a5,676192165fb32c2e1fb7aee6,67d0b23f22823a223eec8ad2,2025-03-11_16h02.25.167,Tarea de decisión léxica,2024.2.5,Win32,59.52380952,,,,,,,,,,,,,,,,,,,,,,,,816.2292,817.3737,a,1,0.4677,1,817.3739,817.8737,,,,,,1,FEM,WORD,AGR,150,casa,,la,,0.4677,,817.8738,817.8741,-0.083333333,-0.084635417,0,0,0,,0,22,22,0,1,mada,,,,,
,,,,,,5c90617326e3ed00019896a5,676192165fb32c2e1fb7aee6,67d0b23f22823a223eec8ad2,2025-03-11_16h02.25.167,Tarea de decisión léxica,2024.2.5,Win32,59.52380952,,,,,,,,,,,,,,,,,,,,,,,,817.8773,819.1402,l,1,0.5836,1,819.1405,819.64,,,,,,94,FEM,NOWORD,DIS,150,rona,,el,,0.5836,,819.6401,819.6403,-0.083333333,-0.084635417,0,0,0,,0,23,23,93,1,bola,,,,,
,,,,,,5c90617326e3ed00019896a5,676192165fb32c2e1fb7aee6,67d0b23f22823a223eec8ad2,2025-03-11_16h02.25.167,Tarea de decisión léxica,2024.2.5,Win32,59.52380952,,,,,,,,,,,,,,,,,,,,,,,,819.6438,820.7396,l,1,0.4229,1,820.7396,821.2399,,,,,,232,FEM,NOWORD,AGR,150,heta,,la,,0.4229,,821.24,821.2401,-0.083333333,-0.084635417,0,0,0,,0,24,24,231,1,bota,,,,,
,,,,,,5c90617326e3ed00019896a5,676192165fb32c2e1fb7aee6,67d0b23f22823a223eec8ad2,2025-03-11_16h02.25.167,Tarea de decisión léxica,2024.2.5,Win32,59.52380952,,,,,,,,,,,,,,,,,,,,,,,,821.2426,822.4068,a,1,0.4823,1,822.4069,822.9065,,,,,,149,MAS,WORD,DIS,150,cabo,,la,,0.4823,,822.9065,822.9066,-0.083333333,-0.084635417,0,0,0,,0,25,25,148,1,pafo,,,,,
,,,,,,5c90617326e3ed00019896a5,676192165fb32c2e1fb7aee6,67d0b23f22823a223eec8ad2,2025-03-11_16h02.25.167,Tarea de decisión léxica,2024.2.5,Win32,59.52380952,,,,,,,,,,,,,,,,,,,,,,,,822.9183,824.1075,a,0,0.5358,0,824.109,824.6068,,,,,,144,MAS,NOWORD,AGR,150,pezo,,el,,0.5358,,824.6084,824.6101,-0.083333333,-0.084635417,0,0,0,,0,26,26,143,1,pavo,,,,,
,,,,,,5c90617326e3ed00019896a5,676192165fb32c2e1fb7aee6,67d0b23f22823a223eec8ad2,2025-03-11_16h02.25.167,Tarea de decisión léxica,2024.2.5,Win32,59.52380952,,,,,,,,,,,,,,,,,,,,,,,,824.611,825.8238,a,1,0.5349,1,825.8251,826.3239,,,,,,71,FEM,WORD,DIS,150,isla,,el,,0.5349,,826.3241,826.3242,-0.083333333,-0.084635417,0,0,0,,0,27,27,70,1,urla,,,,,
,,,,,,5c90617326e3ed00019896a5,676192165fb32c2e1fb7aee6,67d0b23f22823a223eec8ad2,2025-03-11_16h02.25.167,Tarea de decisión léxica,2024.2.5,Win32,59.52380952,,,,,,,,,,,,,,,,,,,,,,,,826.3272,827.4403,l,1,0.4345,1,827.4404,827.9408,,,,,,160,MAS,NOWORD,AGR,150,bilo,,el,,0.4345,,827.941,827.9411,-0.083333333,-0.084635417,0,0,0,,0,28,28,159,1,giro,,,,,
,,,,,,5c90617326e3ed00019896a5,676192165fb32c2e1fb7aee6,67d0b23f22823a223eec8ad2,2025-03-11_16h02.25.167,Tarea de decisión léxica,2024.2.5,Win32,59.52380952,,,,,,,,,,,,,,,,,,,,,,,,827.9441,829.1408,a,1,0.5173,1,829.141,829.6403,,,,,,407,FEM,WORD,DIS,150,cueva,,el,,0.5173,,829.6405,829.6405,-0.083333333,-0.084635417,0,0,0,,0,29,29,406,1,cauba,,,,,
,,,,,,5c90617326e3ed00019896a5,676192165fb32c2e1fb7aee6,67d0b23f22823a223eec8ad2,2025-03-11_16h02.25.167,Tarea de decisión léxica,2024.2.5,Win32,59.52380952,,,,,,,,,,,,,,,,,,,,,,,,829.6426,830.6571,l,1,0.3395,1,830.6572,831.1577,,,,,,6,FEM,NOWORD,DIS,150,poga,,el,,0.3395,,831.1579,831.1581,-0.083333333,-0.084635417,0,0,0,,0,30,30,5,1,cosa,,,,,
,,,,,,5c90617326e3ed00019896a5,676192165fb32c2e1fb7aee6,67d0b23f22823a223eec8ad2,2025-03-11_16h02.25.167,Tarea de decisión léxica,2024.2.5,Win32,59.52380952,,,,,,,,,,,,,,,,,,,,,,,,831.1611,832.3081,l,0,0.4743,0,832.3103,832.8078,,,,,,297,MAS,WORD,AGR,150,grupo,,el,,0.4743,,832.8118,832.813,-0.083333333,-0.084635417,0,0,0,,0,31,31,296,1,brubo,,,,,
,,,,,,5c90617326e3ed00019896a5,676192165fb32c2e1fb7aee6,67d0b23f22823a223eec8ad2,2025-03-11_16h02.25.167,Tarea de decisión léxica,2024.2.5,Win32,59.52380952,,,,,,,,,,,,,,,,,,,,,,,,832.8143,834.1747,a,0,0.6839,0,834.1749,834.6742,,,,,,430,FEM,NOWORD,DIS,150,tenta,,el,,0.6839,,834.6742,834.6744,-0.083333333,-0.084635417,0,0,0,,0,32,32,429,1,tarta,,,,,
,,,,,,5c90617326e3ed00019896a5,676192165fb32c2e1fb7aee6,67d0b23f22823a223eec8ad2,2025-03-11_16h02.25.167,Tarea de decisión léxica,2024.2.5,Win32,59.52380952,,,,,,,,,,,,,,,,,,,,,,,,834.6776,835.9076,l,1,0.569,1,835.9084,836.4083,,,,,,8,MAS,NOWORD,AGR,150,nivo,,el,,0.569,,836.4084,836.4086,-0.083333333,-0.084635417,0,0,0,,0,33,33,7,1,hijo,,,,,
,,,,,,5c90617326e3ed00019896a5,676192165fb32c2e1fb7aee6,67d0b23f22823a223eec8ad2,2025-03-11_16h02.25.167,Tarea de decisión léxica,2024.2.5,Win32,59.52380952,,,,,,,,,,,,,,,,,,,,,,,,836.4114,837.5246,a,0,0.4401,0,837.527,838.0248,,,,,,60,FEM,NOWORD,AGR,150,tafa,,la,,0.4401,,838.0248,838.025,-0.083333333,-0.084635417,0,0,0,,0,34,34,59,1,sala,,,,,
,,,,,,5c90617326e3ed00019896a5,676192165fb32c2e1fb7aee6,67d0b23f22823a223eec8ad2,2025-03-11_16h02.25.167,Tarea de decisión léxica,2024.2.5,Win32,59.52380952,,,,,,,,,,,,,,,,,,,,,,,,838.0268,839.2082,a,0,0.5005,0,839.2084,839.708,,,,,,248,FEM,NOWORD,AGR,150,trida,,la,,0.5005,,839.7116,839.7128,-0.083333333,-0.084635417,0,0,0,,0,35,35,247,1,chica,,,,,
,,,,,,5c90617326e3ed00019896a5,676192165fb32c2e1fb7aee6,67d0b23f22823a223eec8ad2,2025-03-11_16h02.25.167,Tarea de decisión léxica,2024.2.5,Win32,59.52380952,,,,,,,,,,,,,,,,,,,,,,,,839.714,840.7918,a,1,0.4028,1,840.7933,841.2919,,,,,,341,MAS,WORD,DIS,150,valor,,la,,0.4028,,841.2921,841.2922,-0.083333333,-0.084635417,0,0,0,,0,36,36,340,1,daror,,,,,
,,,,,,5c90617326e3ed00019896a5,676192165fb32c2e1fb7aee6,67d0b23f22823a223eec8ad2,2025-03-11_16h02.25.167,Tarea de decisión léxica,2024.2.5,Win32,59.52380952,,,,,,,,,,,,,,,,,,,,,,,,841.295,842.6085,a,1,0.6341,1,842.6088,843.1085,,,,,,471,FEM,WORD,DIS,150,grasa,,el,,0.6341,,843.1085,843.1087,-0.083333333,-0.084635417,0,0,0,,0,37,37,470,1,prana,,,,,
,,,,,,5c90617326e3ed00019896a5,676192165fb32c2e1fb7aee6,67d0b23f22823a223eec8ad2,2025-03-11_16h02.25.167,Tarea de decisión léxica,2024.2.5,Win32,59.52380952,,,,,,,,,,,,,,,,,,,,,,,,843.1118,844.2417,l,1,0.4514,1,844.2419,844.7421,,,,,,44,FEM,NOWORD,AGR,150,meda,,la,,0.4514,,844.7423,844.7424,-0.083333333,-0.084635417,0,0,0,,0,38,38,43,1,pena,,,,,
,,,,,,5c90617326e3ed00019896a5,676192165fb32c2e1fb7aee6,67d0b23f22823a223eec8ad2,2025-03-11_16h02.25.167,Tarea de decisión léxica,2024.2.5,Win32,59.52380952,,,,,,,,,,,,,,,,,,,,,,,,844.746,845.9416,l,0,0.5156,0,845.9424,846.4423,,,,,,463,FEM,WORD,DIS,150,cabra,,el,,0.5156,,846.4425,846.4426,-0.083333333,-0.084635417,0,0,0,,0,39,39,462,1,matla,,,,,
,,,,,,5c90617326e3ed00019896a5,676192165fb32c2e1fb7aee6,67d0b23f22823a223eec8ad2,2025-03-11_16h02.25.167,Tarea de decisión léxica,2024.2.5,Win32,59.52380952,,,,,,,,,,,,,,,,,,,,,,,,846.4457,847.5759,a,1,0.4507,1,847.5783,848.0758,,,,,,431,MAS,WORD,DIS,150,motor,,la,,0.4507,,848.0794,848.0805,-0.083333333,-0.084635417,0,0,0,,0,40,40,430,1,tetor,,,,,
,,,,,,5c90617326e3ed00019896a5,676192165fb32c2e1fb7aee6,67d0b23f22823a223eec8ad2,2025-03-11_16h02.25.167,Tarea de decisión léxica,2024.2.5,Win32,59.52380952,,,,,,,,,,,,,,,,,,,,,,,,848.0817,849.392,l,1,0.6345,1,849.3922,849.8922,,,,,,16,FEM,NOWORD,AGR,150,odea,,la,,0.6345,,849.8923,849.8924,-0.083333333,-0.084635417,0,0,0,,0,41,41,15,1,idea,,,,,
,,,,,,5c90617326e3ed00019896a5,676192165fb32c2e1fb7aee6,67d0b23f22823a223eec8ad2,2025-03-11_16h02.25.167,Tarea de decisión léxica,2024.2.5,Win32,59.52380952,,,,,,,,,,,,,,,,,,,,,,,,849.8949,852.5428,,0,0.6345,-1,852.5448,853.0423,,,,,,290,FEM,NOWORD,DIS,150,bumpa,,el,,,,853.0424,853.0426,-0.083333333,-0.084635417,0,0,0,,0,42,42,289,1,bomba,,,,,
,,,,,,5c90617326e3ed00019896a5,676192165fb32c2e1fb7aee6,67d0b23f22823a223eec8ad2,2025-03-11_16h02.25.167,Tarea de decisión léxica,2024.2.5,Win32,59.52380952,,,,,,,,,,,,,,,,,,,,,,,,853.0453,854.0922,a,1,0.3692,1,854.0929,854.593,,,,,,441,FEM,WORD,AGR,150,selva,,la,,0.3692,,854.5931,854.5932,-0.083333333,-0.084635417,0,0,0,,0,43,43,440,1,telza,,,,,
,,,,,,5c90617326e3ed00019896a5,676192165fb32c2e1fb7aee6,67d0b23f22823a223eec8ad2,2025-03-11_16h02.25.167,Tarea de decisión léxica,2024.2.5,Win32,59.52380952,,,,,,,,,,,,,,,,,,,,,,,,854.5964,855.7094,l,1,0.4338,1,855.7096,856.2089,,,,,,88,MAS,NOWORD,AGR,150,damo,,el,,0.4338,,856.209,856.209,-0.083333333,-0.084635417,0,0,0,,0,44,44,87,1,vaso,,,,,
,,,,,,5c90617326e3ed00019896a5,676192165fb32c2e1fb7aee6,67d0b23f22823a223eec8ad2,2025-03-11_16h02.25.167,Tarea de decisión léxica,2024.2.5,Win32,59.52380952,,,,,,,,,,,,,,,,,,,,,,,,856.2104,857.3598,l,1,0.4829,1,857.36,857.8599,,,,,,240,MAS,NOWORD,AGR,150,poño,,el,,0.4829,,857.8632,857.8644,-0.083333333,-0.084635417,0,0,0,,0,45,45,239,1,mozo,,,,,
,,,,,,5c90617326e3ed00019896a5,676192165fb32c2e1fb7aee6,67d0b23f22823a223eec8ad2,2025-03-11_16h02.25.167,Tarea de decisión léxica,2024.2.5,Win32,59.52380952,,,,,,,,,,,,,,,,,,,,,,,,857.8655,859.0934,l,1,0.551,1,859.0937,859.5932,,,,,,84,FEM,NOWORD,AGR,150,taga,,la,,0.551,,859.5934,859.5936,-0.083333333,-0.084635417,0,0,0,,0,46,46,83,1,bala,,,,,
,,,,,,5c90617326e3ed00019896a5,676192165fb32c2e1fb7aee6,67d0b23f22823a223eec8ad2,2025-03-11_16h02.25.167,Tarea de decisión léxica,2024.2.5,Win32,59.52380952,,,,,,,,,,,,,,,,,,,,,,,,859.5969,860.7426,l,1,0.4667,1,860.7426,861.2434,,,,,,46,FEM,NOWORD,DIS,150,pema,,el,,0.4667,,861.2435,861.2436,-0.083333333,-0.084635417,0,0,0,,0,47,47,45,1,mesa,,,,,
,,,,,,5c90617326e3ed00019896a5,676192165fb32c2e1fb7aee6,67d0b23f22823a223eec8ad2,2025-03-11_16h02.25.167,Tarea de decisión léxica,2024.2.5,Win32,59.52380952,,,,,,,,,,,,,,,,,,,,,,,,861.2466,862.1931,l,0,0.2722,0,862.1943,862.6932,,,,,,179,MAS,WORD,AGR,150,toro,,el,,0.2722,,862.6933,862.6935,-0.083333333,-0.084635417,0,0,0,,0,48,48,178,1,sono,,,,,
,,,,,,5c90617326e3ed00019896a5,676192165fb32c2e1fb7aee6,67d0b23f22823a223eec8ad2,2025-03-11_16h02.25.167,Tarea de decisión léxica,2024.2.5,Win32,59.52380952,,,,,,,,,,,,,,,,,,,,,,,,862.6971,863.8102,l,1,0.4359,1,863.812,864.3099,,,,,,274,FEM,NOWORD,DIS,150,frosa,,el,,0.4359,,864.31,864.3102,-0.083333333,-0.084635417,0,0,0,,0,49,49,273,1,broma,,,,,
,,,,,,5c90617326e3ed00019896a5,676192165fb32c2e1fb7aee6,67d0b23f22823a223eec8ad2,2025-03-11_16h02.25.167,Tarea de decisión léxica,2024.2.5,Win32,59.52380952,,,,,,,,,,,,,,,,,,,,,,,,864.3128,865.3933,l,1,0.4008,1,865.3934,865.8931,,,,,,466,FEM,NOWORD,DIS,150,asuba,,el,,0.4008,,865.8955,865.8964,-0.083333333,-0.084635417,0,0,0,,0,50,50,465,1,aguja,,,,,
,,,,,,5c90617326e3ed00019896a5,676192165fb32c2e1fb7aee6,67d0b23f22823a223eec8ad2,2025-03-11_16h02.25.167,Tarea de decisión léxica,2024.2.5,Win32,59.52380952,,,,,,,,,,,,,,,,,,,,,,,,865.897,867.0771,l,1,0.5007,1,867.0773,867.577,,,,,,68,FEM,NOWORD,AGR,150,gesa,,la,,0.5007,,867.5772,867.5774,-0.083333333,-0.084635417,0,0,0,,0,51,51,67,1,nena,,,,,
,,,,,,5c90617326e3ed00019896a5,676192165fb32c2e1fb7aee6,67d0b23f22823a223eec8ad2,2025-03-11_16h02.25.167,Tarea de decisión léxica,2024.2.5,Win32,59.52380952,,,,,,,,,,,,,,,,,,,,,,,,867.5799,868.7265,l,1,0.4674,1,868.7267,869.2268,,,,,,246,FEM,NOWORD,DIS,150,pafle,,el,,0.4674,,869.2269,869.227,-0.083333333,-0.084635417,0,0,0,,0,52,52,245,1,madre,,,,,
,,,,,,5c90617326e3ed00019896a5,676192165fb32c2e1fb7aee6,67d0b23f22823a223eec8ad2,2025-03-11_16h02.25.167,Tarea de decisión léxica,2024.2.5,Win32,59.52380952,,,,,,,,,,,,,,,,,,,,,,,,869.2294,870.26,l,1,0.3542,1,870.2601,870.7602,,,,,,318,FEM,NOWORD,DIS,150,plaad,,el,,0.3542,,870.7603,870.7603,-0.083333333,-0.084635417,0,0,0,,0,53,53,317,1,playa,,,,,
,,,,,,5c90617326e3ed00019896a5,676192165fb32c2e1fb7aee6,67d0b23f22823a223eec8ad2,2025-03-11_16h02.25.167,Tarea de decisión léxica,2024.2.5,Win32,59.52380952,,,,,,,,,,,,,,,,,,,,,,,,870.7625,871.9773,a,1,0.5506,1,871.9775,872.477,,,,,,9,MAS,WORD,DIS,150,tipo,,la,,0.5506,,872.4771,872.4772,-0.083333333,-0.084635417,0,0,0,,0,54,54,8,1,sibo,,,,,
,,,,,,5c90617326e3ed00019896a5,676192165fb32c2e1fb7aee6,67d0b23f22823a223eec8ad2,2025-03-11_16h02.25.167,Tarea de decisión léxica,2024.2.5,Win32,59.52380952,,,,,,,,,,,,,,,,,,,,,,,,872.4801,873.5941,a,1,0.4364,1,873.5943,874.0938,,,,,,465,FEM,WORD,AGR,150,aguja,,la,,0.4364,,874.0961,874.0965,-0.083333333,-0.084635417,0,0,0,,0,55,55,464,1,asuba,,,,,
,,,,,,5c90617326e3ed00019896a5,676192165fb32c2e1fb7aee6,67d0b23f22823a223eec8ad2,2025-03-11_16h02.25.167,Tarea de decisión léxica,2024.2.5,Win32,59.52380952,,,,,,,,,,,,,,,,,,,,,,,,874.0969,875.2939,l,1,0.517,1,875.294,875.7943,,,,,,354,FEM,NOWORD,DIS,150,cezca,,el,,0.517,,875.7945,875.7945,-0.083333333,-0.084635417,0,0,0,,0,56,56,353,1,celda,,,,,
,,,,,,5c90617326e3ed00019896a5,676192165fb32c2e1fb7aee6,67d0b23f22823a223eec8ad2,2025-03-11_16h02.25.167,Tarea de decisión léxica,2024.2.5,Win32,59.52380952,,,,,,,,,,,,,,,,,,,,,,,,875.7974,877.2274,l,1,0.7525,1,877.2277,877.7279,,,,,,222,FEM,NOWORD,DIS,150,puca,,el,,0.7525,,877.7279,877.7281,-0.083333333,-0.084635417,0,0,0,,0,57,57,221,1,mula,,,,,
,,,,,,5c90617326e3ed00019896a5,676192165fb32c2e1fb7aee6,67d0b23f22823a223eec8ad2,2025-03-11_16h02.25.167,Tarea de decisión léxica,2024.2.5,Win32,59.52380952,,,,,,,,,,,,,,,,,,,,,,,,877.731,878.8613,l,0,0.4503,0,878.8629,879.3612,,,,,,103,FEM,WORD,AGR,150,ruta,,la,,0.4503,,879.3613,879.3614,-0.083333333,-0.084635417,0,0,0,,0,58,58,102,1,rova,,,,,
,,,,,,5c90617326e3ed00019896a5,676192165fb32c2e1fb7aee6,67d0b23f22823a223eec8ad2,2025-03-11_16h02.25.167,Tarea de decisión léxica,2024.2.5,Win32,59.52380952,,,,,,,,,,,,,,,,,,,,,,,,879.3644,880.5113,a,1,0.4676,1,880.5125,881.0108,,,,,,459,MAS,WORD,DIS,150,grado,,la,,0.4676,,881.0129,881.0142,-0.083333333,-0.084635417,0,0,0,,0,59,59,458,1,fraco,,,,,
,,,,,,5c90617326e3ed00019896a5,676192165fb32c2e1fb7aee6,67d0b23f22823a223eec8ad2,2025-03-11_16h02.25.167,Tarea de decisión léxica,2024.2.5,Win32,59.52380952,,,,,,,,,,,,,,,,,,,,,,,,881.0147,882.1278,l,1,0.4371,1,882.1279,882.6282,,,,,,356,FEM,NOWORD,AGR,150,bepla,,la,,0.4371,,882.6283,882.6285,-0.083333333,-0.084635417,0,0,0,,0,60,60,355,1,regla,,,,,
,,,,,,5c90617326e3ed00019896a5,676192165fb32c2e1fb7aee6,67d0b23f22823a223eec8ad2,2025-03-11_16h02.25.167,Tarea de decisión léxica,2024.2.5,Win32,59.52380952,,,,,,,,,,,,,,,,,,,,,,,,882.6311,883.7283,l,1,0.4167,1,883.7284,884.2281,,,,,,312,MAS,NOWORD,AGR,150,nosor,,el,,0.4167,,884.2282,884.2283,-0.083333333,-0.084635417,0,0,0,,0,61,61,311,1,honor,,,,,
,,,,,,5c90617326e3ed00019896a5,676192165fb32c2e1fb7aee6,67d0b23f22823a223eec8ad2,2025-03-11_16h02.25.167,Tarea de decisión léxica,2024.2.5,Win32,59.52380952,,,,,,,,,,,,,,,,,,,,,,,,884.2306,885.2783,l,1,0.3689,1,885.2785,885.7779,,,,,,254,MAS,NOWORD,DIS,150,trido,,la,,0.3689,,885.7779,885.778,-0.083333333,-0.084635417,0,0,0,,0,62,62,253,1,chico,,,,,
,,,,,,5c90617326e3ed00019896a5,676192165fb32c2e1fb7aee6,67d0b23f22823a223eec8ad2,2025-03-11_16h02.25.167,Tarea de decisión léxica,2024.2.5,Win32,59.52380952,,,,,,,,,,,,,,,,,,,,,,,,885.7799,886.8282,l,1,0.3854,1,886.8284,887.3281,,,,,,256,MAS,NOWORD,AGR,150,mauco,,el,,0.3854,,887.3283,887.3285,-0.083333333,-0.084635417,0,0,0,,0,63,63,255,1,miedo,,,,,
,,,,,,5c90617326e3ed00019896a5,676192165fb32c2e1fb7aee6,67d0b23f22823a223eec8ad2,2025-03-11_16h02.25.167,Tarea de decisión léxica,2024.2.5,Win32,59.52380952,,,,,,,,,,,,,,,,,,,,,,,,887.3313,888.4951,l,0,0.4846,0,888.4963,888.995,,,,,,345,FEM,WORD,AGR,150,arena,,la,,0.4846,,888.9982,888.9994,-0.083333333,-0.084635417,0,0,0,,0,64,64,344,1,anera,,,,,
,,,,,,5c90617326e3ed00019896a5,676192165fb32c2e1fb7aee6,67d0b23f22823a223eec8ad2,2025-03-11_16h02.25.167,Tarea de decisión léxica,2024.2.5,Win32,59.52380952,,,,,,,,,,,,,,,,,,,,,,,,889.0005,890.0119,a,1,0.3347,1,890.0132,890.5118,,,,,,271,FEM,WORD,AGR,150,señal,,la,,0.3347,,890.5118,890.512,-0.083333333,-0.084635417,0,0,0,,0,65,65,270,1,refal,,,,,
,,,,,,5c90617326e3ed00019896a5,676192165fb32c2e1fb7aee6,67d0b23f22823a223eec8ad2,2025-03-11_16h02.25.167,Tarea de decisión léxica,2024.2.5,Win32,59.52380952,,,,,,,,,,,,,,,,,,,,,,,,890.5144,891.6956,a,1,0.5007,1,891.6958,892.1956,,,,,,49,FEM,WORD,DIS,150,edad,,el,,0.5007,,892.1958,892.196,-0.083333333,-0.084635417,0,0,0,,0,66,66,48,1,ecat,,,,,
,,,,,,5c90617326e3ed00019896a5,676192165fb32c2e1fb7aee6,67d0b23f22823a223eec8ad2,2025-03-11_16h02.25.167,Tarea de decisión léxica,2024.2.5,Win32,59.52380952,,,,,,,,,,,,,,,,,,,,,,,,892.1992,893.262,a,1,0.3849,1,893.2623,893.7625,,,,,,479,MAS,WORD,DIS,150,rumbo,,la,,0.3849,,893.7626,893.7628,-0.083333333,-0.084635417,0,0,0,,0,67,67,478,1,rimpo,,,,,
,,,,,,5c90617326e3ed00019896a5,676192165fb32c2e1fb7aee6,67d0b23f22823a223eec8ad2,2025-03-11_16h02.25.167,Tarea de decisión léxica,2024.2.5,Win32,59.52380952,,,,,,,,,,,,,,,,,,,,,,,,893.7659,894.9293,a,0,0.485,0,894.9311,895.4287,,,,,,180,MAS,NOWORD,AGR,150,sono,,el,,0.485,,895.4288,895.4289,-0.083333333,-0.084635417,0,0,0,,0,68,68,179,1,toro,,,,,
,,,,,,5c90617326e3ed00019896a5,676192165fb32c2e1fb7aee6,67d0b23f22823a223eec8ad2,2025-03-11_16h02.25.167,Tarea de decisión léxica,2024.2.5,Win32,59.52380952,,,,,,,,,,,,,,,,,,,,,,,,895.4317,896.5121,l,1,0.4056,1,896.5132,897.0125,,,,,,348,FEM,NOWORD,AGR,150,mueza,,la,,0.4056,,897.0163,897.0175,-0.083333333,-0.084635417,0,0,0,,0,69,69,347,1,pieza,,,,,
,,,,,,5c90617326e3ed00019896a5,676192165fb32c2e1fb7aee6,67d0b23f22823a223eec8ad2,2025-03-11_16h02.25.167,Tarea de decisión léxica,2024.2.5,Win32,59.52380952,,,,,,,,,,,,,,,,,,,,,,,,897.0187,898.1121,l,1,0.4207,1,898.1122,898.6127,,,,,,422,MAS,NOWORD,DIS,150,griso,,la,,0.4207,,898.6129,898.6131,-0.083333333,-0.084635417,0,0,0,,0,70,70,421,1,primo,,,,,
,,,,,,5c90617326e3ed00019896a5,676192165fb32c2e1fb7aee6,67d0b23f22823a223eec8ad2,2025-03-11_16h02.25.167,Tarea de decisión léxica,2024.2.5,Win32,59.52380952,,,,,,,,,,,,,,,,,,,,,,,,898.6157,899.7458,l,0,0.4529,0,899.747,900.2461,,,,,,75,MAS,WORD,DIS,150,olor,,la,,0.4529,,900.2462,900.2464,-0.083333333,-0.084635417,0,0,0,,0,71,71,74,1,ocer,,,,,
,,,,,,5c90617326e3ed00019896a5,676192165fb32c2e1fb7aee6,67d0b23f22823a223eec8ad2,2025-03-11_16h02.25.167,Tarea de decisión léxica,2024.2.5,Win32,59.52380952,,,,,,,,,,,,,,,,,,,,,,,,900.2493,901.3628,a,1,0.4359,1,901.3644,901.8632,,,,,,333,FEM,WORD,DIS,150,tarea,,el,,0.4359,,901.8632,901.8634,-0.083333333,-0.084635417,0,0,0,,0,72,72,332,1,dalea,,,,,
,,,,,,5c90617326e3ed00019896a5,676192165fb32c2e1fb7aee6,67d0b23f22823a223eec8ad2,2025-03-11_16h02.25.167,Tarea de decisión léxica,2024.2.5,Win32,59.52380952,,,,,,,,,,,,,,,,,,,,,,,,901.8668,902.9131,l,0,0.3676,0,902.9145,903.4126,,,,,,21,MAS,WORD,AGR,150,plan,,el,,0.3676,,903.4127,903.4129,-0.083333333,-0.084635417,0,0,0,,0,73,73,20,1,blan,,,,,
,,,,,,5c90617326e3ed00019896a5,676192165fb32c2e1fb7aee6,67d0b23f22823a223eec8ad2,2025-03-11_16h02.25.167,Tarea de decisión léxica,2024.2.5,Win32,59.52380952,,,,,,,,,,,,,,,,,,,,,,,,903.4157,904.4963,l,1,0.4012,1,904.4978,904.9964,,,,,,268,MAS,NOWORD,AGR,150,figro,,el,,0.4012,,904.9997,905.0015,-0.083333333,-0.084635417,0,0,0,,0,74,74,267,1,libro,,,,,
,,,,,,5c90617326e3ed00019896a5,676192165fb32c2e1fb7aee6,67d0b23f22823a223eec8ad2,2025-03-11_16h02.25.167,Tarea de decisión léxica,2024.2.5,Win32,59.52380952,,,,,,,,,,,,,,,,,,,,,,,,905.0027,906.063,a,1,0.3852,1,906.0631,906.5626,,,,,,347,FEM,WORD,DIS,150,pieza,,el,,0.3852,,906.5626,906.5627,-0.083333333,-0.084635417,0,0,0,,0,75,75,346,1,mueza,,,,,
,,,,,,5c90617326e3ed00019896a5,676192165fb32c2e1fb7aee6,67d0b23f22823a223eec8ad2,2025-03-11_16h02.25.167,Tarea de decisión léxica,2024.2.5,Win32,59.52380952,,,,,,,,,,,,,,,,,,,,,,,,906.5646,907.5797,a,1,0.3352,1,907.5798,908.0794,,,,,,261,MAS,WORD,AGR,150,sitio,,el,,0.3352,,908.0795,908.0796,-0.083333333,-0.084635417,0,0,0,,0,76,76,260,1,titio,,,,,
,,,,,,5c90617326e3ed00019896a5,676192165fb32c2e1fb7aee6,67d0b23f22823a223eec8ad2,2025-03-11_16h02.25.167,Tarea de decisión léxica,2024.2.5,Win32,59.52380952,,,,,,,,,,,,,,,,,,,,,,,,908.0815,909.0468,a,0,0.2846,0,909.0493,909.547,,,,,,20,MAS,NOWORD,AGR,150,himo,,el,,0.2846,,909.5471,909.5474,-0.083333333,-0.084635417,0,0,0,,0,77,77,19,1,niño,,,,,
,,,,,,5c90617326e3ed00019896a5,676192165fb32c2e1fb7aee6,67d0b23f22823a223eec8ad2,2025-03-11_16h02.25.167,Tarea de decisión léxica,2024.2.5,Win32,59.52380952,,,,,,,,,,,,,,,,,,,,,,,,909.55,910.6131,l,1,0.3847,1,910.6143,911.1136,,,,,,346,FEM,NOWORD,DIS,150,anera,,el,,0.3847,,911.1137,911.1139,-0.083333333,-0.084635417,0,0,0,,0,78,78,345,1,arena,,,,,
,,,,,,5c90617326e3ed00019896a5,676192165fb32c2e1fb7aee6,67d0b23f22823a223eec8ad2,2025-03-11_16h02.25.167,Tarea de decisión léxica,2024.2.5,Win32,59.52380952,,,,,,,,,,,,,,,,,,,,,,,,911.117,912.2968,l,1,0.5028,1,912.2969,912.7967,,,,,,138,MAS,NOWORD,DIS,150,pamo,,la,,0.5028,,912.7989,912.8002,-0.083333333,-0.084635417,0,0,0,,0,79,79,137,1,nene,,,,,
,,,,,,5c90617326e3ed00019896a5,676192165fb32c2e1fb7aee6,67d0b23f22823a223eec8ad2,2025-03-11_16h02.25.167,Tarea de decisión léxica,2024.2.5,Win32,59.52380952,,,,,,,,,,,,,,,,,,,,,,,,912.8011,913.9968,l,1,0.5202,1,913.9969,914.4973,,,,,,360,MAS,NOWORD,AGR,150,cacer,,el,,0.5202,,914.4974,914.4976,-0.083333333,-0.084635417,0,0,0,,0,80,80,359,1,calor,,,,,
,,,,,,5c90617326e3ed00019896a5,676192165fb32c2e1fb7aee6,67d0b23f22823a223eec8ad2,2025-03-11_16h02.25.167,Tarea de decisión léxica,2024.2.5,Win32,59.52380952,,,,,,,,,,,,,,,,,,,,,,,,914.5008,915.6153,l,1,0.4423,1,915.6154,916.1222,,,,,,202,FEM,NOWORD,DIS,150,cusa,,el,,0.4423,,916.1224,916.1226,-0.083333333,-0.084635417,0,0,0,,0,81,81,201,1,cuna,,,,,
,,,,,,5c90617326e3ed00019896a5,676192165fb32c2e1fb7aee6,67d0b23f22823a223eec8ad2,2025-03-11_16h02.25.167,Tarea de decisión léxica,2024.2.5,Win32,59.52380952,,,,,,,,,,,,,,,,,,,,,,,,916.1258,917.1638,l,1,0.3721,1,917.1641,917.6635,,,,,,408,FEM,NOWORD,AGR,150,cauba,,la,,0.3721,,917.6636,917.6637,-0.083333333,-0.084635417,0,0,0,,0,82,82,407,1,cueva,,,,,
,,,,,,5c90617326e3ed00019896a5,676192165fb32c2e1fb7aee6,67d0b23f22823a223eec8ad2,2025-03-11_16h02.25.167,Tarea de decisión léxica,2024.2.5,Win32,59.52380952,,,,,,,,,,,,,,,,,,,,,,,,917.6663,918.7636,a,1,0.4186,1,918.7638,919.2639,,,,,,97,MAS,WORD,AGR,150,mono,,el,,0.4186,,919.2665,919.2678,-0.083333333,-0.084635417,0,0,0,,0,83,83,96,1,fopo,,,,,
,,,,,,5c90617326e3ed00019896a5,676192165fb32c2e1fb7aee6,67d0b23f22823a223eec8ad2,2025-03-11_16h02.25.167,Tarea de decisión léxica,2024.2.5,Win32,59.52380952,,,,,,,,,,,,,,,,,,,,,,,,919.2686,920.4153,a,1,0.4715,1,920.4163,920.9138,,,,,,277,MAS,WORD,AGR,150,fuego,,el,,0.4715,,920.914,920.9142,-0.083333333,-0.084635417,0,0,0,,0,84,84,276,1,vuemo,,,,,
,,,,,,5c90617326e3ed00019896a5,676192165fb32c2e1fb7aee6,67d0b23f22823a223eec8ad2,2025-03-11_16h02.25.167,Tarea de decisión léxica,2024.2.5,Win32,59.52380952,,,,,,,,,,,,,,,,,,,,,,,,920.9173,921.9306,a,1,0.3342,1,921.9307,922.4306,,,,,,427,FEM,WORD,AGR,150,oreja,,la,,0.3342,,922.4307,922.4308,-0.083333333,-0.084635417,0,0,0,,0,85,85,426,1,oseva,,,,,
,,,,,,5c90617326e3ed00019896a5,676192165fb32c2e1fb7aee6,67d0b23f22823a223eec8ad2,2025-03-11_16h02.25.167,Tarea de decisión léxica,2024.2.5,Win32,59.52380952,,,,,,,,,,,,,,,,,,,,,,,,922.4331,923.5475,l,1,0.435,1,923.5475,924.0476,,,,,,142,FEM,NOWORD,DIS,150,sina,,el,,0.435,,924.0477,924.0479,-0.083333333,-0.084635417,0,0,0,,0,86,86,141,1,cruz,,,,,
,,,,,,5c90617326e3ed00019896a5,676192165fb32c2e1fb7aee6,67d0b23f22823a223eec8ad2,2025-03-11_16h02.25.167,Tarea de decisión léxica,2024.2.5,Win32,59.52380952,,,,,,,,,,,,,,,,,,,,,,,,924.0509,925.2308,a,1,0.5056,1,925.231,925.7309,,,,,,7,MAS,WORD,AGR,150,hijo,,el,,0.5056,,925.731,925.7312,-0.083333333,-0.084635417,0,0,0,,0,87,87,6,1,nivo,,,,,
,,,,,,5c90617326e3ed00019896a5,676192165fb32c2e1fb7aee6,67d0b23f22823a223eec8ad2,2025-03-11_16h02.25.167,Tarea de decisión léxica,2024.2.5,Win32,59.52380952,,,,,,,,,,,,,,,,,,,,,,,,925.7336,926.781,l,0,0.3729,0,926.7822,927.2814,,,,,,325,FEM,WORD,AGR,150,magia,,la,,0.3729,,927.2841,927.2853,-0.083333333,-0.084635417,0,0,0,,0,88,88,324,1,mabia,,,,,
,,,,,,5c90617326e3ed00019896a5,676192165fb32c2e1fb7aee6,67d0b23f22823a223eec8ad2,2025-03-11_16h02.25.167,Tarea de decisión léxica,2024.2.5,Win32,59.52380952,,,,,,,,,,,,,,,,,,,,,,,,927.2864,928.4144,l,0,0.4521,0,928.4145,928.9151,,,,,,415,FEM,WORD,DIS,150,jaula,,el,,0.4521,,928.9152,928.9154,-0.083333333,-0.084635417,0,0,0,,0,89,89,414,1,juira,,,,,
,,,,,,5c90617326e3ed00019896a5,676192165fb32c2e1fb7aee6,67d0b23f22823a223eec8ad2,2025-03-11_16h02.25.167,Tarea de decisión léxica,2024.2.5,Win32,59.52380952,,,,,,,,,,,,,,,,,,,,,,,,928.9187,929.881,a,1,0.2871,1,929.8816,930.3817,,,,,,305,MAS,WORD,AGR,150,avión,,el,,0.2871,,930.3818,930.382,-0.083333333,-0.084635417,0,0,0,,0,90,90,304,1,adiol,,,,,
,,,,,,5c90617326e3ed00019896a5,676192165fb32c2e1fb7aee6,67d0b23f22823a223eec8ad2,2025-03-11_16h02.25.167,Tarea de decisión léxica,2024.2.5,Win32,59.52380952,,,,,,,,,,,,,,,,,,,,,,,,930.3849,931.4647,l,1,0.406,1,931.4647,931.9652,,,,,,14,FEM,NOWORD,DIS,150,nola,,el,,0.406,,931.9653,931.9654,-0.083333333,-0.084635417,0,0,0,,0,91,91,13,1,hora,,,,,
,,,,,,5c90617326e3ed00019896a5,676192165fb32c2e1fb7aee6,67d0b23f22823a223eec8ad2,2025-03-11_16h02.25.167,Tarea de decisión léxica,2024.2.5,Win32,59.52380952,,,,,,,,,,,,,,,,,,,,,,,,931.9686,933.2319,a,0,0.5852,0,933.2333,933.7321,,,,,,442,FEM,NOWORD,DIS,150,telza,,el,,0.5852,,933.7322,933.7324,-0.083333333,-0.084635417,0,0,0,,0,92,92,441,1,selva,,,,,
,,,,,,5c90617326e3ed00019896a5,676192165fb32c2e1fb7aee6,67d0b23f22823a223eec8ad2,2025-03-11_16h02.25.167,Tarea de decisión léxica,2024.2.5,Win32,59.52380952,,,,,,,,,,,,,,,,,,,,,,,,933.7351,934.9317,l,1,0.5217,1,934.9337,935.432,,,,,,204,FEM,NOWORD,AGR,150,beja,,la,,0.5217,,935.4348,935.4362,-0.083333333,-0.084635417,0,0,0,,0,93,93,203,1,leña,,,,,
,,,,,,5c90617326e3ed00019896a5,676192165fb32c2e1fb7aee6,67d0b23f22823a223eec8ad2,2025-03-11_16h02.25.167,Tarea de decisión léxica,2024.2.5,Win32,59.52380952,,,,,,,,,,,,,,,,,,,,,,,,935.4372,936.5989,a,1,0.4874,1,936.599,937.0983,,,,,,307,MAS,WORD,DIS,150,hotel,,la,,0.4874,,937.0984,937.0986,-0.083333333,-0.084635417,0,0,0,,0,94,94,306,1,holol,,,,,
,,,,,,5c90617326e3ed00019896a5,676192165fb32c2e1fb7aee6,67d0b23f22823a223eec8ad2,2025-03-11_16h02.25.167,Tarea de decisión léxica,2024.2.5,Win32,59.52380952,,,,,,,,,,,,,,,,,,,,,,,,937.1012,938.3985,a,0,0.6176,0,938.3994,938.8991,,,,,,112,MAS,NOWORD,AGR,150,siro,,el,,0.6176,,938.8992,938.8995,-0.083333333,-0.084635417,0,0,0,,0,95,95,111,1,muro,,,,,
,,,,,,5c90617326e3ed00019896a5,676192165fb32c2e1fb7aee6,67d0b23f22823a223eec8ad2,2025-03-11_16h02.25.167,Tarea de decisión léxica,2024.2.5,Win32,59.52380952,,,,,,,,,,,,,,,,,,,,,,,,938.9026,939.9822,a,0,0.4027,0,939.9824,940.4827,,,,,,214,FEM,NOWORD,DIS,150,bana,,el,,0.4027,,940.4827,940.4829,-0.083333333,-0.084635417,0,0,0,,0,96,96,213,1,rama,,,,,
,,,,,,5c90617326e3ed00019896a5,676192165fb32c2e1fb7aee6,67d0b23f22823a223eec8ad2,2025-03-11_16h02.25.167,Tarea de decisión léxica,2024.2.5,Win32,59.52380952,,,,,,,,,,,,,,,,,,,,,,,,940.4849,941.5825,l,0,0.4184,0,941.5827,942.0825,,,,,,73,MAS,WORD,AGR,150,odio,,el,,0.4184,,942.0827,942.0828,-0.083333333,-0.084635417,0,0,0,,0,97,97,72,1,omio,,,,,
,,,,,,5c90617326e3ed00019896a5,676192165fb32c2e1fb7aee6,67d0b23f22823a223eec8ad2,2025-03-11_16h02.25.167,Tarea de decisión léxica,2024.2.5,Win32,59.52380952,,,,,,,,,,,,,,,,,,,,,,,,942.086,943.2658,l,1,0.5014,1,943.2674,943.7661,,,,,,282,MAS,NOWORD,DIS,150,cauro,,la,,0.5014,,943.7695,943.7706,-0.083333333,-0.084635417,0,0,0,,0,98,98,281,1,cielo,,,,,
,,,,,,5c90617326e3ed00019896a5,676192165fb32c2e1fb7aee6,67d0b23f22823a223eec8ad2,2025-03-11_16h02.25.167,Tarea de decisión léxica,2024.2.5,Win32,59.52380952,,,,,,,,,,,,,,,,,,,,,,,,943.7716,944.9324,a,1,0.4888,1,944.9326,945.433,,,,,,469,MAS,WORD,DIS,150,patio,,la,,0.4888,,945.4331,945.4333,-0.083333333,-0.084635417,0,0,0,,0,99,99,468,1,matia,,,,,
,,,,,,5c90617326e3ed00019896a5,676192165fb32c2e1fb7aee6,67d0b23f22823a223eec8ad2,2025-03-11_16h02.25.167,Tarea de decisión léxica,2024.2.5,Win32,59.52380952,,,,,,,,,,,,,,,,,,,,,,,,945.4367,946.583,l,1,0.4685,1,946.5831,947.0826,,,,,,292,FEM,NOWORD,AGR,150,mesta,,la,,0.4685,,947.0827,947.0827,-0.083333333,-0.084635417,0,0,0,,0,100,100,291,1,pista,,,,,
,,,,,,5c90617326e3ed00019896a5,676192165fb32c2e1fb7aee6,67d0b23f22823a223eec8ad2,2025-03-11_16h02.25.167,Tarea de decisión léxica,2024.2.5,Win32,59.52380952,,,,,,,,,,,,,,,,,,,,,,,,947.0841,948.2661,l,1,0.5006,1,948.2662,948.7661,,,,,,458,MAS,NOWORD,DIS,150,glaco,,la,,0.5006,,948.7661,948.7663,-0.083333333,-0.084635417,0,0,0,,0,101,101,457,1,plato,,,,,
,,,,,,5c90617326e3ed00019896a5,676192165fb32c2e1fb7aee6,67d0b23f22823a223eec8ad2,2025-03-11_16h02.25.167,Tarea de decisión léxica,2024.2.5,Win32,59.52380952,,,,,,,,,,,,,,,,,,,,,,,,948.7689,949.9157,l,1,0.468,1,949.9159,950.4166,,,,,,276,MAS,NOWORD,AGR,150,musto,,el,,0.468,,950.4167,950.4168,-0.083333333,-0.084635417,0,0,0,,0,102,102,275,1,punto,,,,,
,,,,,,5c90617326e3ed00019896a5,676192165fb32c2e1fb7aee6,67d0b23f22823a223eec8ad2,2025-03-11_16h02.25.167,Tarea de decisión léxica,2024.2.5,Win32,59.52380952,,,,,,,,,,,,,,,,,,,,,,,,950.4201,951.5826,a,1,0.483,1,951.5827,952.0827,,,,,,43,FEM,WORD,DIS,150,pena,,el,,0.483,,952.0854,952.0859,-0.083333333,-0.084635417,0,0,0,,0,103,103,42,1,meda,,,,,
,,,,,,5c90617326e3ed00019896a5,676192165fb32c2e1fb7aee6,67d0b23f22823a223eec8ad2,2025-03-11_16h02.25.167,Tarea de decisión léxica,2024.2.5,Win32,59.52380952,,,,,,,,,,,,,,,,,,,,,,,,952.0865,953.1831,a,1,0.4189,1,953.1833,953.6827,,,,,,51,FEM,WORD,AGR,150,caja,,la,,0.4189,,953.6828,953.6829,-0.083333333,-0.084635417,0,0,0,,0,104,104,50,1,mava,,,,,
,,,,,,5c90617326e3ed00019896a5,676192165fb32c2e1fb7aee6,67d0b23f22823a223eec8ad2,2025-03-11_16h02.25.167,Tarea de decisión léxica,2024.2.5,Win32,59.52380952,,,,,,,,,,,,,,,,,,,,,,,,953.6839,954.7503,a,1,0.386,1,954.7504,955.2501,,,,,,253,MAS,WORD,DIS,150,chico,,la,,0.386,,955.2502,955.2503,-0.083333333,-0.084635417,0,0,0,,0,105,105,252,1,trido,,,,,
,,,,,,5c90617326e3ed00019896a5,676192165fb32c2e1fb7aee6,67d0b23f22823a223eec8ad2,2025-03-11_16h02.25.167,Tarea de decisión léxica,2024.2.5,Win32,59.52380952,,,,,,,,,,,,,,,,,,,,,,,,955.2528,956.4167,a,1,0.4846,1,956.4168,956.9169,,,,,,329,MAS,WORD,DIS,150,hueso,,la,,0.4846,,956.9171,956.9172,-0.083333333,-0.084635417,0,0,0,,0,106,106,328,1,nueno,,,,,
,,,,,,5c90617326e3ed00019896a5,676192165fb32c2e1fb7aee6,67d0b23f22823a223eec8ad2,2025-03-11_16h02.25.167,Tarea de decisión léxica,2024.2.5,Win32,59.52380952,,,,,,,,,,,,,,,,,,,,,,,,956.9201,958.0334,l,1,0.4349,1,958.0335,958.5335,,,,,,28,MAS,NOWORD,AGR,150,ravo,,el,,0.4349,,958.5361,958.5377,-0.083333333,-0.084635417,0,0,0,,0,107,107,27,1,baño,,,,,
,,,,,,5c90617326e3ed00019896a5,676192165fb32c2e1fb7aee6,67d0b23f22823a223eec8ad2,2025-03-11_16h02.25.167,Tarea de decisión léxica,2024.2.5,Win32,59.52380952,,,,,,,,,,,,,,,,,,,,,,,,958.5388,959.7507,l,1,0.5341,1,959.7509,960.2503,,,,,,110,MAS,NOWORD,DIS,150,suno,,la,,0.5341,,960.2504,960.2505,-0.083333333,-0.084635417,0,0,0,,0,108,108,109,1,rayo,,,,,
,,,,,,5c90617326e3ed00019896a5,676192165fb32c2e1fb7aee6,67d0b23f22823a223eec8ad2,2025-03-11_16h02.25.167,Tarea de decisión léxica,2024.2.5,Win32,59.52380952,,,,,,,,,,,,,,,,,,,,,,,,960.253,961.3333,a,0,0.4042,0,961.3341,961.8341,,,,,,364,FEM,NOWORD,AGR,150,veida,,la,,0.4042,,961.8342,961.8344,-0.083333333,-0.084635417,0,0,0,,0,109,109,363,1,deuda,,,,,
,,,,,,5c90617326e3ed00019896a5,676192165fb32c2e1fb7aee6,67d0b23f22823a223eec8ad2,2025-03-11_16h02.25.167,Tarea de decisión léxica,2024.2.5,Win32,59.52380952,,,,,,,,,,,,,,,,,,,,,,,,961.8369,963.1509,l,1,0.6347,1,963.1521,963.651,,,,,,100,MAS,NOWORD,AGR,150,soro,,el,,0.6347,,963.6512,963.6513,-0.083333333,-0.084635417,0,0,0,,0,110,110,99,1,lobo,,,,,
,,,,,,5c90617326e3ed00019896a5,676192165fb32c2e1fb7aee6,67d0b23f22823a223eec8ad2,2025-03-11_16h02.25.167,Tarea de decisión léxica,2024.2.5,Win32,59.52380952,,,,,,,,,,,,,,,,,,,,,,,,963.6544,964.8509,a,1,0.5191,1,964.851,965.3506,,,,,,151,MAS,WORD,AGR,150,tomo,,el,,0.5191,,965.3507,965.3509,-0.083333333,-0.084635417,0,0,0,,0,111,111,150,1,sogo,,,,,
,,,,,,5c90617326e3ed00019896a5,676192165fb32c2e1fb7aee6,67d0b23f22823a223eec8ad2,2025-03-11_16h02.25.167,Tarea de decisión léxica,2024.2.5,Win32,59.52380952,,,,,,,,,,,,,,,,,,,,,,,,965.3538,966.4838,a,1,0.4523,1,966.4839,966.9847,,,,,,55,MAS,WORD,DIS,150,gato,,la,,0.4523,,966.9874,966.989,-0.083333333,-0.084635417,0,0,0,,0,112,112,54,1,jado,,,,,
,,,,,,5c90617326e3ed00019896a5,676192165fb32c2e1fb7aee6,67d0b23f22823a223eec8ad2,2025-03-11_16h02.25.167,Tarea de decisión léxica,2024.2.5,Win32,59.52380952,,,,,,,,,,,,,,,,,,,,,,,,966.9901,968.0342,a,1,0.3721,1,968.0343,968.534,,,,,,87,MAS,WORD,AGR,150,vaso,,el,,0.3721,,968.5341,968.5342,-0.083333333,-0.084635417,0,0,0,,0,113,113,86,1,damo,,,,,
,,,,,,5c90617326e3ed00019896a5,676192165fb32c2e1fb7aee6,67d0b23f22823a223eec8ad2,2025-03-11_16h02.25.167,Tarea de decisión léxica,2024.2.5,Win32,59.52380952,,,,,,,,,,,,,,,,,,,,,,,,968.5357,969.6171,a,1,0.4023,1,969.6172,970.1173,,,,,,65,MAS,WORD,DIS,150,dios,,la,,0.4023,,970.1174,970.1175,-0.083333333,-0.084635417,0,0,0,,0,114,114,64,1,nios,,,,,
,,,,,,5c90617326e3ed00019896a5,676192165fb32c2e1fb7aee6,67d0b23f22823a223eec8ad2,2025-03-11_16h02.25.167,Tarea de decisión léxica,2024.2.5,Win32,59.52380952,,,,,,,,,,,,,,,,,,,,,,,,970.1197,971.0679,a,1,0.2702,1,971.068,971.568,,,,,,251,MAS,WORD,AGR,150,señor,,el,,0.2702,,971.5682,971.5683,-0.083333333,-0.084635417,0,0,0,,0,115,115,250,1,refor,,,,,
,,,,,,5c90617326e3ed00019896a5,676192165fb32c2e1fb7aee6,67d0b23f22823a223eec8ad2,2025-03-11_16h02.25.167,Tarea de decisión léxica,2024.2.5,Win32,59.52380952,,,,,,,,,,,,,,,,,,,,,,,,971.5717,972.651,l,1,0.4061,1,972.6511,973.1516,,,,,,168,FEM,NOWORD,AGR,150,zifa,,la,,0.4061,,973.1518,973.1519,-0.083333333,-0.084635417,0,0,0,,0,116,116,167,1,jefa,,,,,
,,,,,,5c90617326e3ed00019896a5,676192165fb32c2e1fb7aee6,67d0b23f22823a223eec8ad2,2025-03-11_16h02.25.167,Tarea de decisión léxica,2024.2.5,Win32,59.52380952,,,,,,,,,,,,,,,,,,,,,,,,973.1551,974.2346,a,1,0.4048,1,974.2347,974.7348,,,,,,31,FEM,WORD,AGR,150,ropa,,la,,0.4048,,974.7373,974.7388,-0.083333333,-0.084635417,0,0,0,,0,117,117,30,1,bova,,,,,
,,,,,,5c90617326e3ed00019896a5,676192165fb32c2e1fb7aee6,67d0b23f22823a223eec8ad2,2025-03-11_16h02.25.167,Tarea de decisión léxica,2024.2.5,Win32,59.52380952,,,,,,,,,,,,,,,,,,,,,,,,974.7403,975.7517,a,1,0.3341,1,975.7518,976.252,,,,,,207,MAS,WORD,AGR,150,kilo,,el,,0.3341,,976.2521,976.2524,-0.083333333,-0.084635417,0,0,0,,0,118,118,206,1,kedo,,,,,
,,,,,,5c90617326e3ed00019896a5,676192165fb32c2e1fb7aee6,67d0b23f22823a223eec8ad2,2025-03-11_16h02.25.167,Tarea de decisión léxica,2024.2.5,Win32,59.52380952,,,,,,,,,,,,,,,,,,,,,,,,976.2553,977.3683,l,1,0.4388,1,977.3684,977.8682,,,,,,244,MAS,NOWORD,AGR,150,asamo,,el,,0.4388,,977.8683,977.8685,-0.083333333,-0.084635417,0,0,0,,0,119,119,243,1,amigo,,,,,
,,,,,,5c90617326e3ed00019896a5,676192165fb32c2e1fb7aee6,67d0b23f22823a223eec8ad2,2025-03-11_16h02.25.167,Tarea de decisión léxica,2024.2.5,Win32,59.52380952,,,,,,,,,,,,,,,,,,,,,,,,977.8722,978.9184,a,1,0.3686,1,978.9185,979.4189,,,,,,17,FEM,WORD,DIS,150,mamá,,el,,0.3686,,979.419,979.4191,-0.083333333,-0.084635417,0,0,0,,0,120,120,16,1,paba,,,,,
,,,,,,5c90617326e3ed00019896a5,676192165fb32c2e1fb7aee6,67d0b23f22823a223eec8ad2,2025-03-11_16h02.25.167,Tarea de decisión léxica,2024.2.5,Win32,59.52380952,,,,,,,,,,,,,,,,,,,,,,,,979.4222,980.5852,l,1,0.4844,1,980.5854,981.0854,,,,,,470,MAS,NOWORD,DIS,150,matia,,la,,0.4844,,981.0855,981.0857,-0.083333333,-0.084635417,0,0,0,,0,121,121,469,1,patio,,,,,
,,,,,,5c90617326e3ed00019896a5,676192165fb32c2e1fb7aee6,67d0b23f22823a223eec8ad2,2025-03-11_16h02.25.167,Tarea de decisión léxica,2024.2.5,Win32,59.52380952,,,,,,,,,,,,,,,,,,,,,,,,981.0888,982.1522,a,1,0.385,1,982.1524,982.6523,,,,,,111,MAS,WORD,DIS,150,muro,,la,,0.385,,982.6552,982.6564,-0.083333333,-0.084635417,0,0,0,,0,122,122,110,1,siro,,,,,
,,,,,,5c90617326e3ed00019896a5,676192165fb32c2e1fb7aee6,67d0b23f22823a223eec8ad2,2025-03-11_16h02.25.167,Tarea de decisión léxica,2024.2.5,Win32,59.52380952,,,,,,,,,,,,,,,,,,,,,,,,982.6575,983.8188,a,1,0.486,1,983.819,984.3187,,,,,,247,FEM,WORD,DIS,150,chica,,el,,0.486,,984.3188,984.3189,-0.083333333,-0.084635417,0,0,0,,0,123,123,246,1,trida,,,,,
,,,,,,5c90617326e3ed00019896a5,676192165fb32c2e1fb7aee6,67d0b23f22823a223eec8ad2,2025-03-11_16h02.25.167,Tarea de decisión léxica,2024.2.5,Win32,59.52380952,,,,,,,,,,,,,,,,,,,,,,,,984.322,985.5189,a,1,0.5184,1,985.5191,986.0184,,,,,,443,MAS,WORD,AGR,150,salón,,el,,0.5184,,986.0185,986.0186,-0.083333333,-0.084635417,0,0,0,,0,124,124,442,1,taron,,,,,
,,,,,,5c90617326e3ed00019896a5,676192165fb32c2e1fb7aee6,67d0b23f22823a223eec8ad2,2025-03-11_16h02.25.167,Tarea de decisión léxica,2024.2.5,Win32,59.52380952,,,,,,,,,,,,,,,,,,,,,,,,986.0212,987.0688,l,0,0.3674,0,987.0699,987.5692,,,,,,203,FEM,WORD,DIS,150,leña,,el,,0.3674,,987.5692,987.5694,-0.083333333,-0.084635417,0,0,0,,0,125,125,202,1,beja,,,,,
,,,,,,5c90617326e3ed00019896a5,676192165fb32c2e1fb7aee6,67d0b23f22823a223eec8ad2,2025-03-11_16h02.25.167,Tarea de decisión léxica,2024.2.5,Win32,59.52380952,,,,,,,,,,,,,,,,,,,,,,,,987.5723,988.6858,l,1,0.435,1,988.6872,989.1861,,,,,,52,FEM,NOWORD,AGR,150,mava,,la,,0.435,,989.1861,989.1863,-0.083333333,-0.084635417,0,0,0,,0,126,126,51,1,caja,,,,,
,,,,,,5c90617326e3ed00019896a5,676192165fb32c2e1fb7aee6,67d0b23f22823a223eec8ad2,2025-03-11_16h02.25.167,Tarea de decisión léxica,2024.2.5,Win32,59.52380952,,,,,,,,,,,,,,,,,,,,,,,,989.1893,990.3192,a,1,0.4495,1,990.3192,990.8197,,,,,,359,MAS,WORD,AGR,150,calor,,el,,0.4495,,990.8225,990.8239,-0.083333333,-0.084635417,0,0,0,,0,127,127,358,1,cacer,,,,,
,,,,,,5c90617326e3ed00019896a5,676192165fb32c2e1fb7aee6,67d0b23f22823a223eec8ad2,2025-03-11_16h02.25.167,Tarea de decisión léxica,2024.2.5,Win32,59.52380952,,,,,,,,,,,,,,,,,,,,,,,,990.8253,991.9697,l,0,0.4672,0,991.9729,992.4698,,,,,,239,MAS,WORD,DIS,150,mozo,,la,,0.4672,,992.4699,992.4702,-0.083333333,-0.084635417,0,0,0,,0,128,128,238,1,poño,,,,,
,,,,,,5c90617326e3ed00019896a5,676192165fb32c2e1fb7aee6,67d0b23f22823a223eec8ad2,2025-03-11_16h02.25.167,Tarea de decisión léxica,2024.2.5,Win32,59.52380952,,,,,,,,,,,,,,,,,,,,,,,,992.4733,993.5024,a,1,0.3513,1,993.5039,994.0028,,,,,,255,MAS,WORD,AGR,150,miedo,,el,,0.3513,,994.003,994.0031,-0.083333333,-0.084635417,0,0,0,,0,129,129,254,1,mauco,,,,,
,,,,,,5c90617326e3ed00019896a5,676192165fb32c2e1fb7aee6,67d0b23f22823a223eec8ad2,2025-03-11_16h02.25.167,Tarea de decisión léxica,2024.2.5,Win32,59.52380952,,,,,,,,,,,,,,,,,,,,,,,,994.006,995.1366,l,1,0.4533,1,995.1368,995.6362,,,,,,406,FEM,NOWORD,DIS,150,rarra,,el,,0.4533,,995.6364,995.6365,-0.083333333,-0.084635417,0,0,0,,0,130,130,405,1,barra,,,,,
,,,,,,5c90617326e3ed00019896a5,676192165fb32c2e1fb7aee6,67d0b23f22823a223eec8ad2,2025-03-11_16h02.25.167,Tarea de decisión léxica,2024.2.5,Win32,59.52380952,,,,,,,,,,,,,,,,,,,,,,,,995.6393,996.7196,a,1,0.3999,1,996.7199,997.2198,,,,,,351,MAS,WORD,DIS,150,vuelo,,la,,0.3999,,997.2224,997.224,-0.083333333,-0.084635417,0,0,0,,0,131,131,350,1,duepo,,,,,
,,,,,,5c90617326e3ed00019896a5,676192165fb32c2e1fb7aee6,67d0b23f22823a223eec8ad2,2025-03-11_16h02.25.167,Tarea de decisión léxica,2024.2.5,Win32,59.52380952,,,,,,,,,,,,,,,,,,,,,,,,997.2249,998.2695,a,1,0.3665,1,998.2696,998.7697,,,,,,163,FEM,WORD,AGR,150,fama,,la,,0.3665,,998.7698,998.77,-0.083333333,-0.084635417,0,0,0,,0,132,132,162,1,laga,,,,,
,,,,,,5c90617326e3ed00019896a5,676192165fb32c2e1fb7aee6,67d0b23f22823a223eec8ad2,2025-03-11_16h02.25.167,Tarea de decisión léxica,2024.2.5,Win32,59.52380952,,,,,,,,,,,,,,,,,,,,,,,,998.7725,999.72,a,1,0.2675,1,999.7202,1000.2202,,,,,,249,FEM,WORD,AGR,150,clase,,la,,0.2675,,1000.2203,1000.2204,-0.083333333,-0.084635417,0,0,0,,0,133,133,248,1,plane,,,,,
,,,,,,5c90617326e3ed00019896a5,676192165fb32c2e1fb7aee6,67d0b23f22823a223eec8ad2,2025-03-11_16h02.25.167,Tarea de decisión léxica,2024.2.5,Win32,59.52380952,,,,,,,,,,,,,,,,,,,,,,,,1000.2236,1001.3366,l,1,0.4358,1,1001.3368,1001.8365,,,,,,330,MAS,NOWORD,DIS,150,nueno,,la,,0.4358,,1001.8366,1001.8367,-0.083333333,-0.084635417,0,0,0,,0,134,134,329,1,hueso,,,,,
,,,,,,5c90617326e3ed00019896a5,676192165fb32c2e1fb7aee6,67d0b23f22823a223eec8ad2,2025-03-11_16h02.25.167,Tarea de decisión léxica,2024.2.5,Win32,59.52380952,,,,,,,,,,,,,,,,,,,,,,,,1001.8393,1003.0699,l,1,0.557,1,1003.0701,1003.57,,,,,,438,FEM,NOWORD,DIS,150,glava,,el,,0.557,,1003.5701,1003.5702,-0.083333333,-0.084635417,0,0,0,,0,135,135,437,1,plaza,,,,,
,,,,,,5c90617326e3ed00019896a5,676192165fb32c2e1fb7aee6,67d0b23f22823a223eec8ad2,2025-03-11_16h02.25.167,Tarea de decisión léxica,2024.2.5,Win32,59.52380952,,,,,,,,,,,,,,,,,,,,,,,,1003.5726,1004.7035,l,1,0.4496,1,1004.7037,1005.2039,,,,,,250,FEM,NOWORD,DIS,150,plane,,el,,0.4496,,1005.2067,1005.2081,-0.083333333,-0.084635417,0,0,0,,0,136,136,249,1,clase,,,,,
,,,,,,5c90617326e3ed00019896a5,676192165fb32c2e1fb7aee6,67d0b23f22823a223eec8ad2,2025-03-11_16h02.25.167,Tarea de decisión léxica,2024.2.5,Win32,59.52380952,,,,,,,,,,,,,,,,,,,,,,,,1005.2091,1006.3701,a,1,0.4861,1,1006.3703,1006.8706,,,,,,39,MAS,WORD,DIS,150,voto,,la,,0.4861,,1006.8708,1006.871,-0.083333333,-0.084635417,0,0,0,,0,137,137,38,1,redo,,,,,
,,,,,,5c90617326e3ed00019896a5,676192165fb32c2e1fb7aee6,67d0b23f22823a223eec8ad2,2025-03-11_16h02.25.167,Tarea de decisión léxica,2024.2.5,Win32,59.52380952,,,,,,,,,,,,,,,,,,,,,,,,1006.8742,1008.0368,l,0,0.4817,0,1008.0377,1008.5371,,,,,,181,FEM,WORD,DIS,150,seda,,el,,0.4817,,1008.5372,1008.5372,-0.083333333,-0.084635417,0,0,0,,0,138,138,180,1,teda,,,,,
,,,,,,5c90617326e3ed00019896a5,676192165fb32c2e1fb7aee6,67d0b23f22823a223eec8ad2,2025-03-11_16h02.25.167,Tarea de decisión léxica,2024.2.5,Win32,59.52380952,,,,,,,,,,,,,,,,,,,,,,,,1008.5397,1009.8038,l,1,0.5837,1,1009.805,1010.3035,,,,,,262,MAS,NOWORD,DIS,150,titio,,la,,0.5837,,1010.3036,1010.3037,-0.083333333,-0.084635417,0,0,0,,0,139,139,261,1,sitio,,,,,
,,,,,,5c90617326e3ed00019896a5,676192165fb32c2e1fb7aee6,67d0b23f22823a223eec8ad2,2025-03-11_16h02.25.167,Tarea de decisión léxica,2024.2.5,Win32,59.52380952,,,,,,,,,,,,,,,,,,,,,,,,1010.3053,1011.3203,l,0,0.3337,0,1011.3212,1011.8205,,,,,,129,MAS,WORD,DIS,150,oído,,la,,0.3337,,1011.8205,1011.8206,-0.083333333,-0.084635417,0,0,0,,0,140,140,128,1,pima,,,,,
,,,,,,5c90617326e3ed00019896a5,676192165fb32c2e1fb7aee6,67d0b23f22823a223eec8ad2,2025-03-11_16h02.25.167,Tarea de decisión léxica,2024.2.5,Win32,59.52380952,,,,,,,,,,,,,,,,,,,,,,,,1011.8231,1012.9707,l,1,0.4736,1,1012.9717,1013.4713,,,,,,212,FEM,NOWORD,AGR,150,joad,,la,,0.4736,,1013.4744,1013.4757,-0.083333333,-0.084635417,0,0,0,,0,141,141,211,1,joya,,,,,
,,,,,,5c90617326e3ed00019896a5,676192165fb32c2e1fb7aee6,67d0b23f22823a223eec8ad2,2025-03-11_16h02.25.167,Tarea de decisión léxica,2024.2.5,Win32,59.52380952,,,,,,,,,,,,,,,,,,,,,,,,1013.4768,1014.7545,l,1,0.601,1,1014.7547,1015.2548,,,,,,278,MAS,NOWORD,DIS,150,vuemo,,la,,0.601,,1015.2548,1015.255,-0.083333333,-0.084635417,0,0,0,,0,142,142,277,1,fuego,,,,,
,,,,,,5c90617326e3ed00019896a5,676192165fb32c2e1fb7aee6,67d0b23f22823a223eec8ad2,2025-03-11_16h02.25.167,Tarea de decisión léxica,2024.2.5,Win32,59.52380952,,,,,,,,,,,,,,,,,,,,,,,,1015.2581,1016.354,a,1,0.4167,1,1016.3541,1016.8544,,,,,,23,FEM,WORD,AGR,150,hija,,la,,0.4167,,1016.8544,1016.8546,-0.083333333,-0.084635417,0,0,0,,0,143,143,22,1,giva,,,,,
,,,,,,5c90617326e3ed00019896a5,676192165fb32c2e1fb7aee6,67d0b23f22823a223eec8ad2,2025-03-11_16h02.25.167,Tarea de decisión léxica,2024.2.5,Win32,59.52380952,,,,,,,,,,,,,,,,,,,,,,,,1016.8568,1018.0378,a,1,0.5006,1,1018.0379,1018.5376,,,,,,363,FEM,WORD,AGR,150,deuda,,la,,0.5006,,1018.5376,1018.5377,-0.083333333,-0.084635417,0,0,0,,0,144,144,362,1,veida,,,,,
,,,,,,5c90617326e3ed00019896a5,676192165fb32c2e1fb7aee6,67d0b23f22823a223eec8ad2,2025-03-11_16h02.25.167,Tarea de decisión léxica,2024.2.5,Win32,59.52380952,,,,,,,,,,,,,,,,,,,,,,,,1018.5403,1019.6052,a,1,0.3903,1,1019.6054,1020.105,,,,,,11,MAS,WORD,AGR,150,lado,,el,,0.3903,,1020.1051,1020.1051,-0.083333333,-0.084635417,0,0,0,,0,145,145,10,1,bapo,,,,,
,,,,,,5c90617326e3ed00019896a5,676192165fb32c2e1fb7aee6,67d0b23f22823a223eec8ad2,2025-03-11_16h02.25.167,Tarea de decisión léxica,2024.2.5,Win32,59.52380952,,,,,,,,,,,,,,,,,,,,,,,,1020.108,1021.1212,a,1,0.3365,1,1021.1213,1021.6211,,,,,,309,FEM,WORD,AGR,150,silla,,la,,0.3365,,1021.6217,1021.623,-0.083333333,-0.084635417,0,0,0,,0,146,146,308,1,tirra,,,,,
,,,,,,5c90617326e3ed00019896a5,676192165fb32c2e1fb7aee6,67d0b23f22823a223eec8ad2,2025-03-11_16h02.25.167,Tarea de decisión léxica,2024.2.5,Win32,59.52380952,,,,,,,,,,,,,,,,,,,,,,,,1021.6238,1022.6721,l,1,0.3693,1,1022.6723,1023.1715,,,,,,288,FEM,NOWORD,AGR,150,fosta,,la,,0.3693,,1023.1715,1023.1716,-0.083333333,-0.084635417,0,0,0,,0,147,147,287,1,lista,,,,,
,,,,,,5c90617326e3ed00019896a5,676192165fb32c2e1fb7aee6,67d0b23f22823a223eec8ad2,2025-03-11_16h02.25.167,Tarea de decisión léxica,2024.2.5,Win32,59.52380952,,,,,,,,,,,,,,,,,,,,,,,,1023.1731,1024.4217,l,1,0.5719,1,1024.4219,1024.9215,,,,,,30,MAS,NOWORD,DIS,150,pono,,la,,0.5719,,1024.9216,1024.9217,-0.083333333,-0.084635417,0,0,0,,0,148,148,29,1,modo,,,,,
,,,,,,5c90617326e3ed00019896a5,676192165fb32c2e1fb7aee6,67d0b23f22823a223eec8ad2,2025-03-11_16h02.25.167,Tarea de decisión léxica,2024.2.5,Win32,59.52380952,,,,,,,,,,,,,,,,,,,,,,,,1024.9243,1026.0222,a,1,0.4176,1,1026.0223,1026.5223,,,,,,173,FEM,WORD,DIS,150,rosa,,el,,0.4176,,1026.5224,1026.5227,-0.083333333,-0.084635417,0,0,0,,0,149,149,172,1,boma,,,,,
,,,,,,5c90617326e3ed00019896a5,676192165fb32c2e1fb7aee6,67d0b23f22823a223eec8ad2,2025-03-11_16h02.25.167,Tarea de decisión léxica,2024.2.5,Win32,59.52380952,,,,,,,,,,,,,,,,,,,,,,,,1026.5258,1027.6888,l,1,0.4839,1,1027.689,1028.1891,,,,,,162,MAS,NOWORD,DIS,150,bopo,,la,,0.4839,,1028.1892,1028.1894,-0.083333333,-0.084635417,0,0,0,,0,150,150,161,1,coro,,,,,
,,,,,,5c90617326e3ed00019896a5,676192165fb32c2e1fb7aee6,67d0b23f22823a223eec8ad2,2025-03-11_16h02.25.167,Tarea de decisión léxica,2024.2.5,Win32,59.52380952,,,,,,,,,,,,,,,,,,,,,,,,1028.1926,1029.3223,a,0,0.4505,0,1029.3237,1029.8222,,,,,,2,FEM,NOWORD,DIS,150,mada,,el,,0.4505,,1029.8252,1029.8262,-0.083333333,-0.084635417,0,0,0,,0,151,151,1,1,casa,,,,,
,,,,,,5c90617326e3ed00019896a5,676192165fb32c2e1fb7aee6,67d0b23f22823a223eec8ad2,2025-03-11_16h02.25.167,Tarea de decisión léxica,2024.2.5,Win32,59.52380952,,,,,,,,,,,,,,,,,,,,,,,,1029.8273,1031.0218,a,1,0.5155,1,1031.0231,1031.5223,,,,,,399,MAS,WORD,AGR,150,techo,,el,,0.5155,,1031.5224,1031.5226,-0.083333333,-0.084635417,0,0,0,,0,152,152,398,1,serro,,,,,
,,,,,,5c90617326e3ed00019896a5,676192165fb32c2e1fb7aee6,67d0b23f22823a223eec8ad2,2025-03-11_16h02.25.167,Tarea de decisión léxica,2024.2.5,Win32,59.52380952,,,,,,,,,,,,,,,,,,,,,,,,1031.5253,1032.639,a,1,0.4336,1,1032.6391,1033.1391,,,,,,361,FEM,WORD,DIS,150,torre,,el,,0.4336,,1033.1391,1033.1393,-0.083333333,-0.084635417,0,0,0,,0,153,153,360,1,solle,,,,,
,,,,,,5c90617326e3ed00019896a5,676192165fb32c2e1fb7aee6,67d0b23f22823a223eec8ad2,2025-03-11_16h02.25.167,Tarea de decisión léxica,2024.2.5,Win32,59.52380952,,,,,,,,,,,,,,,,,,,,,,,,1033.1422,1034.1728,a,1,0.3568,1,1034.173,1034.6727,,,,,,267,MAS,WORD,DIS,150,libro,,la,,0.3568,,1034.6728,1034.673,-0.083333333,-0.084635417,0,0,0,,0,154,154,266,1,figro,,,,,
,,,,,,5c90617326e3ed00019896a5,676192165fb32c2e1fb7aee6,67d0b23f22823a223eec8ad2,2025-03-11_16h02.25.167,Tarea de decisión léxica,2024.2.5,Win32,59.52380952,,,,,,,,,,,,,,,,,,,,,,,,1034.6759,1035.5895,a,1,0.2343,1,1035.5897,1036.089,,,,,,219,FEM,WORD,AGR,150,pipa,,la,,0.2343,,1036.0916,1036.0925,-0.083333333,-0.084635417,0,0,0,,0,155,155,218,1,miva,,,,,
,,,,,,5c90617326e3ed00019896a5,676192165fb32c2e1fb7aee6,67d0b23f22823a223eec8ad2,2025-03-11_16h02.25.167,Tarea de decisión léxica,2024.2.5,Win32,59.52380952,,,,,,,,,,,,,,,,,,,,,,,,1036.0937,1037.1556,a,1,0.3847,1,1037.1557,1037.6565,,,,,,331,MAS,WORD,AGR,150,éxito,,el,,0.3847,,1037.6566,1037.6568,-0.083333333,-0.084635417,0,0,0,,0,156,156,330,1,erato,,,,,
,,,,,,5c90617326e3ed00019896a5,676192165fb32c2e1fb7aee6,67d0b23f22823a223eec8ad2,2025-03-11_16h02.25.167,Tarea de decisión léxica,2024.2.5,Win32,59.52380952,,,,,,,,,,,,,,,,,,,,,,,,1037.6597,1038.7225,a,1,0.3858,1,1038.7227,1039.2232,,,,,,293,MAS,WORD,AGR,150,campo,,el,,0.3858,,1039.2233,1039.2235,-0.083333333,-0.084635417,0,0,0,,0,157,157,292,1,cacso,,,,,
,,,,,,5c90617326e3ed00019896a5,676192165fb32c2e1fb7aee6,67d0b23f22823a223eec8ad2,2025-03-11_16h02.25.167,Tarea de decisión léxica,2024.2.5,Win32,59.52380952,,,,,,,,,,,,,,,,,,,,,,,,1039.2265,1040.3392,l,1,0.4368,1,1040.3394,1040.8394,,,,,,42,FEM,NOWORD,DIS,150,haje,,el,,0.4368,,1040.8395,1040.8397,-0.083333333,-0.084635417,0,0,0,,0,158,158,41,1,nave,,,,,
,,,,,,5c90617326e3ed00019896a5,676192165fb32c2e1fb7aee6,67d0b23f22823a223eec8ad2,2025-03-11_16h02.25.167,Tarea de decisión léxica,2024.2.5,Win32,59.52380952,,,,,,,,,,,,,,,,,,,,,,,,1040.8424,1042.2562,a,0,0.7389,0,1042.2573,1042.7565,,,,,,58,MAS,NOWORD,DIS,150,heco,,la,,0.7389,,1042.7567,1042.7568,-0.083333333,-0.084635417,0,0,0,,0,159,159,57,1,dedo,,,,,
,,,,,,5c90617326e3ed00019896a5,676192165fb32c2e1fb7aee6,67d0b23f22823a223eec8ad2,2025-03-11_16h02.25.167,Tarea de decisión léxica,2024.2.5,Win32,59.52380952,,,,,,,,,,,,,,,,,,,,,,,,1042.7597,1044.0569,a,0,0.6188,0,1044.057,1044.5565,,,,,,192,FEM,NOWORD,AGR,150,bila,,la,,0.6188,,1044.5597,1116.9566,-0.098958333,-0.33203125,0,0,0,space,0,160,160,191,1,pila,,72.3709,0.0004,,
,,,,,,5c90617326e3ed00019896a5,676192165fb32c2e1fb7aee6,67d0b23f22823a223eec8ad2,2025-03-11_16h02.25.167,Tarea de decisión léxica,2024.2.5,Win32,59.52380952,,,,,,,,,,,,,,,,,,,,,,,,1116.9577,1119.6032,,0,0.6188,-1,1119.6039,1120.0962,,,,,,200,MAS,NOWORD,AGR,150,fano,,el,,,,1120.0967,1120.097,-0.098958333,-0.33203125,0,0,0,,0,161,161,199,1,lazo,,,,,
,,,,,,5c90617326e3ed00019896a5,676192165fb32c2e1fb7aee6,67d0b23f22823a223eec8ad2,2025-03-11_16h02.25.167,Tarea de decisión léxica,2024.2.5,Win32,59.52380952,,,,,,,,,,,,,,,,,,,,,,,,1120.0983,1122.7366,,0,0.6188,-1,1122.7368,1123.2291,,,,,,198,MAS,NOWORD,DIS,150,dade,,la,,,,1123.2294,1123.2296,-0.098958333,-0.33203125,0,0,0,,0,162,162,197,1,bate,,,,,
,,,,,,5c90617326e3ed00019896a5,676192165fb32c2e1fb7aee6,67d0b23f22823a223eec8ad2,2025-03-11_16h02.25.167,Tarea de decisión léxica,2024.2.5,Win32,59.52380952,,,,,,,,,,,,,,,,,,,,,,,,1123.2311,1124.3222,a,1,0.4097,1,1124.3235,1124.8212,,,,,,37,MAS,WORD,AGR,150,rato,,el,,0.4097,,1124.8213,1124.8213,-0.098958333,-0.33203125,0,0,0,,0,163,163,36,1,gaco,,,,,
,,,,,,5c90617326e3ed00019896a5,676192165fb32c2e1fb7aee6,67d0b23f22823a223eec8ad2,2025-03-11_16h02.25.167,Tarea de decisión léxica,2024.2.5,Win32,59.52380952,,,,,,,,,,,,,,,,,,,,,,,,1124.8221,1125.8886,l,1,0.3855,1,1125.8887,1126.3805,,,,,,176,FEM,NOWORD,AGR,150,hosa,,la,,0.3855,,1126.3808,1126.3811,-0.098958333,-0.33203125,0,0,0,,0,164,164,175,1,goma,,,,,
,,,,,,5c90617326e3ed00019896a5,676192165fb32c2e1fb7aee6,67d0b23f22823a223eec8ad2,2025-03-11_16h02.25.167,Tarea de decisión léxica,2024.2.5,Win32,59.52380952,,,,,,,,,,,,,,,,,,,,,,,,1126.3831,1127.6159,a,1,0.5686,1,1127.6164,1128.1129,,,,,,195,FEM,WORD,DIS,150,tela,,el,,0.5686,,1128.1148,1128.1153,-0.098958333,-0.33203125,0,0,0,,0,165,165,194,1,sira,,,,,
,,,,,,5c90617326e3ed00019896a5,676192165fb32c2e1fb7aee6,67d0b23f22823a223eec8ad2,2025-03-11_16h02.25.167,Tarea de decisión léxica,2024.2.5,Win32,59.52380952,,,,,,,,,,,,,,,,,,,,,,,,1128.1157,1129.2467,l,1,0.4517,1,1129.2469,1129.7464,,,,,,308,MAS,NOWORD,AGR,150,holol,,el,,0.4517,,1129.7465,1129.7467,-0.098958333,-0.33203125,0,0,0,,0,166,166,307,1,hotel,,,,,
,,,,,,5c90617326e3ed00019896a5,676192165fb32c2e1fb7aee6,67d0b23f22823a223eec8ad2,2025-03-11_16h02.25.167,Tarea de decisión léxica,2024.2.5,Win32,59.52380952,,,,,,,,,,,,,,,,,,,,,,,,1129.7486,1130.8473,l,1,0.4085,1,1130.8477,1131.3472,,,,,,304,MAS,NOWORD,AGR,150,lanco,,el,,0.4085,,1131.3474,1131.3477,-0.098958333,-0.33203125,0,0,0,,0,167,167,303,1,barco,,,,,
,,,,,,5c90617326e3ed00019896a5,676192165fb32c2e1fb7aee6,67d0b23f22823a223eec8ad2,2025-03-11_16h02.25.167,Tarea de decisión léxica,2024.2.5,Win32,59.52380952,,,,,,,,,,,,,,,,,,,,,,,,1131.3498,1134.0046,,0,0.4085,-1,1134.0061,1134.4967,,,,,,48,MAS,NOWORD,AGR,150,chub,,el,,,,1134.4969,1134.4972,-0.098958333,-0.33203125,0,0,0,,0,168,168,47,1,club,,,,,
,,,,,,5c90617326e3ed00019896a5,676192165fb32c2e1fb7aee6,67d0b23f22823a223eec8ad2,2025-03-11_16h02.25.167,Tarea de decisión léxica,2024.2.5,Win32,59.52380952,,,,,,,,,,,,,,,,,,,,,,,,1134.4984,1135.5491,l,1,0.3891,1,1135.5514,1136.0472,,,,,,340,MAS,NOWORD,AGR,150,plajo,,el,,0.3891,,1136.0476,1136.0479,-0.098958333,-0.33203125,0,0,0,,0,169,169,339,1,brazo,,,,,
,,,,,,5c90617326e3ed00019896a5,676192165fb32c2e1fb7aee6,67d0b23f22823a223eec8ad2,2025-03-11_16h02.25.167,Tarea de decisión léxica,2024.2.5,Win32,59.52380952,,,,,,,,,,,,,,,,,,,,,,,,1136.0492,1137.2719,l,1,0.5337,1,1137.272,1137.7644,,,,,,324,FEM,NOWORD,AGR,150,certa,,la,,0.5337,,1137.7667,1137.7678,-0.098958333,-0.33203125,0,0,0,,0,170,170,323,1,cinta,,,,,
,,,,,,5c90617326e3ed00019896a5,676192165fb32c2e1fb7aee6,67d0b23f22823a223eec8ad2,2025-03-11_16h02.25.167,Tarea de decisión léxica,2024.2.5,Win32,59.52380952,,,,,,,,,,,,,,,,,,,,,,,,1137.7688,1138.983,l,1,0.5524,1,1138.9831,1139.4816,,,,,,90,MAS,NOWORD,DIS,150,guso,,la,,0.5524,,1139.4817,1139.4819,-0.098958333,-0.33203125,0,0,0,,0,171,171,89,1,humo,,,,,
,,,,,,5c90617326e3ed00019896a5,676192165fb32c2e1fb7aee6,67d0b23f22823a223eec8ad2,2025-03-11_16h02.25.167,Tarea de decisión léxica,2024.2.5,Win32,59.52380952,,,,,,,,,,,,,,,,,,,,,,,,1139.4842,1140.6308,a,1,0.466,1,1140.6312,1141.1318,,,,,,155,FEM,WORD,DIS,150,fuga,,el,,0.466,,1141.1319,1141.1321,-0.098958333,-0.33203125,0,0,0,,0,172,172,154,1,luma,,,,,
,,,,,,5c90617326e3ed00019896a5,676192165fb32c2e1fb7aee6,67d0b23f22823a223eec8ad2,2025-03-11_16h02.25.167,Tarea de decisión léxica,2024.2.5,Win32,59.52380952,,,,,,,,,,,,,,,,,,,,,,,,1141.135,1142.2809,a,1,0.4793,1,1142.2813,1142.7812,,,,,,93,FEM,WORD,AGR,150,bola,,la,,0.4793,,1142.7815,1142.7819,-0.098958333,-0.33203125,0,0,0,,0,173,173,92,1,rona,,,,,
,,,,,,5c90617326e3ed00019896a5,676192165fb32c2e1fb7aee6,67d0b23f22823a223eec8ad2,2025-03-11_16h02.25.167,Tarea de decisión léxica,2024.2.5,Win32,59.52380952,,,,,,,,,,,,,,,,,,,,,,,,1142.7844,1143.798,a,1,0.3274,1,1143.7984,1144.298,,,,,,375,FEM,WORD,AGR,150,salsa,,la,,0.3274,,1144.2983,1144.2986,-0.098958333,-0.33203125,0,0,0,,0,174,174,374,1,sasna,,,,,
,,,,,,5c90617326e3ed00019896a5,676192165fb32c2e1fb7aee6,67d0b23f22823a223eec8ad2,2025-03-11_16h02.25.167,Tarea de decisión léxica,2024.2.5,Win32,59.52380952,,,,,,,,,,,,,,,,,,,,,,,,1144.3003,1145.4837,a,1,0.494,1,1145.4842,1145.9812,,,,,,81,FEM,WORD,DIS,150,dama,,el,,0.494,,1145.9838,1145.985,-0.098958333,-0.33203125,0,0,0,,0,175,175,80,1,vasa,,,,,
,,,,,,5c90617326e3ed00019896a5,676192165fb32c2e1fb7aee6,67d0b23f22823a223eec8ad2,2025-03-11_16h02.25.167,Tarea de decisión léxica,2024.2.5,Win32,59.52380952,,,,,,,,,,,,,,,,,,,,,,,,1145.9862,1147.0651,l,1,0.3877,1,1147.0656,1147.5651,,,,,,38,MAS,NOWORD,DIS,150,gaco,,la,,0.3877,,1147.5655,1147.5657,-0.098958333,-0.33203125,0,0,0,,0,176,176,37,1,rato,,,,,
,,,,,,5c90617326e3ed00019896a5,676192165fb32c2e1fb7aee6,67d0b23f22823a223eec8ad2,2025-03-11_16h02.25.167,Tarea de decisión léxica,2024.2.5,Win32,59.52380952,,,,,,,,,,,,,,,,,,,,,,,,1147.5673,1148.6485,l,1,0.4055,1,1148.6489,1149.1487,,,,,,394,FEM,NOWORD,DIS,150,ashea,,el,,0.4055,,1149.149,1149.1491,-0.098958333,-0.33203125,0,0,0,,0,177,177,393,1,aldea,,,,,
,,,,,,5c90617326e3ed00019896a5,676192165fb32c2e1fb7aee6,67d0b23f22823a223eec8ad2,2025-03-11_16h02.25.167,Tarea de decisión léxica,2024.2.5,Win32,59.52380952,,,,,,,,,,,,,,,,,,,,,,,,1149.1498,1150.2649,l,1,0.4356,1,1150.2652,1150.7653,,,,,,116,FEM,NOWORD,AGR,150,haca,,la,,0.4356,,1150.7656,1150.7661,-0.098958333,-0.33203125,0,0,0,,0,178,178,115,1,pata,,,,,
,,,,,,5c90617326e3ed00019896a5,676192165fb32c2e1fb7aee6,67d0b23f22823a223eec8ad2,2025-03-11_16h02.25.167,Tarea de decisión léxica,2024.2.5,Win32,59.52380952,,,,,,,,,,,,,,,,,,,,,,,,1150.768,1151.8487,a,1,0.3933,1,1151.8493,1152.349,,,,,,143,MAS,WORD,DIS,150,pavo,,la,,0.3933,,1152.3516,1152.3533,-0.098958333,-0.33203125,0,0,0,,0,179,179,142,1,pezo,,,,,
,,,,,,5c90617326e3ed00019896a5,676192165fb32c2e1fb7aee6,67d0b23f22823a223eec8ad2,2025-03-11_16h02.25.167,Tarea de decisión léxica,2024.2.5,Win32,59.52380952,,,,,,,,,,,,,,,,,,,,,,,,1152.3547,1153.382,a,1,0.3642,1,1153.3825,1153.8736,,,,,,287,FEM,WORD,DIS,150,lista,,el,,0.3642,,1153.8738,1153.874,-0.098958333,-0.33203125,0,0,0,,0,180,180,286,1,fosta,,,,,
,,,,,,5c90617326e3ed00019896a5,676192165fb32c2e1fb7aee6,67d0b23f22823a223eec8ad2,2025-03-11_16h02.25.167,Tarea de decisión léxica,2024.2.5,Win32,59.52380952,,,,,,,,,,,,,,,,,,,,,,,,1153.8755,1154.9494,a,0,0.4033,0,1154.9508,1155.4489,,,,,,164,FEM,NOWORD,AGR,150,laga,,la,,0.4033,,1155.4492,1155.4495,-0.098958333,-0.33203125,0,0,0,,0,181,181,163,1,fama,,,,,
,,,,,,5c90617326e3ed00019896a5,676192165fb32c2e1fb7aee6,67d0b23f22823a223eec8ad2,2025-03-11_16h02.25.167,Tarea de decisión léxica,2024.2.5,Win32,59.52380952,,,,,,,,,,,,,,,,,,,,,,,,1155.4514,1156.6535,l,1,0.5229,1,1156.6541,1157.1496,,,,,,104,FEM,NOWORD,AGR,150,rova,,la,,0.5229,,1157.1496,1157.1499,-0.098958333,-0.33203125,0,0,0,,0,182,182,103,1,ruta,,,,,
,,,,,,5c90617326e3ed00019896a5,676192165fb32c2e1fb7aee6,67d0b23f22823a223eec8ad2,2025-03-11_16h02.25.167,Tarea de decisión léxica,2024.2.5,Win32,59.52380952,,,,,,,,,,,,,,,,,,,,,,,,1157.1531,1158.1822,a,1,0.3636,1,1158.1826,1158.6825,,,,,,213,FEM,WORD,AGR,150,rama,,la,,0.3636,,1158.6829,1158.6833,-0.098958333,-0.33203125,0,0,0,,0,183,183,212,1,bana,,,,,
,,,,,,5c90617326e3ed00019896a5,676192165fb32c2e1fb7aee6,67d0b23f22823a223eec8ad2,2025-03-11_16h02.25.167,Tarea de decisión léxica,2024.2.5,Win32,59.52380952,,,,,,,,,,,,,,,,,,,,,,,,1158.6858,1159.7908,l,1,0.4251,1,1159.791,1160.2829,,,,,,172,MAS,NOWORD,AGR,150,niro,,el,,0.4251,,1160.285,1160.2856,-0.098958333,-0.33203125,0,0,0,,0,184,184,171,1,hilo,,,,,
,,,,,,5c90617326e3ed00019896a5,676192165fb32c2e1fb7aee6,67d0b23f22823a223eec8ad2,2025-03-11_16h02.25.167,Tarea de decisión léxica,2024.2.5,Win32,59.52380952,,,,,,,,,,,,,,,,,,,,,,,,1160.2862,1161.3647,l,0,0.4011,0,1161.3666,1161.8665,,,,,,369,MAS,WORD,AGR,150,ruido,,el,,0.4011,,1161.8668,1161.867,-0.098958333,-0.33203125,0,0,0,,0,185,185,368,1,rioco,,,,,
,,,,,,5c90617326e3ed00019896a5,676192165fb32c2e1fb7aee6,67d0b23f22823a223eec8ad2,2025-03-11_16h02.25.167,Tarea de decisión léxica,2024.2.5,Win32,59.52380952,,,,,,,,,,,,,,,,,,,,,,,,1161.8693,1162.9166,l,0,0.3559,0,1162.9167,1163.4161,,,,,,77,MAS,WORD,AGR,150,loco,,el,,0.3559,,1163.4164,1163.4167,-0.098958333,-0.33203125,0,0,0,,0,186,186,76,1,fodo,,,,,
,,,,,,5c90617326e3ed00019896a5,676192165fb32c2e1fb7aee6,67d0b23f22823a223eec8ad2,2025-03-11_16h02.25.167,Tarea de decisión léxica,2024.2.5,Win32,59.52380952,,,,,,,,,,,,,,,,,,,,,,,,1163.4189,1164.6083,l,1,0.5258,1,1164.6095,1165.0996,,,,,,296,MAS,NOWORD,AGR,150,goler,,el,,0.5258,,1165.0999,1165.1004,-0.098958333,-0.33203125,0,0,0,,0,187,187,295,1,dolor,,,,,
,,,,,,5c90617326e3ed00019896a5,676192165fb32c2e1fb7aee6,67d0b23f22823a223eec8ad2,2025-03-11_16h02.25.167,Tarea de decisión léxica,2024.2.5,Win32,59.52380952,,,,,,,,,,,,,,,,,,,,,,,,1165.1022,1166.1493,a,1,0.3672,1,1166.1497,1166.6503,,,,,,27,MAS,WORD,DIS,150,baño,,la,,0.3672,,1166.6505,1166.6507,-0.098958333,-0.33203125,0,0,0,,0,188,188,26,1,ravo,,,,,
,,,,,,5c90617326e3ed00019896a5,676192165fb32c2e1fb7aee6,67d0b23f22823a223eec8ad2,2025-03-11_16h02.25.167,Tarea de decisión léxica,2024.2.5,Win32,59.52380952,,,,,,,,,,,,,,,,,,,,,,,,1166.6531,1167.8162,l,1,0.497,1,1167.8166,1168.317,,,,,,72,FEM,NOWORD,AGR,150,urla,,la,,0.497,,1168.3199,1168.3214,-0.098958333,-0.33203125,0,0,0,,0,189,189,71,1,isla,,,,,
,,,,,,5c90617326e3ed00019896a5,676192165fb32c2e1fb7aee6,67d0b23f22823a223eec8ad2,2025-03-11_16h02.25.167,Tarea de decisión léxica,2024.2.5,Win32,59.52380952,,,,,,,,,,,,,,,,,,,,,,,,1168.3226,1169.4659,l,0,0.4695,0,1169.4668,1169.9673,,,,,,453,FEM,WORD,DIS,150,mafia,,el,,0.4695,,1169.9675,1169.9679,-0.098958333,-0.33203125,0,0,0,,0,190,190,452,1,pafia,,,,,
,,,,,,5c90617326e3ed00019896a5,676192165fb32c2e1fb7aee6,67d0b23f22823a223eec8ad2,2025-03-11_16h02.25.167,Tarea de decisión léxica,2024.2.5,Win32,59.52380952,,,,,,,,,,,,,,,,,,,,,,,,1169.9706,1171.1678,l,1,0.5101,1,1171.1694,1171.6574,,,,,,450,FEM,NOWORD,DIS,150,crusa,,el,,0.5101,,1171.6575,1171.6575,-0.098958333,-0.33203125,0,0,0,,0,191,191,449,1,pluma,,,,,
,,,,,,5c90617326e3ed00019896a5,676192165fb32c2e1fb7aee6,67d0b23f22823a223eec8ad2,2025-03-11_16h02.25.167,Tarea de decisión léxica,2024.2.5,Win32,59.52380952,,,,,,,,,,,,,,,,,,,,,,,,1171.6582,1172.8506,a,1,0.5167,1,1172.8512,1173.3504,,,,,,433,MAS,WORD,AGR,150,disco,,el,,0.5167,,1173.3507,1173.3508,-0.098958333,-0.33203125,0,0,0,,0,192,192,432,1,durco,,,,,
,,,,,,5c90617326e3ed00019896a5,676192165fb32c2e1fb7aee6,67d0b23f22823a223eec8ad2,2025-03-11_16h02.25.167,Tarea de decisión léxica,2024.2.5,Win32,59.52380952,,,,,,,,,,,,,,,,,,,,,,,,1173.3524,1174.4078,a,1,0.3928,1,1174.4079,1174.9004,,,,,,315,FEM,WORD,DIS,150,reina,,el,,0.3928,,1174.9007,1174.9011,-0.098958333,-0.33203125,0,0,0,,0,193,193,314,1,riosa,,,,,
,,,,,,5c90617326e3ed00019896a5,676192165fb32c2e1fb7aee6,67d0b23f22823a223eec8ad2,2025-03-11_16h02.25.167,Tarea de decisión léxica,2024.2.5,Win32,59.52380952,,,,,,,,,,,,,,,,,,,,,,,,1174.903,1176.0503,a,1,0.4694,1,1176.0507,1176.5576,,,,,,125,MAS,WORD,DIS,150,lujo,,la,,0.4694,,1176.5591,1176.56,-0.098958333,-0.33203125,0,0,0,,0,194,194,124,1,vudo,,,,,
,,,,,,5c90617326e3ed00019896a5,676192165fb32c2e1fb7aee6,67d0b23f22823a223eec8ad2,2025-03-11_16h02.25.167,Tarea de decisión léxica,2024.2.5,Win32,59.52380952,,,,,,,,,,,,,,,,,,,,,,,,1176.5612,1177.7351,l,1,0.5097,1,1177.7358,1178.2338,,,,,,460,MAS,NOWORD,AGR,150,fraco,,el,,0.5097,,1178.2341,1178.2344,-0.098958333,-0.33203125,0,0,0,,0,195,195,459,1,grado,,,,,
,,,,,,5c90617326e3ed00019896a5,676192165fb32c2e1fb7aee6,67d0b23f22823a223eec8ad2,2025-03-11_16h02.25.167,Tarea de decisión léxica,2024.2.5,Win32,59.52380952,,,,,,,,,,,,,,,,,,,,,,,,1178.2365,1179.4505,l,1,0.5347,1,1179.451,1179.9512,,,,,,150,MAS,NOWORD,DIS,150,pafo,,la,,0.5347,,1179.9514,1179.9515,-0.098958333,-0.33203125,0,0,0,,0,196,196,149,1,cabo,,,,,
,,,,,,5c90617326e3ed00019896a5,676192165fb32c2e1fb7aee6,67d0b23f22823a223eec8ad2,2025-03-11_16h02.25.167,Tarea de decisión léxica,2024.2.5,Win32,59.52380952,,,,,,,,,,,,,,,,,,,,,,,,1179.9536,1181.0171,a,0,0.3786,0,1181.0188,1181.5169,,,,,,122,MAS,NOWORD,DIS,150,bomo,,la,,0.3786,,1181.5171,1181.5176,-0.098958333,-0.33203125,0,0,0,,0,197,197,121,1,hoyo,,,,,
,,,,,,5c90617326e3ed00019896a5,676192165fb32c2e1fb7aee6,67d0b23f22823a223eec8ad2,2025-03-11_16h02.25.167,Tarea de decisión léxica,2024.2.5,Win32,59.52380952,,,,,,,,,,,,,,,,,,,,,,,,1181.5199,1182.5671,a,1,0.3703,1,1182.5688,1183.0584,,,,,,473,FEM,WORD,AGR,150,feria,,la,,0.3703,,1183.0585,1183.0585,-0.098958333,-0.33203125,0,0,0,,0,198,198,472,1,felia,,,,,
,,,,,,5c90617326e3ed00019896a5,676192165fb32c2e1fb7aee6,67d0b23f22823a223eec8ad2,2025-03-11_16h02.25.167,Tarea de decisión léxica,2024.2.5,Win32,59.52380952,,,,,,,,,,,,,,,,,,,,,,,,1183.0592,1184.1676,a,1,0.4304,1,1184.168,1184.6583,,,,,,115,FEM,WORD,DIS,150,pata,,el,,0.4304,,1184.659,1184.6594,-0.098958333,-0.33203125,0,0,0,,0,199,199,114,1,haca,,,,,
,,,,,,5c90617326e3ed00019896a5,676192165fb32c2e1fb7aee6,67d0b23f22823a223eec8ad2,2025-03-11_16h02.25.167,Tarea de decisión léxica,2024.2.5,Win32,59.52380952,,,,,,,,,,,,,,,,,,,,,,,,1184.6598,1185.8682,a,1,0.5257,1,1185.8687,1186.3679,,,,,,83,FEM,WORD,AGR,150,bala,,la,,0.5257,,1186.3682,1186.3685,-0.098958333,-0.33203125,0,0,0,,0,200,200,82,1,taga,,,,,
,,,,,,5c90617326e3ed00019896a5,676192165fb32c2e1fb7aee6,67d0b23f22823a223eec8ad2,2025-03-11_16h02.25.167,Tarea de decisión léxica,2024.2.5,Win32,59.52380952,,,,,,,,,,,,,,,,,,,,,,,,1186.37,1187.4505,a,1,0.3855,1,1187.4511,1187.9507,,,,,,357,FEM,WORD,AGR,150,bruja,,la,,0.3855,,1187.9511,1187.9514,-0.098958333,-0.33203125,0,0,0,,0,201,201,356,1,gruba,,,,,
,,,,,,5c90617326e3ed00019896a5,676192165fb32c2e1fb7aee6,67d0b23f22823a223eec8ad2,2025-03-11_16h02.25.167,Tarea de decisión léxica,2024.2.5,Win32,59.52380952,,,,,,,,,,,,,,,,,,,,,,,,1187.9538,1188.9179,a,1,0.2836,1,1188.9184,1189.4182,,,,,,299,FEM,WORD,AGR,150,bolsa,,la,,0.2836,,1189.4185,1189.4189,-0.098958333,-0.33203125,0,0,0,,0,202,202,298,1,bosga,,,,,
,,,,,,5c90617326e3ed00019896a5,676192165fb32c2e1fb7aee6,67d0b23f22823a223eec8ad2,2025-03-11_16h02.25.167,Tarea de decisión léxica,2024.2.5,Win32,59.52380952,,,,,,,,,,,,,,,,,,,,,,,,1189.4211,1190.7173,a,1,0.6133,1,1190.7178,1191.2184,,,,,,303,MAS,WORD,DIS,150,barco,,la,,0.6133,,1191.2211,1191.2226,-0.098958333,-0.33203125,0,0,0,,0,203,203,302,1,lanco,,,,,
,,,,,,5c90617326e3ed00019896a5,676192165fb32c2e1fb7aee6,67d0b23f22823a223eec8ad2,2025-03-11_16h02.25.167,Tarea de decisión léxica,2024.2.5,Win32,59.52380952,,,,,,,,,,,,,,,,,,,,,,,,1191.224,1192.2848,a,0,0.3698,0,1192.2867,1192.7853,,,,,,194,FEM,NOWORD,DIS,150,foda,,el,,0.3698,,1192.7856,1192.7859,-0.098958333,-0.33203125,0,0,0,,0,204,204,193,1,loca,,,,,
,,,,,,5c90617326e3ed00019896a5,676192165fb32c2e1fb7aee6,67d0b23f22823a223eec8ad2,2025-03-11_16h02.25.167,Tarea de decisión léxica,2024.2.5,Win32,59.52380952,,,,,,,,,,,,,,,,,,,,,,,,1192.788,1193.785,a,0,0.3137,0,1193.7854,1194.2927,,,,,,226,MAS,NOWORD,DIS,150,boco,,la,,0.3137,,1194.2928,1194.2929,-0.098958333,-0.33203125,0,0,0,,0,205,205,225,1,lodo,,,,,
,,,,,,5c90617326e3ed00019896a5,676192165fb32c2e1fb7aee6,67d0b23f22823a223eec8ad2,2025-03-11_16h02.25.167,Tarea de decisión léxica,2024.2.5,Win32,59.52380952,,,,,,,,,,,,,,,,,,,,,,,,1194.2943,1195.2769,a,1,0.3145,1,1195.2783,1195.7755,,,,,,391,MAS,WORD,DIS,150,dueño,,la,,0.3145,,1195.7757,1195.7758,-0.098958333,-0.33203125,0,0,0,,0,206,206,390,1,dievo,,,,,
,,,,,,5c90617326e3ed00019896a5,676192165fb32c2e1fb7aee6,67d0b23f22823a223eec8ad2,2025-03-11_16h02.25.167,Tarea de decisión léxica,2024.2.5,Win32,59.52380952,,,,,,,,,,,,,,,,,,,,,,,,1195.7775,1196.8546,a,1,0.4024,1,1196.855,1197.3523,,,,,,229,MAS,WORD,DIS,150,amor,,la,,0.4024,,1197.3526,1197.3528,-0.098958333,-0.33203125,0,0,0,,0,207,207,228,1,ador,,,,,
,,,,,,5c90617326e3ed00019896a5,676192165fb32c2e1fb7aee6,67d0b23f22823a223eec8ad2,2025-03-11_16h02.25.167,Tarea de decisión léxica,2024.2.5,Win32,59.52380952,,,,,,,,,,,,,,,,,,,,,,,,1197.3543,1198.6033,a,1,0.5702,1,1198.6036,1199.1017,,,,,,221,FEM,WORD,DIS,150,mula,,el,,0.5702,,1199.1042,1199.1053,-0.098958333,-0.33203125,0,0,0,,0,208,208,220,1,puca,,,,,
,,,,,,5c90617326e3ed00019896a5,676192165fb32c2e1fb7aee6,67d0b23f22823a223eec8ad2,2025-03-11_16h02.25.167,Tarea de decisión léxica,2024.2.5,Win32,59.52380952,,,,,,,,,,,,,,,,,,,,,,,,1199.1063,1200.1188,a,1,0.3281,1,1200.1193,1200.6103,,,,,,231,FEM,WORD,DIS,150,bota,,el,,0.3281,,1200.6105,1200.6106,-0.098958333,-0.33203125,0,0,0,,0,209,209,230,1,heta,,,,,
,,,,,,5c90617326e3ed00019896a5,676192165fb32c2e1fb7aee6,67d0b23f22823a223eec8ad2,2025-03-11_16h02.25.167,Tarea de decisión léxica,2024.2.5,Win32,59.52380952,,,,,,,,,,,,,,,,,,,,,,,,1200.6122,1201.6598,a,1,0.3669,1,1201.66,1202.1525,,,,,,373,FEM,WORD,DIS,150,pizza,,el,,0.3669,,1202.1528,1202.1529,-0.098958333,-0.33203125,0,0,0,,0,210,210,372,1,pogza,,,,,
,,,,,,5c90617326e3ed00019896a5,676192165fb32c2e1fb7aee6,67d0b23f22823a223eec8ad2,2025-03-11_16h02.25.167,Tarea de decisión léxica,2024.2.5,Win32,59.52380952,,,,,,,,,,,,,,,,,,,,,,,,1202.1548,1203.2185,l,1,0.3792,1,1203.219,1203.7096,,,,,,98,MAS,NOWORD,DIS,150,fopo,,la,,0.3792,,1203.7097,1203.7098,-0.098958333,-0.33203125,0,0,0,,0,211,211,97,1,mono,,,,,
,,,,,,5c90617326e3ed00019896a5,676192165fb32c2e1fb7aee6,67d0b23f22823a223eec8ad2,2025-03-11_16h02.25.167,Tarea de decisión léxica,2024.2.5,Win32,59.52380952,,,,,,,,,,,,,,,,,,,,,,,,1203.7113,1204.7688,a,1,0.3859,1,1204.7693,1205.2696,,,,,,205,FEM,WORD,AGR,150,rana,,la,,0.3859,,1205.2699,1205.2701,-0.098958333,-0.33203125,0,0,0,,0,212,212,204,1,bara,,,,,
,,,,,,5c90617326e3ed00019896a5,676192165fb32c2e1fb7aee6,67d0b23f22823a223eec8ad2,2025-03-11_16h02.25.167,Tarea de decisión léxica,2024.2.5,Win32,59.52380952,,,,,,,,,,,,,,,,,,,,,,,,1205.2721,1206.3437,a,1,0.384,1,1206.3438,1206.8364,,,,,,57,MAS,WORD,AGR,150,dedo,,el,,0.384,,1206.8387,1206.84,-0.098958333,-0.33203125,0,0,0,,0,213,213,56,1,heco,,,,,
,,,,,,5c90617326e3ed00019896a5,676192165fb32c2e1fb7aee6,67d0b23f22823a223eec8ad2,2025-03-11_16h02.25.167,Tarea de decisión léxica,2024.2.5,Win32,59.52380952,,,,,,,,,,,,,,,,,,,,,,,,1206.8411,1207.853,a,1,0.3451,1,1207.8534,1208.3531,,,,,,409,MAS,WORD,AGR,150,carro,,el,,0.3451,,1208.3534,1208.3535,-0.098958333,-0.33203125,0,0,0,,0,214,214,408,1,pafro,,,,,
,,,,,,5c90617326e3ed00019896a5,676192165fb32c2e1fb7aee6,67d0b23f22823a223eec8ad2,2025-03-11_16h02.25.167,Tarea de decisión léxica,2024.2.5,Win32,59.52380952,,,,,,,,,,,,,,,,,,,,,,,,1208.3553,1209.2863,a,1,0.2488,1,1209.2866,1209.7861,,,,,,311,MAS,WORD,AGR,150,honor,,el,,0.2488,,1209.7864,1209.7867,-0.098958333,-0.33203125,0,0,0,,0,215,215,310,1,nosor,,,,,
,,,,,,5c90617326e3ed00019896a5,676192165fb32c2e1fb7aee6,67d0b23f22823a223eec8ad2,2025-03-11_16h02.25.167,Tarea de decisión léxica,2024.2.5,Win32,59.52380952,,,,,,,,,,,,,,,,,,,,,,,,1209.7888,1210.9039,l,1,0.4343,1,1210.904,1211.4034,,,,,,264,FEM,NOWORD,AGR,150,dosta,,la,,0.4343,,1211.4038,1211.4041,-0.098958333,-0.33203125,0,0,0,,0,216,216,263,1,vista,,,,,
,,,,,,5c90617326e3ed00019896a5,676192165fb32c2e1fb7aee6,67d0b23f22823a223eec8ad2,2025-03-11_16h02.25.167,Tarea de decisión léxica,2024.2.5,Win32,59.52380952,,,,,,,,,,,,,,,,,,,,,,,,1211.4062,1212.7861,l,1,0.6863,1,1212.7865,1213.2864,,,,,,166,FEM,NOWORD,DIS,150,dera,,el,,0.6863,,1213.2866,1213.2868,-0.098958333,-0.33203125,0,0,0,,0,217,217,165,1,vela,,,,,
,,,,,,5c90617326e3ed00019896a5,676192165fb32c2e1fb7aee6,67d0b23f22823a223eec8ad2,2025-03-11_16h02.25.167,Tarea de decisión léxica,2024.2.5,Win32,59.52380952,,,,,,,,,,,,,,,,,,,,,,,,1213.2876,1214.5114,l,0,0.5342,0,1214.5126,1215.0031,,,,,,161,MAS,WORD,AGR,150,coro,,el,,0.5342,,1215.0044,1215.0047,-0.098958333,-0.33203125,0,0,0,,0,218,218,160,1,bopo,,,,,
,,,,,,5c90617326e3ed00019896a5,676192165fb32c2e1fb7aee6,67d0b23f22823a223eec8ad2,2025-03-11_16h02.25.167,Tarea de decisión léxica,2024.2.5,Win32,59.52380952,,,,,,,,,,,,,,,,,,,,,,,,1215.0051,1216.1048,l,1,0.4418,1,1216.1056,1216.6037,,,,,,306,MAS,NOWORD,DIS,150,adiol,,la,,0.4418,,1216.604,1216.6043,-0.098958333,-0.33203125,0,0,0,,0,219,219,305,1,avión,,,,,
,,,,,,5c90617326e3ed00019896a5,676192165fb32c2e1fb7aee6,67d0b23f22823a223eec8ad2,2025-03-11_16h02.25.167,Tarea de decisión léxica,2024.2.5,Win32,59.52380952,,,,,,,,,,,,,,,,,,,,,,,,1216.6061,1217.6869,a,1,0.4104,1,1217.6873,1218.187,,,,,,123,FEM,WORD,AGR,150,flor,,la,,0.4104,,1218.1873,1218.1876,-0.098958333,-0.33203125,0,0,0,,0,220,220,122,1,maba,,,,,
,,,,,,5c90617326e3ed00019896a5,676192165fb32c2e1fb7aee6,67d0b23f22823a223eec8ad2,2025-03-11_16h02.25.167,Tarea de decisión léxica,2024.2.5,Win32,59.52380952,,,,,,,,,,,,,,,,,,,,,,,,1218.1892,1219.2065,l,1,0.3284,1,1219.207,1219.704,,,,,,208,MAS,NOWORD,AGR,150,kedo,,el,,0.3284,,1219.7041,1219.7043,-0.098958333,-0.33203125,0,0,0,,0,221,221,207,1,kilo,,,,,
,,,,,,5c90617326e3ed00019896a5,676192165fb32c2e1fb7aee6,67d0b23f22823a223eec8ad2,2025-03-11_16h02.25.167,Tarea de decisión léxica,2024.2.5,Win32,59.52380952,,,,,,,,,,,,,,,,,,,,,,,,1219.7063,1220.7867,l,0,0.3949,0,1220.7886,1221.2867,,,,,,157,MAS,WORD,AGR,150,nido,,el,,0.3949,,1221.2869,1221.2873,-0.098958333,-0.33203125,0,0,0,,0,222,222,156,1,hico,,,,,
,,,,,,5c90617326e3ed00019896a5,676192165fb32c2e1fb7aee6,67d0b23f22823a223eec8ad2,2025-03-11_16h02.25.167,Tarea de decisión léxica,2024.2.5,Win32,59.52380952,,,,,,,,,,,,,,,,,,,,,,,,1221.2891,1222.3547,l,1,0.3897,1,1222.356,1222.8435,,,,,,446,MAS,NOWORD,DIS,150,ascor,,la,,0.3897,,1222.8447,1222.8456,-0.098958333,-0.33203125,0,0,0,,0,223,223,445,1,actor,,,,,
,,,,,,5c90617326e3ed00019896a5,676192165fb32c2e1fb7aee6,67d0b23f22823a223eec8ad2,2025-03-11_16h02.25.167,Tarea de decisión léxica,2024.2.5,Win32,59.52380952,,,,,,,,,,,,,,,,,,,,,,,,1222.8464,1224.0557,l,1,0.5419,1,1224.0562,1224.5606,,,,,,258,FEM,NOWORD,DIS,150,asama,,el,,0.5419,,1224.5606,1224.5607,-0.098958333,-0.33203125,0,0,0,,0,224,224,257,1,amiga,,,,,
,,,,,,5c90617326e3ed00019896a5,676192165fb32c2e1fb7aee6,67d0b23f22823a223eec8ad2,2025-03-11_16h02.25.167,Tarea de decisión léxica,2024.2.5,Win32,59.52380952,,,,,,,,,,,,,,,,,,,,,,,,1224.5622,1225.7695,l,1,0.533,1,1225.77,1226.271,,,,,,418,FEM,NOWORD,DIS,150,banja,,el,,0.533,,1226.2713,1226.2716,-0.098958333,-0.33203125,0,0,0,,0,225,225,417,1,barba,,,,,
,,,,,,5c90617326e3ed00019896a5,676192165fb32c2e1fb7aee6,67d0b23f22823a223eec8ad2,2025-03-11_16h02.25.167,Tarea de decisión léxica,2024.2.5,Win32,59.52380952,,,,,,,,,,,,,,,,,,,,,,,,1226.2734,1227.2876,l,0,0.3355,0,1227.2892,1227.7878,,,,,,419,MAS,WORD,AGR,150,truco,,el,,0.3355,,1227.788,1227.788,-0.098958333,-0.33203125,0,0,0,,0,226,226,418,1,chudo,,,,,
,,,,,,5c90617326e3ed00019896a5,676192165fb32c2e1fb7aee6,67d0b23f22823a223eec8ad2,2025-03-11_16h02.25.167,Tarea de decisión léxica,2024.2.5,Win32,59.52380952,,,,,,,,,,,,,,,,,,,,,,,,1227.7895,1228.8875,l,1,0.4201,1,1228.8892,1229.3879,,,,,,374,FEM,NOWORD,DIS,150,pogza,,el,,0.4201,,1229.3901,1229.3912,-0.098958333,-0.33203125,0,0,0,,0,227,227,373,1,pizza,,,,,
,,,,,,5c90617326e3ed00019896a5,676192165fb32c2e1fb7aee6,67d0b23f22823a223eec8ad2,2025-03-11_16h02.25.167,Tarea de decisión léxica,2024.2.5,Win32,59.52380952,,,,,,,,,,,,,,,,,,,,,,,,1229.3923,1230.4209,a,1,0.34,1,1230.4213,1230.9208,,,,,,53,FEM,WORD,DIS,150,boda,,el,,0.34,,1230.9211,1230.9214,-0.098958333,-0.33203125,0,0,0,,0,228,228,52,1,rora,,,,,
,,,,,,5c90617326e3ed00019896a5,676192165fb32c2e1fb7aee6,67d0b23f22823a223eec8ad2,2025-03-11_16h02.25.167,Tarea de decisión léxica,2024.2.5,Win32,59.52380952,,,,,,,,,,,,,,,,,,,,,,,,1230.9226,1232.0043,l,1,0.4152,1,1232.0046,1232.5039,,,,,,34,FEM,NOWORD,DIS,150,loda,,el,,0.4152,,1232.5042,1232.5045,-0.098958333,-0.33203125,0,0,0,,0,229,229,33,1,boca,,,,,
,,,,,,5c90617326e3ed00019896a5,676192165fb32c2e1fb7aee6,67d0b23f22823a223eec8ad2,2025-03-11_16h02.25.167,Tarea de decisión léxica,2024.2.5,Win32,59.52380952,,,,,,,,,,,,,,,,,,,,,,,,1232.5059,1233.5899,l,1,0.4203,1,1233.59,1234.0879,,,,,,426,FEM,NOWORD,DIS,150,virca,,el,,0.4203,,1234.0881,1234.0886,-0.098958333,-0.33203125,0,0,0,,0,230,230,425,1,viuda,,,,,
,,,,,,5c90617326e3ed00019896a5,676192165fb32c2e1fb7aee6,67d0b23f22823a223eec8ad2,2025-03-11_16h02.25.167,Tarea de decisión léxica,2024.2.5,Win32,59.52380952,,,,,,,,,,,,,,,,,,,,,,,,1234.0902,1235.191,a,1,0.4276,1,1235.1915,1235.688,,,,,,101,MAS,WORD,AGR,150,tono,,el,,0.4276,,1235.6882,1235.6886,-0.098958333,-0.33203125,0,0,0,,0,231,231,100,1,gito,,,,,
,,,,,,5c90617326e3ed00019896a5,676192165fb32c2e1fb7aee6,67d0b23f22823a223eec8ad2,2025-03-11_16h02.25.167,Tarea de decisión léxica,2024.2.5,Win32,59.52380952,,,,,,,,,,,,,,,,,,,,,,,,1235.6909,1236.7891,a,1,0.417,1,1236.7893,1237.2885,,,,,,177,MAS,WORD,DIS,150,reto,,la,,0.417,,1237.2909,1237.2922,-0.098958333,-0.33203125,0,0,0,,0,232,232,176,1,bito,,,,,
,,,,,,5c90617326e3ed00019896a5,676192165fb32c2e1fb7aee6,67d0b23f22823a223eec8ad2,2025-03-11_16h02.25.167,Tarea de decisión léxica,2024.2.5,Win32,59.52380952,,,,,,,,,,,,,,,,,,,,,,,,1237.2935,1238.4546,l,1,0.4762,1,1238.4551,1238.9546,,,,,,220,FEM,NOWORD,AGR,150,miva,,la,,0.4762,,1238.9549,1238.9552,-0.098958333,-0.33203125,0,0,0,,0,233,233,219,1,pipa,,,,,
,,,,,,5c90617326e3ed00019896a5,676192165fb32c2e1fb7aee6,67d0b23f22823a223eec8ad2,2025-03-11_16h02.25.167,Tarea de decisión léxica,2024.2.5,Win32,59.52380952,,,,,,,,,,,,,,,,,,,,,,,,1238.9564,1240.1722,l,0,0.5518,0,1240.1737,1240.6795,,,,,,413,FEM,WORD,AGR,150,rueda,,la,,0.5518,,1240.6796,1240.6797,-0.098958333,-0.33203125,0,0,0,,0,234,234,412,1,bieda,,,,,
,,,,,,5c90617326e3ed00019896a5,676192165fb32c2e1fb7aee6,67d0b23f22823a223eec8ad2,2025-03-11_16h02.25.167,Tarea de decisión léxica,2024.2.5,Win32,59.52380952,,,,,,,,,,,,,,,,,,,,,,,,1240.6812,1241.8544,a,0,0.4954,0,1241.8547,1242.3549,,,,,,206,FEM,NOWORD,DIS,150,bara,,el,,0.4954,,1242.3551,1242.3555,-0.098958333,-0.33203125,0,0,0,,0,235,235,205,1,rana,,,,,
,,,,,,5c90617326e3ed00019896a5,676192165fb32c2e1fb7aee6,67d0b23f22823a223eec8ad2,2025-03-11_16h02.25.167,Tarea de decisión léxica,2024.2.5,Win32,59.52380952,,,,,,,,,,,,,,,,,,,,,,,,1242.3574,1243.508,l,1,0.4692,1,1243.5099,1244.0053,,,,,,188,MAS,NOWORD,AGR,150,suto,,el,,0.4692,,1244.0056,1244.0059,-0.098958333,-0.33203125,0,0,0,,0,236,236,187,1,mito,,,,,
,,,,,,5c90617326e3ed00019896a5,676192165fb32c2e1fb7aee6,67d0b23f22823a223eec8ad2,2025-03-11_16h02.25.167,Tarea de decisión léxica,2024.2.5,Win32,59.52380952,,,,,,,,,,,,,,,,,,,,,,,,1244.0075,1245.0222,a,1,0.3495,1,1245.0227,1245.522,,,,,,243,MAS,WORD,DIS,150,amigo,,la,,0.3495,,1245.5239,1245.5245,-0.098958333,-0.33203125,0,0,0,,0,237,237,242,1,asamo,,,,,
,,,,,,5c90617326e3ed00019896a5,676192165fb32c2e1fb7aee6,67d0b23f22823a223eec8ad2,2025-03-11_16h02.25.167,Tarea de decisión léxica,2024.2.5,Win32,59.52380952,,,,,,,,,,,,,,,,,,,,,,,,1245.525,1246.6587,a,1,0.4607,1,1246.6589,1247.1563,,,,,,285,MAS,WORD,DIS,150,error,,la,,0.4607,,1247.1566,1247.1568,-0.098958333,-0.33203125,0,0,0,,0,238,238,284,1,echor,,,,,
,,,,,,5c90617326e3ed00019896a5,676192165fb32c2e1fb7aee6,67d0b23f22823a223eec8ad2,2025-03-11_16h02.25.167,Tarea de decisión léxica,2024.2.5,Win32,59.52380952,,,,,,,,,,,,,,,,,,,,,,,,1247.1593,1248.2718,l,1,0.4198,1,1248.2723,1248.7798,,,,,,174,FEM,NOWORD,DIS,150,boma,,el,,0.4198,,1248.7799,1248.78,-0.098958333,-0.33203125,0,0,0,,0,239,239,173,1,rosa,,,,,
,,,,,,5c90617326e3ed00019896a5,676192165fb32c2e1fb7aee6,67d0b23f22823a223eec8ad2,2025-03-11_16h02.25.167,Tarea de decisión léxica,2024.2.5,Win32,59.52380952,,,,,,,,,,,,,,,,,,,,,,,,1248.7816,1250.1211,a,1,0.6595,1,1250.1215,1250.6219,,,,,,401,MAS,WORD,DIS,150,polvo,,la,,0.6595,,1250.6222,1250.6225,-0.098958333,-0.33203125,0,0,0,,0,240,240,400,1,pirvo,,,,,
,,,,,,5c90617326e3ed00019896a5,676192165fb32c2e1fb7aee6,67d0b23f22823a223eec8ad2,2025-03-11_16h02.25.167,Tarea de decisión léxica,2024.2.5,Win32,59.52380952,,,,,,,,,,,,,,,,,,,,,,,,1250.6239,1251.7388,l,0,0.4222,0,1251.7402,1252.2464,,,,,,165,FEM,WORD,DIS,150,vela,,el,,0.4222,,1252.2465,1252.2466,-0.098958333,-0.33203125,0,0,0,,0,241,241,164,1,dera,,,,,
,,,,,,5c90617326e3ed00019896a5,676192165fb32c2e1fb7aee6,67d0b23f22823a223eec8ad2,2025-03-11_16h02.25.167,Tarea de decisión léxica,2024.2.5,Win32,59.52380952,,,,,,,,,,,,,,,,,,,,,,,,1252.248,1253.3554,a,1,0.4339,1,1253.3568,1253.856,,,,,,45,FEM,WORD,AGR,150,mesa,,la,,0.4339,,1253.8583,1253.8598,-0.098958333,-0.33203125,0,0,0,,0,242,242,44,1,pema,,,,,
,,,,,,5c90617326e3ed00019896a5,676192165fb32c2e1fb7aee6,67d0b23f22823a223eec8ad2,2025-03-11_16h02.25.167,Tarea de decisión léxica,2024.2.5,Win32,59.52380952,,,,,,,,,,,,,,,,,,,,,,,,1253.861,1254.8225,a,1,0.2845,1,1254.8229,1255.3224,,,,,,127,MAS,WORD,AGR,150,pico,,el,,0.2845,,1255.3227,1255.3231,-0.098958333,-0.33203125,0,0,0,,0,243,243,126,1,itio,,,,,
,,,,,,5c90617326e3ed00019896a5,676192165fb32c2e1fb7aee6,67d0b23f22823a223eec8ad2,2025-03-11_16h02.25.167,Tarea de decisión léxica,2024.2.5,Win32,59.52380952,,,,,,,,,,,,,,,,,,,,,,,,1255.3245,1256.3895,l,1,0.3813,1,1256.3899,1256.8899,,,,,,476,FEM,NOWORD,AGR,150,mucta,,la,,0.3813,,1256.8903,1256.8906,-0.098958333,-0.33203125,0,0,0,,0,244,244,475,1,manta,,,,,
,,,,,,5c90617326e3ed00019896a5,676192165fb32c2e1fb7aee6,67d0b23f22823a223eec8ad2,2025-03-11_16h02.25.167,Tarea de decisión léxica,2024.2.5,Win32,59.52380952,,,,,,,,,,,,,,,,,,,,,,,,1256.8926,1257.973,a,1,0.4056,1,1257.9735,1258.4729,,,,,,457,MAS,WORD,AGR,150,plato,,el,,0.4056,,1258.4733,1258.4738,-0.098958333,-0.33203125,0,0,0,,0,245,245,456,1,glaco,,,,,
,,,,,,5c90617326e3ed00019896a5,676192165fb32c2e1fb7aee6,67d0b23f22823a223eec8ad2,2025-03-11_16h02.25.167,Tarea de decisión léxica,2024.2.5,Win32,59.52380952,,,,,,,,,,,,,,,,,,,,,,,,1258.4755,1259.5635,l,1,0.4147,1,1259.5635,1260.0553,,,,,,102,MAS,NOWORD,DIS,150,gito,,la,,0.4147,,1260.0557,1260.0559,-0.098958333,-0.33203125,0,0,0,,0,246,246,101,1,tono,,,,,
,,,,,,5c90617326e3ed00019896a5,676192165fb32c2e1fb7aee6,67d0b23f22823a223eec8ad2,2025-03-11_16h02.25.167,Tarea de decisión léxica,2024.2.5,Win32,59.52380952,,,,,,,,,,,,,,,,,,,,,,,,1260.0575,1261.2227,a,1,0.4784,1,1261.2232,1261.7219,,,,,,159,MAS,WORD,DIS,150,giro,,la,,0.4784,,1261.7247,1261.7251,-0.098958333,-0.33203125,0,0,0,,0,247,247,158,1,bilo,,,,,
,,,,,,5c90617326e3ed00019896a5,676192165fb32c2e1fb7aee6,67d0b23f22823a223eec8ad2,2025-03-11_16h02.25.167,Tarea de decisión léxica,2024.2.5,Win32,59.52380952,,,,,,,,,,,,,,,,,,,,,,,,1261.7254,1262.8399,a,1,0.4243,1,1262.8404,1263.3403,,,,,,269,MAS,WORD,AGR,150,perro,,el,,0.4243,,1263.3406,1263.3408,-0.098958333,-0.33203125,0,0,0,,0,248,248,268,1,mello,,,,,
,,,,,,5c90617326e3ed00019896a5,676192165fb32c2e1fb7aee6,67d0b23f22823a223eec8ad2,2025-03-11_16h02.25.167,Tarea de decisión léxica,2024.2.5,Win32,59.52380952,,,,,,,,,,,,,,,,,,,,,,,,1263.3426,1264.3072,l,1,0.2858,1,1264.3076,1264.8071,,,,,,170,MAS,NOWORD,DIS,150,mibo,,la,,0.2858,,1264.8073,1264.8076,-0.098958333,-0.33203125,0,0,0,,0,249,249,169,1,cubo,,,,,
,,,,,,5c90617326e3ed00019896a5,676192165fb32c2e1fb7aee6,67d0b23f22823a223eec8ad2,2025-03-11_16h02.25.167,Tarea de decisión léxica,2024.2.5,Win32,59.52380952,,,,,,,,,,,,,,,,,,,,,,,,1264.8096,1266.0405,l,1,0.5504,1,1266.0408,1266.5313,,,,,,322,MAS,NOWORD,DIS,150,rarco,,la,,0.5504,,1266.5313,1266.5316,-0.098958333,-0.33203125,0,0,0,,0,250,250,321,1,banco,,,,,
,,,,,,5c90617326e3ed00019896a5,676192165fb32c2e1fb7aee6,67d0b23f22823a223eec8ad2,2025-03-11_16h02.25.167,Tarea de decisión léxica,2024.2.5,Win32,59.52380952,,,,,,,,,,,,,,,,,,,,,,,,1266.5333,1267.607,a,0,0.3936,0,1267.6085,1268.1067,,,,,,386,FEM,NOWORD,DIS,150,febra,,el,,0.3936,,1268.1089,1268.1097,-0.098958333,-0.33203125,0,0,0,,0,251,251,385,1,letra,,,,,
,,,,,,5c90617326e3ed00019896a5,676192165fb32c2e1fb7aee6,67d0b23f22823a223eec8ad2,2025-03-11_16h02.25.167,Tarea de decisión léxica,2024.2.5,Win32,59.52380952,,,,,,,,,,,,,,,,,,,,,,,,1268.1107,1269.3243,a,1,0.5384,1,1269.3259,1269.831,,,,,,335,FEM,WORD,AGR,150,costa,,la,,0.5384,,1269.8311,1269.8311,-0.098958333,-0.33203125,0,0,0,,0,252,252,334,1,pesta,,,,,
,,,,,,5c90617326e3ed00019896a5,676192165fb32c2e1fb7aee6,67d0b23f22823a223eec8ad2,2025-03-11_16h02.25.167,Tarea de decisión léxica,2024.2.5,Win32,59.52380952,,,,,,,,,,,,,,,,,,,,,,,,1269.8324,1270.9649,a,1,0.4729,1,1270.9652,1271.4579,,,,,,365,FEM,WORD,DIS,150,ducha,,el,,0.4729,,1271.4581,1271.4582,-0.098958333,-0.33203125,0,0,0,,0,253,253,364,1,gulla,,,,,
,,,,,,5c90617326e3ed00019896a5,676192165fb32c2e1fb7aee6,67d0b23f22823a223eec8ad2,2025-03-11_16h02.25.167,Tarea de decisión léxica,2024.2.5,Win32,59.52380952,,,,,,,,,,,,,,,,,,,,,,,,1271.4601,1272.4746,l,1,0.3407,1,1272.4749,1272.9633,,,,,,362,FEM,NOWORD,DIS,150,solle,,el,,0.3407,,1272.9633,1272.9634,-0.098958333,-0.33203125,0,0,0,,0,254,254,361,1,torre,,,,,
,,,,,,5c90617326e3ed00019896a5,676192165fb32c2e1fb7aee6,67d0b23f22823a223eec8ad2,2025-03-11_16h02.25.167,Tarea de decisión léxica,2024.2.5,Win32,59.52380952,,,,,,,,,,,,,,,,,,,,,,,,1272.9643,1274.0812,a,1,0.433,1,1274.0814,1274.5788,,,,,,449,FEM,WORD,DIS,150,pluma,,el,,0.433,,1274.5789,1274.579,-0.098958333,-0.33203125,0,0,0,,0,255,255,448,1,crusa,,,,,
,,,,,,5c90617326e3ed00019896a5,676192165fb32c2e1fb7aee6,67d0b23f22823a223eec8ad2,2025-03-11_16h02.25.167,Tarea de decisión léxica,2024.2.5,Win32,59.52380952,,,,,,,,,,,,,,,,,,,,,,,,1274.5805,1275.9244,a,1,0.679,1,1275.9248,1276.4262,,,,,,117,MAS,WORD,AGR,150,palo,,el,,0.679,,1276.4287,1276.4294,-0.098958333,-0.33203125,0,0,0,,0,256,256,116,1,movo,,,,,
,,,,,,5c90617326e3ed00019896a5,676192165fb32c2e1fb7aee6,67d0b23f22823a223eec8ad2,2025-03-11_16h02.25.167,Tarea de decisión léxica,2024.2.5,Win32,59.52380952,,,,,,,,,,,,,,,,,,,,,,,,1276.43,1277.5574,l,1,0.4657,1,1277.5578,1278.0574,,,,,,32,FEM,NOWORD,AGR,150,bova,,la,,0.4657,,1278.0577,1278.0582,-0.098958333,-0.33203125,0,0,0,,0,257,257,31,1,ropa,,,,,
,,,,,,5c90617326e3ed00019896a5,676192165fb32c2e1fb7aee6,67d0b23f22823a223eec8ad2,2025-03-11_16h02.25.167,Tarea de decisión léxica,2024.2.5,Win32,59.52380952,,,,,,,,,,,,,,,,,,,,,,,,1278.0602,1279.19,l,1,0.4415,1,1279.1906,1279.6903,,,,,,158,MAS,NOWORD,DIS,150,hico,,la,,0.4415,,1279.6905,1279.6909,-0.098958333,-0.33203125,0,0,0,,0,258,258,157,1,nido,,,,,
,,,,,,5c90617326e3ed00019896a5,676192165fb32c2e1fb7aee6,67d0b23f22823a223eec8ad2,2025-03-11_16h02.25.167,Tarea de decisión léxica,2024.2.5,Win32,59.52380952,,,,,,,,,,,,,,,,,,,,,,,,1279.6926,1280.8247,a,1,0.4481,1,1280.8251,1281.3245,,,,,,327,MAS,WORD,AGR,150,fondo,,el,,0.4481,,1281.3248,1281.3251,-0.098958333,-0.33203125,0,0,0,,0,259,259,326,1,lendo,,,,,
