counterbalancing_condition,consent_prescreening.block_1/declare_consent,consent_prescreening.block_1/age_years,consent_prescreening.block_1/gender,consent_prescreening.block_1/language_disorder,consent_prescreening.block_1/first_language,PROLIFIC_PID,STUDY_ID,SESSION_ID,date,expName,psychopyVersion,OS,frameRate,check_prescreening_answers.started,check_prescreening_answers.stopped,Instructions.started,Instructions.stopped,instr_done_keyboard.keys,instr_done_keyboard.rt,instr_done_keyboard.duration,instr_done_touch.x,instr_done_touch.y,instr_done_touch.leftButton,instr_done_touch.midButton,instr_done_touch.rightButton,instruction_pages.thisRepN,instruction_pages.thisTrialN,instruction_pages.thisN,instruction_pages.thisIndex,instruction_pages.ran,pageN,phase,instruct_text,has_image,instruct_image,presentTrial.started,presentTrial.stopped,response.keys,response.corr,response.rt,response.duration,rt,corr,feedback.started,feedback.stopped,practice_trials.thisRepN,practice_trials.thisTrialN,practice_trials.thisN,practice_trials.thisIndex,practice_trials.ran,TrialID,Gender,StimulusType,Condition,PrimeDuration,Prime,len,Flanker,corrAns,Break.started,Break.stopped,break_done_touch.x,break_done_touch.y,break_done_touch.leftButton,break_done_touch.midButton,break_done_touch.rightButton,break_done_keyboard.keys,experiment_trials.thisRepN,experiment_trials.thisTrialN,experiment_trials.thisN,experiment_trials.thisIndex,experiment_trials.ran,PairedWith,break_done_keyboard.rt,break_done_keyboard.duration,End.started,End.stopped
2,"[""over_18"",""comfortable"",""read_info"",""consent_given""]",39,M,"[""none""]","[""spanish""]",5c9cc12096cb340017b7321f,676192165fb32c2e1fb7aee6,67d182096d51b2815d946171,2025-03-12_13h46.11.433,Tarea de decisión léxica,2024.2.5,Win32,143.6781609,,,,,,,,,,,,,,,,,,,,,,,,,,,,,,,,,,,,,,,,,,,,,,,,,,,,,,,,,,,,,,,,
,,,,,,5c9cc12096cb340017b7321f,676192165fb32c2e1fb7aee6,67d182096d51b2815d946171,2025-03-12_13h46.11.433,Tarea de decisión léxica,2024.2.5,Win32,143.6781609,16.931,16.931,,,,,,,,,,,,,,,,,,,,,,,,,,,,,,,,,,,,,,,,,,,,,,,,,,,,,,,,,,,,,,
,,,,,,5c9cc12096cb340017b7321f,676192165fb32c2e1fb7aee6,67d182096d51b2815d946171,2025-03-12_13h46.11.433,Tarea de decisión léxica,2024.2.5,Win32,143.6781609,,,16.942,22.499,space,5.519,,-0.177083333,-0.289583333,0,0,0,0,0,0,0,1,1,instructions,"INSTRUCCIONES
Va a realizar una prueba de decisión léxica. Desde el comienzo de la prueba mire siempre al centro de la pantalla. Se presentará una serie de cadenas de letras, una a la vez, en la pantalla. Su tarea consiste en determinar si cada cadena de letras constituye una palabra real en español o una no-palabra (una secuencia de letras que no constituye una palabra real). 

Pulse la tecla ESPACIO para continuar.",0,keyboardresponseNW.png,,,,,,,,,,,,,,,,,,,,,,,,,,,,,,,,,,,,,,,,,,
,,,,,,5c9cc12096cb340017b7321f,676192165fb32c2e1fb7aee6,67d182096d51b2815d946171,2025-03-12_13h46.11.433,Tarea de decisión léxica,2024.2.5,Win32,143.6781609,,,22.5,29.82,space,7.287,,-0.175,-0.289583333,0,0,0,0,1,1,1,1,2,instructions,"El procedimiento es el siguiente: Aparecerán dos barras verticales posicionadas en el centro de la pantalla, separadas por un pequeño espacio.Por favor, enfoque su atención en el espacio entre las barras. Esto preparará sus ojos para la siguiente cadena de letras, que aparecerá entre las dos barras durante un instante.

Pulse la tecla ESPACIO para continuar.",0,keyboardresponseNW.png,,,,,,,,,,,,,,,,,,,,,,,,,,,,,,,,,,,,,,,,,,
,,,,,,5c9cc12096cb340017b7321f,676192165fb32c2e1fb7aee6,67d182096d51b2815d946171,2025-03-12_13h46.11.433,Tarea de decisión léxica,2024.2.5,Win32,143.6781609,,,29.821,35.507,space,5.651,,-0.175,-0.289583333,0,0,0,0,2,2,2,1,3,instructions,"En el teclado de su dispositivo, pulse la tecla ""L"" si la cadena de letras es una palabra real en español (por ejemplo: ""mano"") y la tecla ""A"" si la cadena de letras es una no-palabra (por ejemplo: ""minu"").
Pulse la tecla ESPACIO para continuar.",1,keyboardresponseNW.png,,,,,,,,,,,,,,,,,,,,,,,,,,,,,,,,,,,,,,,,,,
,,,,,,5c9cc12096cb340017b7321f,676192165fb32c2e1fb7aee6,67d182096d51b2815d946171,2025-03-12_13h46.11.433,Tarea de decisión léxica,2024.2.5,Win32,143.6781609,,,35.51,43.768,space,8.239,,-0.175,-0.289583333,0,0,0,0,3,3,3,1,4,instructions,"Es muy importante que responda con la mayor rapidez y precisión posibles. Si no responde dentro de 2 segundos, aparecerá el mensaje ""Muy lento"" y el experimento pasará a la siguiente palabra. Inmediatamente después de su respuesta se indicará si fue correcta o no. Los primeros 15 intentos serán de práctica y habrá dos descansos durante la prueba.

Pulse la tecla ESPACIO  para iniciar la parte de práctica.",0,keyboardresponseNW.png,,,,,,,,,,,,,,,,,,,,,,,,,,,,,,,,,,,,,,,,,,
,,,,,,5c9cc12096cb340017b7321f,676192165fb32c2e1fb7aee6,67d182096d51b2815d946171,2025-03-12_13h46.11.433,Tarea de decisión léxica,2024.2.5,Win32,143.6781609,,,,,,,,,,,,,,,,,,,,,,,43.777,45.041,l,1,0.606,,0.606,1,45.041,45.541,0,0,0,7,1,1008,MAS,WORD,DIS,150,frío,4,la,l,,,,,,,,,,,,,,,,,,
,,,,,,5c9cc12096cb340017b7321f,676192165fb32c2e1fb7aee6,67d182096d51b2815d946171,2025-03-12_13h46.11.433,Tarea de decisión léxica,2024.2.5,Win32,143.6781609,,,,,,,,,,,,,,,,,,,,,,,45.541,46.821,l,0,0.621,,0.621,0,46.821,47.321,0,1,1,4,1,1005,MAS,NOWORD,DIS,150,nobad,5,la,a,,,,,,,,,,,,,,,,,,
,,,,,,5c9cc12096cb340017b7321f,676192165fb32c2e1fb7aee6,67d182096d51b2815d946171,2025-03-12_13h46.11.433,Tarea de decisión léxica,2024.2.5,Win32,143.6781609,,,,,,,,,,,,,,,,,,,,,,,47.322,48.469,l,0,0.489,,0.489,0,48.469,48.97,0,2,2,0,1,1001,FEM,NOWORD,AGR,150,croz,4,la,a,,,,,,,,,,,,,,,,,,
,,,,,,5c9cc12096cb340017b7321f,676192165fb32c2e1fb7aee6,67d182096d51b2815d946171,2025-03-12_13h46.11.433,Tarea de decisión léxica,2024.2.5,Win32,143.6781609,,,,,,,,,,,,,,,,,,,,,,,48.97,50.263,a,0,0.634,,0.634,0,50.263,50.763,0,3,3,8,1,1009,FEM,WORD,AGR,150,viejo,5,la,l,,,,,,,,,,,,,,,,,,
,,,,,,5c9cc12096cb340017b7321f,676192165fb32c2e1fb7aee6,67d182096d51b2815d946171,2025-03-12_13h46.11.433,Tarea de decisión léxica,2024.2.5,Win32,143.6781609,,,,,,,,,,,,,,,,,,,,,,,50.763,51.869,l,1,0.446,,0.446,1,51.869,52.369,0,4,4,5,1,1006,FEM,WORD,AGR,150,cara,4,la,l,,,,,,,,,,,,,,,,,,
,,,,,,5c9cc12096cb340017b7321f,676192165fb32c2e1fb7aee6,67d182096d51b2815d946171,2025-03-12_13h46.11.433,Tarea de decisión léxica,2024.2.5,Win32,143.6781609,,,,,,,,,,,,,,,,,,,,,,,52.37,53.371,l,1,0.341,,0.341,1,53.371,53.871,0,5,5,9,1,1010,MAS,WORD,DIS,150,video,5,la,l,,,,,,,,,,,,,,,,,,
,,,,,,5c9cc12096cb340017b7321f,676192165fb32c2e1fb7aee6,67d182096d51b2815d946171,2025-03-12_13h46.11.433,Tarea de decisión léxica,2024.2.5,Win32,143.6781609,,,,,,,,,,,,,,,,,,,,,,,53.872,55.123,a,1,0.592,,0.592,1,55.123,55.624,0,6,6,2,1,1003,FEM,NOWORD,DIS,150,muvor,5,el,a,,,,,,,,,,,,,,,,,,
,,,,,,5c9cc12096cb340017b7321f,676192165fb32c2e1fb7aee6,67d182096d51b2815d946171,2025-03-12_13h46.11.433,Tarea de decisión léxica,2024.2.5,Win32,143.6781609,,,,,,,,,,,,,,,,,,,,,,,55.624,56.666,a,1,0.382,,0.382,1,56.667,57.161,0,7,7,3,1,1004,FEM,NOWORD,AGR,150,bireo,5,la,a,,,,,,,,,,,,,,,,,,
,,,,,,5c9cc12096cb340017b7321f,676192165fb32c2e1fb7aee6,67d182096d51b2815d946171,2025-03-12_13h46.11.433,Tarea de decisión léxica,2024.2.5,Win32,143.6781609,,,,,,,,,,,,,,,,,,,,,,,57.161,58.259,a,1,0.44,,0.44,1,58.259,58.76,0,8,8,1,1,1002,FEM,NOWORD,DIS,150,mabo,4,el,a,,,,,,,,,,,,,,,,,,
,,,,,,5c9cc12096cb340017b7321f,676192165fb32c2e1fb7aee6,67d182096d51b2815d946171,2025-03-12_13h46.11.433,Tarea de decisión léxica,2024.2.5,Win32,143.6781609,,,,,,,,,,,,,,,,,,,,,,,58.76,59.712,l,1,0.294,,0.294,1,59.712,60.213,0,9,9,6,1,1007,MAS,WORD,DIS,150,masa,4,la,l,,,,,,,,,,,,,,,,,,
,,,,,,5c9cc12096cb340017b7321f,676192165fb32c2e1fb7aee6,67d182096d51b2815d946171,2025-03-12_13h46.11.433,Tarea de decisión léxica,2024.2.5,Win32,143.6781609,,,62.147,63.564,space,1.383,,-0.175,-0.289583333,0,0,0,,,,,,,,,,,63.579,64.698,a,1,0.461,,0.461,1,64.698,65.198,,,,,,270,MAS,NOWORD,DIS,150,mello,,la,,65.198,65.199,-0.175,-0.289583333,0,0,0,,0,0,0,269,1,perro,,,,
,,,,,,5c9cc12096cb340017b7321f,676192165fb32c2e1fb7aee6,67d182096d51b2815d946171,2025-03-12_13h46.11.433,Tarea de decisión léxica,2024.2.5,Win32,143.6781609,,,,,,,,,,,,,,,,,,,,,,,65.2,66.255,a,1,0.396,,0.396,1,66.255,66.756,,,,,,166,FEM,NOWORD,DIS,150,dera,,el,,66.756,66.756,-0.175,-0.289583333,0,0,0,,0,1,1,165,1,vela,,,,
,,,,,,5c9cc12096cb340017b7321f,676192165fb32c2e1fb7aee6,67d182096d51b2815d946171,2025-03-12_13h46.11.433,Tarea de decisión léxica,2024.2.5,Win32,143.6781609,,,,,,,,,,,,,,,,,,,,,,,66.757,67.757,a,1,0.345,,0.345,1,67.757,68.258,,,,,,114,FEM,NOWORD,DIS,150,tada,,el,,68.259,68.26,-0.175,-0.289583333,0,0,0,,0,2,2,113,1,miel,,,,
,,,,,,5c9cc12096cb340017b7321f,676192165fb32c2e1fb7aee6,67d182096d51b2815d946171,2025-03-12_13h46.11.433,Tarea de decisión léxica,2024.2.5,Win32,143.6781609,,,,,,,,,,,,,,,,,,,,,,,68.261,69.336,a,1,0.419,,0.419,1,69.336,69.836,,,,,,442,FEM,NOWORD,DIS,150,telza,,el,,69.836,69.837,-0.175,-0.289583333,0,0,0,,0,3,3,441,1,selva,,,,
,,,,,,5c9cc12096cb340017b7321f,676192165fb32c2e1fb7aee6,67d182096d51b2815d946171,2025-03-12_13h46.11.433,Tarea de decisión léxica,2024.2.5,Win32,143.6781609,,,,,,,,,,,,,,,,,,,,,,,69.837,70.865,a,1,0.369,,0.369,1,70.865,71.366,,,,,,230,MAS,NOWORD,DIS,150,ador,,la,,71.366,71.366,-0.175,-0.289583333,0,0,0,,0,4,4,229,1,amor,,,,
,,,,,,5c9cc12096cb340017b7321f,676192165fb32c2e1fb7aee6,67d182096d51b2815d946171,2025-03-12_13h46.11.433,Tarea de decisión léxica,2024.2.5,Win32,143.6781609,,,,,,,,,,,,,,,,,,,,,,,71.366,72.472,a,1,0.444,,0.444,1,72.472,72.972,,,,,,450,FEM,NOWORD,DIS,150,crusa,,el,,72.972,72.972,-0.175,-0.289583333,0,0,0,,0,5,5,449,1,pluma,,,,
,,,,,,5c9cc12096cb340017b7321f,676192165fb32c2e1fb7aee6,67d182096d51b2815d946171,2025-03-12_13h46.11.433,Tarea de decisión léxica,2024.2.5,Win32,143.6781609,,,,,,,,,,,,,,,,,,,,,,,72.972,74.175,a,1,0.543,,0.543,1,74.175,74.676,,,,,,188,MAS,NOWORD,AGR,150,suto,,el,,74.676,74.676,-0.175,-0.289583333,0,0,0,,0,6,6,187,1,mito,,,,
,,,,,,5c9cc12096cb340017b7321f,676192165fb32c2e1fb7aee6,67d182096d51b2815d946171,2025-03-12_13h46.11.433,Tarea de decisión léxica,2024.2.5,Win32,143.6781609,,,,,,,,,,,,,,,,,,,,,,,74.676,75.795,a,1,0.46,,0.46,1,75.795,76.296,,,,,,438,FEM,NOWORD,DIS,150,glava,,el,,76.296,76.297,-0.175,-0.289583333,0,0,0,,0,7,7,437,1,plaza,,,,
,,,,,,5c9cc12096cb340017b7321f,676192165fb32c2e1fb7aee6,67d182096d51b2815d946171,2025-03-12_13h46.11.433,Tarea de decisión léxica,2024.2.5,Win32,143.6781609,,,,,,,,,,,,,,,,,,,,,,,76.298,77.332,l,1,0.378,,0.378,1,77.332,77.833,,,,,,77,MAS,WORD,DIS,150,loco,,la,,77.833,77.833,-0.175,-0.289583333,0,0,0,,0,8,8,76,1,fodo,,,,
,,,,,,5c9cc12096cb340017b7321f,676192165fb32c2e1fb7aee6,67d182096d51b2815d946171,2025-03-12_13h46.11.433,Tarea de decisión léxica,2024.2.5,Win32,143.6781609,,,,,,,,,,,,,,,,,,,,,,,77.833,78.793,l,1,0.3,,0.3,1,78.793,79.293,,,,,,25,FEM,WORD,DIS,150,cama,,el,,79.293,79.293,-0.175,-0.289583333,0,0,0,,0,9,9,24,1,paza,,,,
,,,,,,5c9cc12096cb340017b7321f,676192165fb32c2e1fb7aee6,67d182096d51b2815d946171,2025-03-12_13h46.11.433,Tarea de decisión léxica,2024.2.5,Win32,143.6781609,,,,,,,,,,,,,,,,,,,,,,,79.293,80.336,a,1,0.386,,0.386,1,80.336,80.836,,,,,,104,FEM,NOWORD,AGR,150,rova,,la,,80.836,80.836,-0.175,-0.289583333,0,0,0,,0,10,10,103,1,ruta,,,,
,,,,,,5c9cc12096cb340017b7321f,676192165fb32c2e1fb7aee6,67d182096d51b2815d946171,2025-03-12_13h46.11.433,Tarea de decisión léxica,2024.2.5,Win32,143.6781609,,,,,,,,,,,,,,,,,,,,,,,80.837,81.949,l,1,0.445,,0.445,1,81.949,82.449,,,,,,65,MAS,WORD,DIS,150,dios,,la,,82.45,82.45,-0.175,-0.289583333,0,0,0,,0,11,11,64,1,nios,,,,
,,,,,,5c9cc12096cb340017b7321f,676192165fb32c2e1fb7aee6,67d182096d51b2815d946171,2025-03-12_13h46.11.433,Tarea de decisión léxica,2024.2.5,Win32,143.6781609,,,,,,,,,,,,,,,,,,,,,,,82.451,83.68,l,1,0.572,,0.572,1,83.68,84.182,,,,,,213,FEM,WORD,DIS,150,rama,,el,,84.182,84.182,-0.175,-0.289583333,0,0,0,,0,12,12,212,1,bana,,,,
,,,,,,5c9cc12096cb340017b7321f,676192165fb32c2e1fb7aee6,67d182096d51b2815d946171,2025-03-12_13h46.11.433,Tarea de decisión léxica,2024.2.5,Win32,143.6781609,,,,,,,,,,,,,,,,,,,,,,,84.182,85.307,a,1,0.467,,0.467,1,85.307,85.808,,,,,,292,FEM,NOWORD,AGR,150,mesta,,la,,85.808,85.808,-0.175,-0.289583333,0,0,0,,0,13,13,291,1,pista,,,,
,,,,,,5c9cc12096cb340017b7321f,676192165fb32c2e1fb7aee6,67d182096d51b2815d946171,2025-03-12_13h46.11.433,Tarea de decisión léxica,2024.2.5,Win32,143.6781609,,,,,,,,,,,,,,,,,,,,,,,85.808,86.83,a,1,0.362,,0.362,1,86.83,87.331,,,,,,380,MAS,NOWORD,AGR,150,tunso,,el,,87.331,87.331,-0.175,-0.289583333,0,0,0,,0,14,14,379,1,turno,,,,
,,,,,,5c9cc12096cb340017b7321f,676192165fb32c2e1fb7aee6,67d182096d51b2815d946171,2025-03-12_13h46.11.433,Tarea de decisión léxica,2024.2.5,Win32,143.6781609,,,,,,,,,,,,,,,,,,,,,,,87.331,88.388,l,0,0.397,,0.397,0,88.388,88.889,,,,,,302,FEM,NOWORD,DIS,150,ranga,,el,,88.889,88.889,-0.175,-0.289583333,0,0,0,,0,15,15,301,1,banda,,,,
,,,,,,5c9cc12096cb340017b7321f,676192165fb32c2e1fb7aee6,67d182096d51b2815d946171,2025-03-12_13h46.11.433,Tarea de decisión léxica,2024.2.5,Win32,143.6781609,,,,,,,,,,,,,,,,,,,,,,,88.889,90.008,a,1,0.462,,0.462,1,90.009,90.502,,,,,,252,MAS,NOWORD,AGR,150,refor,,el,,90.502,90.502,-0.175,-0.289583333,0,0,0,,0,16,16,251,1,señor,,,,
,,,,,,5c9cc12096cb340017b7321f,676192165fb32c2e1fb7aee6,67d182096d51b2815d946171,2025-03-12_13h46.11.433,Tarea de decisión léxica,2024.2.5,Win32,143.6781609,,,,,,,,,,,,,,,,,,,,,,,90.503,91.586,a,1,0.424,,0.424,1,91.586,92.087,,,,,,342,MAS,NOWORD,DIS,150,daror,,la,,92.087,92.088,-0.175,-0.289583333,0,0,0,,0,17,17,341,1,valor,,,,
,,,,,,5c9cc12096cb340017b7321f,676192165fb32c2e1fb7aee6,67d182096d51b2815d946171,2025-03-12_13h46.11.433,Tarea de decisión léxica,2024.2.5,Win32,143.6781609,,,,,,,,,,,,,,,,,,,,,,,92.088,93.151,a,1,0.404,,0.404,1,93.151,93.651,,,,,,296,MAS,NOWORD,AGR,150,goler,,el,,93.651,93.651,-0.175,-0.289583333,0,0,0,,0,18,18,295,1,dolor,,,,
,,,,,,5c9cc12096cb340017b7321f,676192165fb32c2e1fb7aee6,67d182096d51b2815d946171,2025-03-12_13h46.11.433,Tarea de decisión léxica,2024.2.5,Win32,143.6781609,,,,,,,,,,,,,,,,,,,,,,,93.652,94.841,l,1,0.528,,0.528,1,94.841,95.341,,,,,,205,FEM,WORD,DIS,150,rana,,el,,95.341,95.341,-0.175,-0.289583333,0,0,0,,0,19,19,204,1,bara,,,,
,,,,,,5c9cc12096cb340017b7321f,676192165fb32c2e1fb7aee6,67d182096d51b2815d946171,2025-03-12_13h46.11.433,Tarea de decisión léxica,2024.2.5,Win32,143.6781609,,,,,,,,,,,,,,,,,,,,,,,95.342,96.378,l,1,0.38,,0.38,1,96.378,96.877,,,,,,249,FEM,WORD,DIS,150,clase,,el,,96.877,96.877,-0.175,-0.289583333,0,0,0,,0,20,20,248,1,plane,,,,
,,,,,,5c9cc12096cb340017b7321f,676192165fb32c2e1fb7aee6,67d182096d51b2815d946171,2025-03-12_13h46.11.433,Tarea de decisión léxica,2024.2.5,Win32,143.6781609,,,,,,,,,,,,,,,,,,,,,,,96.878,97.852,l,1,0.314,,0.314,1,97.852,98.352,,,,,,123,FEM,WORD,AGR,150,flor,,la,,98.353,98.353,-0.175,-0.289583333,0,0,0,,0,21,21,122,1,maba,,,,
,,,,,,5c9cc12096cb340017b7321f,676192165fb32c2e1fb7aee6,67d182096d51b2815d946171,2025-03-12_13h46.11.433,Tarea de decisión léxica,2024.2.5,Win32,143.6781609,,,,,,,,,,,,,,,,,,,,,,,98.354,99.36,l,1,0.35,,0.35,1,99.36,99.861,,,,,,175,FEM,WORD,AGR,150,goma,,la,,99.861,99.861,-0.175,-0.289583333,0,0,0,,0,22,22,174,1,hosa,,,,
,,,,,,5c9cc12096cb340017b7321f,676192165fb32c2e1fb7aee6,67d182096d51b2815d946171,2025-03-12_13h46.11.433,Tarea de decisión léxica,2024.2.5,Win32,143.6781609,,,,,,,,,,,,,,,,,,,,,,,99.861,100.862,a,1,0.34,,0.34,1,100.862,101.362,,,,,,34,FEM,NOWORD,DIS,150,loda,,el,,101.362,101.362,-0.175,-0.289583333,0,0,0,,0,23,23,33,1,boca,,,,
,,,,,,5c9cc12096cb340017b7321f,676192165fb32c2e1fb7aee6,67d182096d51b2815d946171,2025-03-12_13h46.11.433,Tarea de decisión léxica,2024.2.5,Win32,143.6781609,,,,,,,,,,,,,,,,,,,,,,,101.363,102.51,a,1,0.488,,0.488,1,102.51,103.01,,,,,,94,FEM,NOWORD,DIS,150,rona,,el,,103.011,103.011,-0.175,-0.289583333,0,0,0,,0,24,24,93,1,bola,,,,
,,,,,,5c9cc12096cb340017b7321f,676192165fb32c2e1fb7aee6,67d182096d51b2815d946171,2025-03-12_13h46.11.433,Tarea de decisión léxica,2024.2.5,Win32,143.6781609,,,,,,,,,,,,,,,,,,,,,,,103.012,103.977,l,1,0.307,,0.307,1,103.977,104.478,,,,,,305,MAS,WORD,DIS,150,avión,,la,,104.478,104.478,-0.175,-0.289583333,0,0,0,,0,25,25,304,1,adiol,,,,
,,,,,,5c9cc12096cb340017b7321f,676192165fb32c2e1fb7aee6,67d182096d51b2815d946171,2025-03-12_13h46.11.433,Tarea de decisión léxica,2024.2.5,Win32,143.6781609,,,,,,,,,,,,,,,,,,,,,,,104.479,105.535,a,0,0.397,,0.397,0,105.535,106.035,,,,,,143,MAS,WORD,AGR,150,pavo,,el,,106.036,106.036,-0.175,-0.289583333,0,0,0,,0,26,26,142,1,pezo,,,,
,,,,,,5c9cc12096cb340017b7321f,676192165fb32c2e1fb7aee6,67d182096d51b2815d946171,2025-03-12_13h46.11.433,Tarea de decisión léxica,2024.2.5,Win32,143.6781609,,,,,,,,,,,,,,,,,,,,,,,106.037,107.05,l,1,0.357,,0.357,1,107.051,107.545,,,,,,163,FEM,WORD,AGR,150,fama,,la,,107.545,107.545,-0.175,-0.289583333,0,0,0,,0,27,27,162,1,laga,,,,
,,,,,,5c9cc12096cb340017b7321f,676192165fb32c2e1fb7aee6,67d182096d51b2815d946171,2025-03-12_13h46.11.433,Tarea de decisión léxica,2024.2.5,Win32,143.6781609,,,,,,,,,,,,,,,,,,,,,,,107.545,108.574,l,1,0.369,,0.369,1,108.574,109.074,,,,,,435,MAS,WORD,AGR,150,ritmo,,el,,109.074,109.074,-0.175,-0.289583333,0,0,0,,0,28,28,434,1,ricno,,,,
,,,,,,5c9cc12096cb340017b7321f,676192165fb32c2e1fb7aee6,67d182096d51b2815d946171,2025-03-12_13h46.11.433,Tarea de decisión léxica,2024.2.5,Win32,143.6781609,,,,,,,,,,,,,,,,,,,,,,,109.075,110.04,l,1,0.307,,0.307,1,110.04,110.541,,,,,,27,MAS,WORD,AGR,150,baño,,el,,110.541,110.541,-0.175,-0.289583333,0,0,0,,0,29,29,26,1,ravo,,,,
,,,,,,5c9cc12096cb340017b7321f,676192165fb32c2e1fb7aee6,67d182096d51b2815d946171,2025-03-12_13h46.11.433,Tarea de decisión léxica,2024.2.5,Win32,143.6781609,,,,,,,,,,,,,,,,,,,,,,,110.542,111.681,a,1,0.483,,0.483,1,111.681,112.182,,,,,,144,MAS,NOWORD,AGR,150,pezo,,el,,112.182,112.182,-0.175,-0.289583333,0,0,0,,0,30,30,143,1,pavo,,,,
,,,,,,5c9cc12096cb340017b7321f,676192165fb32c2e1fb7aee6,67d182096d51b2815d946171,2025-03-12_13h46.11.433,Tarea de decisión léxica,2024.2.5,Win32,143.6781609,,,,,,,,,,,,,,,,,,,,,,,112.183,113.287,a,1,0.446,,0.446,1,113.288,113.788,,,,,,58,MAS,NOWORD,DIS,150,heco,,la,,113.789,113.789,-0.175,-0.289583333,0,0,0,,0,31,31,57,1,dedo,,,,
,,,,,,5c9cc12096cb340017b7321f,676192165fb32c2e1fb7aee6,67d182096d51b2815d946171,2025-03-12_13h46.11.433,Tarea de decisión léxica,2024.2.5,Win32,143.6781609,,,,,,,,,,,,,,,,,,,,,,,113.79,114.866,l,1,0.422,,0.422,1,114.866,115.366,,,,,,231,FEM,WORD,AGR,150,bota,,la,,115.366,115.366,-0.175,-0.289583333,0,0,0,,0,32,32,230,1,heta,,,,
,,,,,,5c9cc12096cb340017b7321f,676192165fb32c2e1fb7aee6,67d182096d51b2815d946171,2025-03-12_13h46.11.433,Tarea de decisión léxica,2024.2.5,Win32,143.6781609,,,,,,,,,,,,,,,,,,,,,,,115.367,116.327,l,1,0.305,,0.305,1,116.327,116.827,,,,,,35,MAS,WORD,AGR,150,pelo,,el,,116.827,116.827,-0.175,-0.289583333,0,0,0,,0,33,33,34,1,meno,,,,
,,,,,,5c9cc12096cb340017b7321f,676192165fb32c2e1fb7aee6,67d182096d51b2815d946171,2025-03-12_13h46.11.433,Tarea de decisión léxica,2024.2.5,Win32,143.6781609,,,,,,,,,,,,,,,,,,,,,,,116.828,117.78,l,1,0.292,,0.292,1,117.78,118.28,,,,,,241,MAS,WORD,DIS,150,mundo,,la,,118.281,118.281,-0.175,-0.289583333,0,0,0,,0,34,34,240,1,mirdo,,,,
,,,,,,5c9cc12096cb340017b7321f,676192165fb32c2e1fb7aee6,67d182096d51b2815d946171,2025-03-12_13h46.11.433,Tarea de decisión léxica,2024.2.5,Win32,143.6781609,,,,,,,,,,,,,,,,,,,,,,,118.281,119.24,a,1,0.301,,0.301,1,119.241,119.74,,,,,,184,FEM,NOWORD,AGR,150,raad,,la,,119.74,119.741,-0.175,-0.289583333,0,0,0,,0,35,35,183,1,raya,,,,
,,,,,,5c9cc12096cb340017b7321f,676192165fb32c2e1fb7aee6,67d182096d51b2815d946171,2025-03-12_13h46.11.433,Tarea de decisión léxica,2024.2.5,Win32,143.6781609,,,,,,,,,,,,,,,,,,,,,,,119.741,120.84,a,1,0.441,,0.441,1,120.84,121.339,,,,,,338,MAS,NOWORD,DIS,150,nuejo,,la,,121.339,121.339,-0.175,-0.289583333,0,0,0,,0,36,36,337,1,huevo,,,,
,,,,,,5c9cc12096cb340017b7321f,676192165fb32c2e1fb7aee6,67d182096d51b2815d946171,2025-03-12_13h46.11.433,Tarea de decisión léxica,2024.2.5,Win32,143.6781609,,,,,,,,,,,,,,,,,,,,,,,121.34,122.48,l,1,0.482,,0.482,1,122.481,122.981,,,,,,155,FEM,WORD,AGR,150,fuga,,la,,122.981,122.981,-0.175,-0.289583333,0,0,0,,0,37,37,154,1,luma,,,,
,,,,,,5c9cc12096cb340017b7321f,676192165fb32c2e1fb7aee6,67d182096d51b2815d946171,2025-03-12_13h46.11.433,Tarea de decisión léxica,2024.2.5,Win32,143.6781609,,,,,,,,,,,,,,,,,,,,,,,122.982,124.024,a,1,0.383,,0.383,1,124.024,124.524,,,,,,52,FEM,NOWORD,AGR,150,mava,,la,,124.524,124.524,-0.175,-0.289583333,0,0,0,,0,38,38,51,1,caja,,,,
,,,,,,5c9cc12096cb340017b7321f,676192165fb32c2e1fb7aee6,67d182096d51b2815d946171,2025-03-12_13h46.11.433,Tarea de decisión léxica,2024.2.5,Win32,143.6781609,,,,,,,,,,,,,,,,,,,,,,,124.525,125.602,a,1,0.421,,0.421,1,125.602,126.103,,,,,,360,MAS,NOWORD,AGR,150,cacer,,el,,126.103,126.103,-0.175,-0.289583333,0,0,0,,0,39,39,359,1,calor,,,,
,,,,,,5c9cc12096cb340017b7321f,676192165fb32c2e1fb7aee6,67d182096d51b2815d946171,2025-03-12_13h46.11.433,Tarea de decisión léxica,2024.2.5,Win32,143.6781609,,,,,,,,,,,,,,,,,,,,,,,126.104,127.083,l,1,0.32,,0.32,1,127.084,127.584,,,,,,385,FEM,WORD,DIS,150,letra,,el,,127.585,127.585,-0.175,-0.289583333,0,0,0,,0,40,40,384,1,febra,,,,
,,,,,,5c9cc12096cb340017b7321f,676192165fb32c2e1fb7aee6,67d182096d51b2815d946171,2025-03-12_13h46.11.433,Tarea de decisión léxica,2024.2.5,Win32,143.6781609,,,,,,,,,,,,,,,,,,,,,,,127.586,128.696,a,1,0.454,,0.454,1,128.696,129.197,,,,,,64,FEM,NOWORD,AGR,150,funa,,la,,129.197,129.197,-0.175,-0.289583333,0,0,0,,0,41,41,63,1,luna,,,,
,,,,,,5c9cc12096cb340017b7321f,676192165fb32c2e1fb7aee6,67d182096d51b2815d946171,2025-03-12_13h46.11.433,Tarea de decisión léxica,2024.2.5,Win32,143.6781609,,,,,,,,,,,,,,,,,,,,,,,129.198,130.149,l,1,0.296,,0.296,1,130.149,130.65,,,,,,343,FEM,WORD,AGR,150,plata,,la,,130.65,130.65,-0.175,-0.289583333,0,0,0,,0,42,42,342,1,trada,,,,
,,,,,,5c9cc12096cb340017b7321f,676192165fb32c2e1fb7aee6,67d182096d51b2815d946171,2025-03-12_13h46.11.433,Tarea de decisión léxica,2024.2.5,Win32,143.6781609,,,,,,,,,,,,,,,,,,,,,,,130.651,131.693,l,1,0.384,,0.384,1,131.693,132.194,,,,,,447,MAS,WORD,AGR,150,bolso,,el,,132.194,132.194,-0.175,-0.289583333,0,0,0,,0,43,43,446,1,buaso,,,,
,,,,,,5c9cc12096cb340017b7321f,676192165fb32c2e1fb7aee6,67d182096d51b2815d946171,2025-03-12_13h46.11.433,Tarea de decisión léxica,2024.2.5,Win32,143.6781609,,,,,,,,,,,,,,,,,,,,,,,132.195,133.188,l,0,0.333,,0.333,0,133.188,133.689,,,,,,348,FEM,NOWORD,AGR,150,mueza,,la,,133.689,133.689,-0.175,-0.289583333,0,0,0,,0,44,44,347,1,pieza,,,,
,,,,,,5c9cc12096cb340017b7321f,676192165fb32c2e1fb7aee6,67d182096d51b2815d946171,2025-03-12_13h46.11.433,Tarea de decisión léxica,2024.2.5,Win32,143.6781609,,,,,,,,,,,,,,,,,,,,,,,133.689,134.788,a,1,0.441,,0.441,1,134.789,135.288,,,,,,410,MAS,NOWORD,DIS,150,pafro,,la,,135.289,135.29,-0.175,-0.289583333,0,0,0,,0,45,45,409,1,carro,,,,
,,,,,,5c9cc12096cb340017b7321f,676192165fb32c2e1fb7aee6,67d182096d51b2815d946171,2025-03-12_13h46.11.433,Tarea de decisión léxica,2024.2.5,Win32,143.6781609,,,,,,,,,,,,,,,,,,,,,,,135.291,136.442,a,1,0.494,,0.494,1,136.442,136.942,,,,,,8,MAS,NOWORD,AGR,150,nivo,,el,,136.942,136.942,-0.175,-0.289583333,0,0,0,,0,46,46,7,1,hijo,,,,
,,,,,,5c9cc12096cb340017b7321f,676192165fb32c2e1fb7aee6,67d182096d51b2815d946171,2025-03-12_13h46.11.433,Tarea de decisión léxica,2024.2.5,Win32,143.6781609,,,,,,,,,,,,,,,,,,,,,,,136.943,137.916,l,1,0.315,,0.315,1,137.916,138.417,,,,,,275,MAS,WORD,AGR,150,punto,,el,,138.417,138.417,-0.175,-0.289583333,0,0,0,,0,47,47,274,1,musto,,,,
,,,,,,5c9cc12096cb340017b7321f,676192165fb32c2e1fb7aee6,67d182096d51b2815d946171,2025-03-12_13h46.11.433,Tarea de decisión léxica,2024.2.5,Win32,143.6781609,,,,,,,,,,,,,,,,,,,,,,,138.418,139.39,l,1,0.312,,0.312,1,139.39,139.891,,,,,,277,MAS,WORD,DIS,150,fuego,,la,,139.891,139.891,-0.175,-0.289583333,0,0,0,,0,48,48,276,1,vuemo,,,,
,,,,,,5c9cc12096cb340017b7321f,676192165fb32c2e1fb7aee6,67d182096d51b2815d946171,2025-03-12_13h46.11.433,Tarea de decisión léxica,2024.2.5,Win32,143.6781609,,,,,,,,,,,,,,,,,,,,,,,139.891,140.983,a,1,0.431,,0.431,1,140.983,141.484,,,,,,102,MAS,NOWORD,DIS,150,gito,,la,,141.484,141.484,-0.175,-0.289583333,0,0,0,,0,49,49,101,1,tono,,,,
,,,,,,5c9cc12096cb340017b7321f,676192165fb32c2e1fb7aee6,67d182096d51b2815d946171,2025-03-12_13h46.11.433,Tarea de decisión léxica,2024.2.5,Win32,143.6781609,,,,,,,,,,,,,,,,,,,,,,,141.484,142.457,l,0,0.317,,0.317,0,142.458,142.957,,,,,,140,MAS,NOWORD,AGR,150,nila,,el,,142.957,142.958,-0.175,-0.289583333,0,0,0,,0,50,50,139,1,mago,,,,
,,,,,,5c9cc12096cb340017b7321f,676192165fb32c2e1fb7aee6,67d182096d51b2815d946171,2025-03-12_13h46.11.433,Tarea de decisión léxica,2024.2.5,Win32,143.6781609,,,,,,,,,,,,,,,,,,,,,,,142.959,144.14,a,1,0.522,,0.522,1,144.14,144.64,,,,,,156,FEM,NOWORD,AGR,150,luma,,la,,144.64,144.64,-0.175,-0.289583333,0,0,0,,0,51,51,155,1,fuga,,,,
,,,,,,5c9cc12096cb340017b7321f,676192165fb32c2e1fb7aee6,67d182096d51b2815d946171,2025-03-12_13h46.11.433,Tarea de decisión léxica,2024.2.5,Win32,143.6781609,,,,,,,,,,,,,,,,,,,,,,,144.641,145.725,l,1,0.424,,0.424,1,145.725,146.226,,,,,,103,FEM,WORD,AGR,150,ruta,,la,,146.226,146.226,-0.175,-0.289583333,0,0,0,,0,52,52,102,1,rova,,,,
,,,,,,5c9cc12096cb340017b7321f,676192165fb32c2e1fb7aee6,67d182096d51b2815d946171,2025-03-12_13h46.11.433,Tarea de decisión léxica,2024.2.5,Win32,143.6781609,,,,,,,,,,,,,,,,,,,,,,,146.226,147.268,l,1,0.384,,0.384,1,147.268,147.769,,,,,,133,FEM,WORD,DIS,150,vaca,,el,,147.769,147.769,-0.175,-0.289583333,0,0,0,,0,53,53,132,1,vesa,,,,
,,,,,,5c9cc12096cb340017b7321f,676192165fb32c2e1fb7aee6,67d182096d51b2815d946171,2025-03-12_13h46.11.433,Tarea de decisión léxica,2024.2.5,Win32,143.6781609,,,,,,,,,,,,,,,,,,,,,,,147.77,149.028,a,1,0.599,,0.599,1,149.028,149.529,,,,,,244,MAS,NOWORD,AGR,150,asamo,,el,,149.529,149.529,-0.175,-0.289583333,0,0,0,,0,54,54,243,1,amigo,,,,
,,,,,,5c9cc12096cb340017b7321f,676192165fb32c2e1fb7aee6,67d182096d51b2815d946171,2025-03-12_13h46.11.433,Tarea de decisión léxica,2024.2.5,Win32,143.6781609,,,,,,,,,,,,,,,,,,,,,,,149.529,150.676,a,0,0.487,,0.487,0,150.676,151.176,,,,,,237,MAS,WORD,DIS,150,nudo,,la,,151.176,151.177,-0.175,-0.289583333,0,0,0,,0,55,55,236,1,huco,,,,
,,,,,,5c9cc12096cb340017b7321f,676192165fb32c2e1fb7aee6,67d182096d51b2815d946171,2025-03-12_13h46.11.433,Tarea de decisión léxica,2024.2.5,Win32,143.6781609,,,,,,,,,,,,,,,,,,,,,,,151.177,152.213,l,1,0.375,,0.375,1,152.214,152.713,,,,,,151,MAS,WORD,AGR,150,tomo,,el,,152.713,152.713,-0.175,-0.289583333,0,0,0,,0,56,56,150,1,sogo,,,,
,,,,,,5c9cc12096cb340017b7321f,676192165fb32c2e1fb7aee6,67d182096d51b2815d946171,2025-03-12_13h46.11.433,Tarea de decisión léxica,2024.2.5,Win32,143.6781609,,,,,,,,,,,,,,,,,,,,,,,152.713,153.735,a,1,0.365,,0.365,1,153.735,154.236,,,,,,278,MAS,NOWORD,DIS,150,vuemo,,la,,154.236,154.236,-0.175,-0.289583333,0,0,0,,0,57,57,277,1,fuego,,,,
,,,,,,5c9cc12096cb340017b7321f,676192165fb32c2e1fb7aee6,67d182096d51b2815d946171,2025-03-12_13h46.11.433,Tarea de decisión léxica,2024.2.5,Win32,143.6781609,,,,,,,,,,,,,,,,,,,,,,,154.236,155.286,l,1,0.389,,0.389,1,155.286,155.787,,,,,,373,FEM,WORD,DIS,150,pizza,,el,,155.787,155.787,-0.175,-0.289583333,0,0,0,,0,58,58,372,1,pogza,,,,
,,,,,,5c9cc12096cb340017b7321f,676192165fb32c2e1fb7aee6,67d182096d51b2815d946171,2025-03-12_13h46.11.433,Tarea de decisión léxica,2024.2.5,Win32,143.6781609,,,,,,,,,,,,,,,,,,,,,,,155.787,156.892,a,1,0.446,,0.446,1,156.893,157.393,,,,,,238,MAS,NOWORD,DIS,150,huco,,la,,157.393,157.394,-0.175,-0.289583333,0,0,0,,0,59,59,237,1,nudo,,,,
,,,,,,5c9cc12096cb340017b7321f,676192165fb32c2e1fb7aee6,67d182096d51b2815d946171,2025-03-12_13h46.11.433,Tarea de decisión léxica,2024.2.5,Win32,143.6781609,,,,,,,,,,,,,,,,,,,,,,,157.394,158.457,a,1,0.403,,0.403,1,158.457,158.957,,,,,,42,FEM,NOWORD,DIS,150,haje,,el,,158.957,158.957,-0.175,-0.289583333,0,0,0,,0,60,60,41,1,nave,,,,
,,,,,,5c9cc12096cb340017b7321f,676192165fb32c2e1fb7aee6,67d182096d51b2815d946171,2025-03-12_13h46.11.433,Tarea de decisión léxica,2024.2.5,Win32,143.6781609,,,,,,,,,,,,,,,,,,,,,,,158.958,160.028,l,1,0.415,,0.415,1,160.028,160.529,,,,,,235,FEM,WORD,AGR,150,grúa,,la,,160.529,160.529,-0.175,-0.289583333,0,0,0,,0,61,61,234,1,tria,,,,
,,,,,,5c9cc12096cb340017b7321f,676192165fb32c2e1fb7aee6,67d182096d51b2815d946171,2025-03-12_13h46.11.433,Tarea de decisión léxica,2024.2.5,Win32,143.6781609,,,,,,,,,,,,,,,,,,,,,,,160.53,161.509,l,1,0.322,,0.322,1,161.509,162.01,,,,,,391,MAS,WORD,AGR,150,dueño,,el,,162.01,162.01,-0.175,-0.289583333,0,0,0,,0,62,62,390,1,dievo,,,,
,,,,,,5c9cc12096cb340017b7321f,676192165fb32c2e1fb7aee6,67d182096d51b2815d946171,2025-03-12_13h46.11.433,Tarea de decisión léxica,2024.2.5,Win32,143.6781609,,,,,,,,,,,,,,,,,,,,,,,162.01,163.094,l,0,0.427,,0.427,0,163.094,163.595,,,,,,430,FEM,NOWORD,DIS,150,tenta,,el,,163.595,163.595,-0.175,-0.289583333,0,0,0,,0,63,63,429,1,tarta,,,,
,,,,,,5c9cc12096cb340017b7321f,676192165fb32c2e1fb7aee6,67d182096d51b2815d946171,2025-03-12_13h46.11.433,Tarea de decisión léxica,2024.2.5,Win32,143.6781609,,,,,,,,,,,,,,,,,,,,,,,163.595,164.701,a,0,0.447,,0.447,0,164.701,165.202,,,,,,73,MAS,WORD,DIS,150,odio,,la,,165.202,165.202,-0.175,-0.289583333,0,0,0,,0,64,64,72,1,omio,,,,
,,,,,,5c9cc12096cb340017b7321f,676192165fb32c2e1fb7aee6,67d182096d51b2815d946171,2025-03-12_13h46.11.433,Tarea de decisión léxica,2024.2.5,Win32,143.6781609,,,,,,,,,,,,,,,,,,,,,,,165.203,166.349,a,1,0.488,,0.488,1,166.349,166.849,,,,,,200,MAS,NOWORD,AGR,150,fano,,el,,166.849,166.849,-0.175,-0.289583333,0,0,0,,0,65,65,199,1,lazo,,,,
,,,,,,5c9cc12096cb340017b7321f,676192165fb32c2e1fb7aee6,67d182096d51b2815d946171,2025-03-12_13h46.11.433,Tarea de decisión léxica,2024.2.5,Win32,143.6781609,,,,,,,,,,,,,,,,,,,,,,,166.85,167.893,l,1,0.385,,0.385,1,167.894,168.393,,,,,,469,MAS,WORD,DIS,150,patio,,la,,168.393,168.393,-0.175,-0.289583333,0,0,0,,0,66,66,468,1,matia,,,,
,,,,,,5c9cc12096cb340017b7321f,676192165fb32c2e1fb7aee6,67d182096d51b2815d946171,2025-03-12_13h46.11.433,Tarea de decisión léxica,2024.2.5,Win32,143.6781609,,,,,,,,,,,,,,,,,,,,,,,168.395,169.443,l,1,0.392,,0.392,1,169.443,169.944,,,,,,355,FEM,WORD,AGR,150,regla,,la,,169.944,169.944,-0.175,-0.289583333,0,0,0,,0,67,67,354,1,bepla,,,,
,,,,,,5c9cc12096cb340017b7321f,676192165fb32c2e1fb7aee6,67d182096d51b2815d946171,2025-03-12_13h46.11.433,Tarea de decisión léxica,2024.2.5,Win32,143.6781609,,,,,,,,,,,,,,,,,,,,,,,169.944,171.007,a,1,0.406,,0.406,1,171.007,171.508,,,,,,314,MAS,NOWORD,DIS,150,govio,,la,,171.508,171.508,-0.175,-0.289583333,0,0,0,,0,68,68,313,1,novio,,,,
,,,,,,5c9cc12096cb340017b7321f,676192165fb32c2e1fb7aee6,67d182096d51b2815d946171,2025-03-12_13h46.11.433,Tarea de decisión léxica,2024.2.5,Win32,143.6781609,,,,,,,,,,,,,,,,,,,,,,,171.508,172.669,a,1,0.501,,0.501,1,172.669,173.17,,,,,,168,FEM,NOWORD,AGR,150,zifa,,la,,173.17,173.171,-0.175,-0.289583333,0,0,0,,0,69,69,167,1,jefa,,,,
,,,,,,5c9cc12096cb340017b7321f,676192165fb32c2e1fb7aee6,67d182096d51b2815d946171,2025-03-12_13h46.11.433,Tarea de decisión léxica,2024.2.5,Win32,143.6781609,,,,,,,,,,,,,,,,,,,,,,,173.172,174.178,a,1,0.347,,0.347,1,174.178,174.678,,,,,,124,FEM,NOWORD,AGR,150,maba,,la,,174.678,174.678,-0.175,-0.289583333,0,0,0,,0,70,70,123,1,flor,,,,
,,,,,,5c9cc12096cb340017b7321f,676192165fb32c2e1fb7aee6,67d182096d51b2815d946171,2025-03-12_13h46.11.433,Tarea de decisión léxica,2024.2.5,Win32,143.6781609,,,,,,,,,,,,,,,,,,,,,,,174.679,175.694,a,1,0.358,,0.358,1,175.694,176.194,,,,,,382,MAS,NOWORD,DIS,150,nusor,,la,,176.194,176.194,-0.175,-0.289583333,0,0,0,,0,71,71,381,1,humor,,,,
,,,,,,5c9cc12096cb340017b7321f,676192165fb32c2e1fb7aee6,67d182096d51b2815d946171,2025-03-12_13h46.11.433,Tarea de decisión léxica,2024.2.5,Win32,143.6781609,,,,,,,,,,,,,,,,,,,,,,,176.195,177.161,l,1,0.306,,0.306,1,177.161,177.662,,,,,,97,MAS,WORD,DIS,150,mono,,la,,177.662,177.662,-0.175,-0.289583333,0,0,0,,0,72,72,96,1,fopo,,,,
,,,,,,5c9cc12096cb340017b7321f,676192165fb32c2e1fb7aee6,67d182096d51b2815d946171,2025-03-12_13h46.11.433,Tarea de decisión léxica,2024.2.5,Win32,143.6781609,,,,,,,,,,,,,,,,,,,,,,,177.662,178.628,a,1,0.306,,0.306,1,178.628,179.129,,,,,,370,MAS,NOWORD,DIS,150,rioco,,la,,179.129,179.129,-0.175,-0.289583333,0,0,0,,0,73,73,369,1,ruido,,,,
,,,,,,5c9cc12096cb340017b7321f,676192165fb32c2e1fb7aee6,67d182096d51b2815d946171,2025-03-12_13h46.11.433,Tarea de decisión léxica,2024.2.5,Win32,143.6781609,,,,,,,,,,,,,,,,,,,,,,,179.13,180.123,a,1,0.336,,0.336,1,180.123,180.624,,,,,,444,MAS,NOWORD,AGR,150,taron,,el,,180.624,180.625,-0.175,-0.289583333,0,0,0,,0,74,74,443,1,salón,,,,
,,,,,,5c9cc12096cb340017b7321f,676192165fb32c2e1fb7aee6,67d182096d51b2815d946171,2025-03-12_13h46.11.433,Tarea de decisión léxica,2024.2.5,Win32,143.6781609,,,,,,,,,,,,,,,,,,,,,,,180.625,181.715,a,1,0.432,,0.432,1,181.716,182.217,,,,,,378,MAS,NOWORD,DIS,150,gaulo,,la,,182.217,182.217,-0.175,-0.289583333,0,0,0,,0,75,75,377,1,hielo,,,,
,,,,,,5c9cc12096cb340017b7321f,676192165fb32c2e1fb7aee6,67d182096d51b2815d946171,2025-03-12_13h46.11.433,Tarea de decisión léxica,2024.2.5,Win32,143.6781609,,,,,,,,,,,,,,,,,,,,,,,182.217,183.336,l,1,0.463,,0.463,1,183.336,183.836,,,,,,429,FEM,WORD,DIS,150,tarta,,el,,183.836,183.836,-0.175,-0.289583333,0,0,0,,0,76,76,428,1,tenta,,,,
,,,,,,5c9cc12096cb340017b7321f,676192165fb32c2e1fb7aee6,67d182096d51b2815d946171,2025-03-12_13h46.11.433,Tarea de decisión léxica,2024.2.5,Win32,143.6781609,,,,,,,,,,,,,,,,,,,,,,,183.837,184.837,l,1,0.342,,0.342,1,184.837,185.338,,,,,,431,MAS,WORD,AGR,150,motor,,el,,185.338,185.338,-0.175,-0.289583333,0,0,0,,0,77,77,430,1,tetor,,,,
,,,,,,5c9cc12096cb340017b7321f,676192165fb32c2e1fb7aee6,67d182096d51b2815d946171,2025-03-12_13h46.11.433,Tarea de decisión léxica,2024.2.5,Win32,143.6781609,,,,,,,,,,,,,,,,,,,,,,,185.339,186.325,l,1,0.331,,0.331,1,186.325,186.826,,,,,,183,FEM,WORD,AGR,150,raya,,la,,186.826,186.826,-0.175,-0.289583333,0,0,0,,0,78,78,182,1,raad,,,,
,,,,,,5c9cc12096cb340017b7321f,676192165fb32c2e1fb7aee6,67d182096d51b2815d946171,2025-03-12_13h46.11.433,Tarea de decisión léxica,2024.2.5,Win32,143.6781609,,,,,,,,,,,,,,,,,,,,,,,186.826,187.807,l,1,0.313,,0.313,1,187.807,188.307,,,,,,63,FEM,WORD,AGR,150,luna,,la,,188.308,188.309,-0.175,-0.289583333,0,0,0,,0,79,79,62,1,funa,,,,
,,,,,,5c9cc12096cb340017b7321f,676192165fb32c2e1fb7aee6,67d182096d51b2815d946171,2025-03-12_13h46.11.433,Tarea de decisión léxica,2024.2.5,Win32,143.6781609,,,,,,,,,,,,,,,,,,,,,,,188.31,189.294,a,1,0.329,,0.329,1,189.294,189.795,,,,,,298,MAS,NOWORD,DIS,150,brubo,,la,,189.795,189.795,-0.175,-0.289583333,0,0,0,,0,80,80,297,1,grupo,,,,
,,,,,,5c9cc12096cb340017b7321f,676192165fb32c2e1fb7aee6,67d182096d51b2815d946171,2025-03-12_13h46.11.433,Tarea de decisión léxica,2024.2.5,Win32,143.6781609,,,,,,,,,,,,,,,,,,,,,,,189.795,190.81,a,1,0.355,,0.355,1,190.81,191.311,,,,,,376,FEM,NOWORD,AGR,150,sasna,,la,,191.311,191.311,-0.175,-0.289583333,0,0,0,,0,81,81,375,1,salsa,,,,
,,,,,,5c9cc12096cb340017b7321f,676192165fb32c2e1fb7aee6,67d182096d51b2815d946171,2025-03-12_13h46.11.433,Tarea de decisión léxica,2024.2.5,Win32,143.6781609,,,,,,,,,,,,,,,,,,,,,,,191.311,192.354,l,1,0.387,,0.387,1,192.354,192.855,,,,,,3,FEM,WORD,AGR,150,vida,,la,,192.855,192.855,-0.175,-0.289583333,0,0,0,,0,82,82,2,1,dica,,,,
,,,,,,5c9cc12096cb340017b7321f,676192165fb32c2e1fb7aee6,67d182096d51b2815d946171,2025-03-12_13h46.11.433,Tarea de decisión léxica,2024.2.5,Win32,143.6781609,,,,,,,,,,,,,,,,,,,,,,,192.855,193.766,l,1,0.251,,0.251,1,193.766,194.266,,,,,,29,MAS,WORD,DIS,150,modo,,la,,194.267,194.267,-0.175,-0.289583333,0,0,0,,0,83,83,28,1,pono,,,,
,,,,,,5c9cc12096cb340017b7321f,676192165fb32c2e1fb7aee6,67d182096d51b2815d946171,2025-03-12_13h46.11.433,Tarea de decisión léxica,2024.2.5,Win32,143.6781609,,,,,,,,,,,,,,,,,,,,,,,194.268,195.338,a,1,0.411,,0.411,1,195.338,195.838,,,,,,280,FEM,NOWORD,AGR,150,grina,,la,,195.838,195.838,-0.175,-0.289583333,0,0,0,,0,84,84,279,1,prisa,,,,
,,,,,,5c9cc12096cb340017b7321f,676192165fb32c2e1fb7aee6,67d182096d51b2815d946171,2025-03-12_13h46.11.433,Tarea de decisión léxica,2024.2.5,Win32,143.6781609,,,,,,,,,,,,,,,,,,,,,,,195.838,196.818,a,1,0.323,,0.323,1,196.818,197.319,,,,,,38,MAS,NOWORD,DIS,150,gaco,,la,,197.319,197.319,-0.175,-0.289583333,0,0,0,,0,85,85,37,1,rato,,,,
,,,,,,5c9cc12096cb340017b7321f,676192165fb32c2e1fb7aee6,67d182096d51b2815d946171,2025-03-12_13h46.11.433,Tarea de decisión léxica,2024.2.5,Win32,143.6781609,,,,,,,,,,,,,,,,,,,,,,,197.319,198.376,a,0,0.398,,0.398,0,198.377,198.877,,,,,,301,FEM,WORD,DIS,150,banda,,el,,198.877,198.877,-0.175,-0.289583333,0,0,0,,0,86,86,300,1,ranga,,,,
,,,,,,5c9cc12096cb340017b7321f,676192165fb32c2e1fb7aee6,67d182096d51b2815d946171,2025-03-12_13h46.11.433,Tarea de decisión léxica,2024.2.5,Win32,143.6781609,,,,,,,,,,,,,,,,,,,,,,,198.877,199.996,a,1,0.463,,0.463,1,199.996,200.49,,,,,,334,FEM,NOWORD,DIS,150,dalea,,el,,200.49,200.49,-0.175,-0.289583333,0,0,0,,0,87,87,333,1,tarea,,,,
,,,,,,5c9cc12096cb340017b7321f,676192165fb32c2e1fb7aee6,67d182096d51b2815d946171,2025-03-12_13h46.11.433,Tarea de decisión léxica,2024.2.5,Win32,143.6781609,,,,,,,,,,,,,,,,,,,,,,,200.49,201.574,a,1,0.425,,0.425,1,201.575,202.075,,,,,,222,FEM,NOWORD,DIS,150,puca,,el,,202.076,202.077,-0.175,-0.289583333,0,0,0,,0,88,88,221,1,mula,,,,
,,,,,,5c9cc12096cb340017b7321f,676192165fb32c2e1fb7aee6,67d182096d51b2815d946171,2025-03-12_13h46.11.433,Tarea de decisión léxica,2024.2.5,Win32,143.6781609,,,,,,,,,,,,,,,,,,,,,,,202.078,203.103,l,1,0.368,,0.368,1,203.103,203.604,,,,,,403,FEM,WORD,AGR,150,prima,,la,,203.604,203.604,-0.175,-0.289583333,0,0,0,,0,89,89,402,1,grisa,,,,
,,,,,,5c9cc12096cb340017b7321f,676192165fb32c2e1fb7aee6,67d182096d51b2815d946171,2025-03-12_13h46.11.433,Tarea de decisión léxica,2024.2.5,Win32,143.6781609,,,,,,,,,,,,,,,,,,,,,,,203.605,204.613,l,1,0.348,,0.348,1,204.613,205.113,,,,,,319,MAS,WORD,AGR,150,suelo,,el,,205.113,205.113,-0.175,-0.289583333,0,0,0,,0,90,90,318,1,tuero,,,,
,,,,,,5c9cc12096cb340017b7321f,676192165fb32c2e1fb7aee6,67d182096d51b2815d946171,2025-03-12_13h46.11.433,Tarea de decisión léxica,2024.2.5,Win32,143.6781609,,,,,,,,,,,,,,,,,,,,,,,205.114,206.177,l,1,0.403,,0.403,1,206.177,206.678,,,,,,159,MAS,WORD,AGR,150,giro,,el,,206.678,206.678,-0.175,-0.289583333,0,0,0,,0,91,91,158,1,bilo,,,,
,,,,,,5c9cc12096cb340017b7321f,676192165fb32c2e1fb7aee6,67d182096d51b2815d946171,2025-03-12_13h46.11.433,Tarea de decisión léxica,2024.2.5,Win32,143.6781609,,,,,,,,,,,,,,,,,,,,,,,206.678,207.727,a,1,0.393,,0.393,1,207.728,208.229,,,,,,274,FEM,NOWORD,DIS,150,frosa,,el,,208.229,208.229,-0.175,-0.289583333,0,0,0,,0,92,92,273,1,broma,,,,
,,,,,,5c9cc12096cb340017b7321f,676192165fb32c2e1fb7aee6,67d182096d51b2815d946171,2025-03-12_13h46.11.433,Tarea de decisión léxica,2024.2.5,Win32,143.6781609,,,,,,,,,,,,,,,,,,,,,,,208.229,209.327,a,1,0.438,,0.438,1,209.327,209.828,,,,,,236,FEM,NOWORD,AGR,150,tria,,la,,209.828,209.829,-0.175,-0.289583333,0,0,0,,0,93,93,235,1,grúa,,,,
,,,,,,5c9cc12096cb340017b7321f,676192165fb32c2e1fb7aee6,67d182096d51b2815d946171,2025-03-12_13h46.11.433,Tarea de decisión léxica,2024.2.5,Win32,143.6781609,,,,,,,,,,,,,,,,,,,,,,,209.83,210.878,a,1,0.39,,0.39,1,210.878,211.379,,,,,,182,FEM,NOWORD,DIS,150,teda,,el,,211.379,211.379,-0.175,-0.289583333,0,0,0,,0,94,94,181,1,seda,,,,
,,,,,,5c9cc12096cb340017b7321f,676192165fb32c2e1fb7aee6,67d182096d51b2815d946171,2025-03-12_13h46.11.433,Tarea de decisión léxica,2024.2.5,Win32,143.6781609,,,,,,,,,,,,,,,,,,,,,,,211.379,212.525,l,1,0.486,,0.486,1,212.525,213.02,,,,,,353,FEM,WORD,DIS,150,celda,,el,,213.02,213.02,-0.175,-0.289583333,0,0,0,,0,95,95,352,1,cezca,,,,
,,,,,,5c9cc12096cb340017b7321f,676192165fb32c2e1fb7aee6,67d182096d51b2815d946171,2025-03-12_13h46.11.433,Tarea de decisión léxica,2024.2.5,Win32,143.6781609,,,,,,,,,,,,,,,,,,,,,,,213.02,214.139,l,1,0.46,,0.46,1,214.139,214.64,,,,,,153,MAS,WORD,DIS,150,pato,,la,,214.64,214.64,-0.175,-0.289583333,0,0,0,,0,96,96,152,1,tado,,,,
,,,,,,5c9cc12096cb340017b7321f,676192165fb32c2e1fb7aee6,67d182096d51b2815d946171,2025-03-12_13h46.11.433,Tarea de decisión léxica,2024.2.5,Win32,143.6781609,,,,,,,,,,,,,,,,,,,,,,,214.64,215.641,a,1,0.344,,0.344,1,215.641,216.142,,,,,,70,FEM,NOWORD,DIS,150,ñola,,el,,216.142,216.142,-0.175,-0.289583333,0,0,0,,0,97,97,69,1,zona,,,,
,,,,,,5c9cc12096cb340017b7321f,676192165fb32c2e1fb7aee6,67d182096d51b2815d946171,2025-03-12_13h46.11.433,Tarea de decisión léxica,2024.2.5,Win32,143.6781609,,,,,,,,,,,,,,,,,,,,,,,216.142,217.184,l,1,0.384,,0.384,1,217.184,217.685,,,,,,389,MAS,WORD,DIS,150,cerdo,,la,,217.686,217.686,-0.175,-0.289583333,0,0,0,,0,98,98,388,1,cenco,,,,
,,,,,,5c9cc12096cb340017b7321f,676192165fb32c2e1fb7aee6,67d182096d51b2815d946171,2025-03-12_13h46.11.433,Tarea de decisión léxica,2024.2.5,Win32,143.6781609,,,,,,,,,,,,,,,,,,,,,,,217.686,218.756,a,1,0.413,,0.413,1,218.756,219.256,,,,,,2,FEM,NOWORD,DIS,150,mada,,el,,219.256,219.256,-0.175,-0.289583333,0,0,0,,0,99,99,1,1,casa,,,,
,,,,,,5c9cc12096cb340017b7321f,676192165fb32c2e1fb7aee6,67d182096d51b2815d946171,2025-03-12_13h46.11.433,Tarea de decisión léxica,2024.2.5,Win32,143.6781609,,,,,,,,,,,,,,,,,,,,,,,219.257,220.299,a,1,0.382,,0.382,1,220.299,220.8,,,,,,56,MAS,NOWORD,AGR,150,jado,,el,,220.8,220.8,-0.175,-0.289583333,0,0,0,,0,100,100,55,1,gato,,,,
,,,,,,5c9cc12096cb340017b7321f,676192165fb32c2e1fb7aee6,67d182096d51b2815d946171,2025-03-12_13h46.11.433,Tarea de decisión léxica,2024.2.5,Win32,143.6781609,,,,,,,,,,,,,,,,,,,,,,,220.801,221.933,l,0,0.476,,0.476,0,221.935,222.435,,,,,,54,FEM,NOWORD,DIS,150,rora,,el,,222.435,222.435,-0.175,-0.289583333,0,0,0,,0,101,101,53,1,boda,,,,
,,,,,,5c9cc12096cb340017b7321f,676192165fb32c2e1fb7aee6,67d182096d51b2815d946171,2025-03-12_13h46.11.433,Tarea de decisión léxica,2024.2.5,Win32,143.6781609,,,,,,,,,,,,,,,,,,,,,,,222.436,223.533,l,1,0.439,,0.439,1,223.533,224.033,,,,,,387,FEM,WORD,AGR,150,crema,,la,,224.033,224.033,-0.175,-0.289583333,0,0,0,,0,102,102,386,1,bresa,,,,
,,,,,,5c9cc12096cb340017b7321f,676192165fb32c2e1fb7aee6,67d182096d51b2815d946171,2025-03-12_13h46.11.433,Tarea de decisión léxica,2024.2.5,Win32,143.6781609,,,,,,,,,,,,,,,,,,,,,,,224.034,225.223,a,1,0.53,,0.53,1,225.223,225.723,,,,,,164,FEM,NOWORD,AGR,150,laga,,la,,225.724,225.724,-0.175,-0.289583333,0,0,0,,0,103,103,163,1,fama,,,,
,,,,,,5c9cc12096cb340017b7321f,676192165fb32c2e1fb7aee6,67d182096d51b2815d946171,2025-03-12_13h46.11.433,Tarea de decisión léxica,2024.2.5,Win32,143.6781609,,,,,,,,,,,,,,,,,,,,,,,225.725,226.933,a,1,0.549,,0.549,1,226.933,227.434,,,,,,436,MAS,NOWORD,AGR,150,ricno,,el,,227.434,227.434,-0.175,-0.289583333,0,0,0,,0,104,104,435,1,ritmo,,,,
,,,,,,5c9cc12096cb340017b7321f,676192165fb32c2e1fb7aee6,67d182096d51b2815d946171,2025-03-12_13h46.11.433,Tarea de decisión léxica,2024.2.5,Win32,143.6781609,,,,,,,,,,,,,,,,,,,,,,,227.434,228.692,a,1,0.601,,0.601,1,228.692,229.193,,,,,,90,MAS,NOWORD,DIS,150,guso,,la,,229.193,229.193,-0.175,-0.289583333,0,0,0,,0,105,105,89,1,humo,,,,
,,,,,,5c9cc12096cb340017b7321f,676192165fb32c2e1fb7aee6,67d182096d51b2815d946171,2025-03-12_13h46.11.433,Tarea de decisión léxica,2024.2.5,Win32,143.6781609,,,,,,,,,,,,,,,,,,,,,,,229.193,230.201,l,1,0.347,,0.347,1,230.202,230.702,,,,,,187,MAS,WORD,AGR,150,mito,,el,,230.702,230.702,-0.175,-0.289583333,0,0,0,,0,106,106,186,1,suto,,,,
,,,,,,5c9cc12096cb340017b7321f,676192165fb32c2e1fb7aee6,67d182096d51b2815d946171,2025-03-12_13h46.11.433,Tarea de decisión léxica,2024.2.5,Win32,143.6781609,,,,,,,,,,,,,,,,,,,,,,,230.703,231.752,l,1,0.39,,0.39,1,231.752,232.252,,,,,,199,MAS,WORD,AGR,150,lazo,,el,,232.253,232.253,-0.175,-0.289583333,0,0,0,,0,107,107,198,1,fano,,,,
,,,,,,5c9cc12096cb340017b7321f,676192165fb32c2e1fb7aee6,67d182096d51b2815d946171,2025-03-12_13h46.11.433,Tarea de decisión léxica,2024.2.5,Win32,143.6781609,,,,,,,,,,,,,,,,,,,,,,,232.254,233.358,a,1,0.445,,0.445,1,233.358,233.859,,,,,,190,MAS,NOWORD,DIS,150,muvo,,la,,233.859,233.859,-0.175,-0.289583333,0,0,0,,0,108,108,189,1,puño,,,,
,,,,,,5c9cc12096cb340017b7321f,676192165fb32c2e1fb7aee6,67d182096d51b2815d946171,2025-03-12_13h46.11.433,Tarea de decisión léxica,2024.2.5,Win32,143.6781609,,,,,,,,,,,,,,,,,,,,,,,233.859,234.985,a,1,0.469,,0.469,1,234.985,235.486,,,,,,32,FEM,NOWORD,AGR,150,bova,,la,,235.486,235.487,-0.175,-0.289583333,0,0,0,,0,109,109,31,1,ropa,,,,
,,,,,,5c9cc12096cb340017b7321f,676192165fb32c2e1fb7aee6,67d182096d51b2815d946171,2025-03-12_13h46.11.433,Tarea de decisión léxica,2024.2.5,Win32,143.6781609,,,,,,,,,,,,,,,,,,,,,,,235.488,236.487,l,1,0.342,,0.342,1,236.487,236.987,,,,,,423,MAS,WORD,AGR,150,queso,,el,,236.987,236.987,-0.175,-0.289583333,0,0,0,,0,110,110,422,1,quigo,,,,
,,,,,,5c9cc12096cb340017b7321f,676192165fb32c2e1fb7aee6,67d182096d51b2815d946171,2025-03-12_13h46.11.433,Tarea de decisión léxica,2024.2.5,Win32,143.6781609,,,,,,,,,,,,,,,,,,,,,,,236.988,238.058,l,1,0.411,,0.411,1,238.058,238.559,,,,,,57,MAS,WORD,DIS,150,dedo,,la,,238.559,238.559,-0.175,-0.289583333,0,0,0,,0,111,111,56,1,heco,,,,
,,,,,,5c9cc12096cb340017b7321f,676192165fb32c2e1fb7aee6,67d182096d51b2815d946171,2025-03-12_13h46.11.433,Tarea de decisión léxica,2024.2.5,Win32,143.6781609,,,,,,,,,,,,,,,,,,,,,,,238.56,239.658,l,1,0.439,,0.439,1,239.658,240.158,,,,,,177,MAS,WORD,DIS,150,reto,,la,,240.158,240.159,-0.175,-0.289583333,0,0,0,,0,112,112,176,1,bito,,,,
,,,,,,5c9cc12096cb340017b7321f,676192165fb32c2e1fb7aee6,67d182096d51b2815d946171,2025-03-12_13h46.11.433,Tarea de decisión léxica,2024.2.5,Win32,143.6781609,,,,,,,,,,,,,,,,,,,,,,,240.159,241.16,l,1,0.345,,0.345,1,241.16,241.66,,,,,,135,MAS,WORD,AGR,150,tubo,,el,,241.66,241.66,-0.175,-0.289583333,0,0,0,,0,113,113,134,1,geso,,,,
,,,,,,5c9cc12096cb340017b7321f,676192165fb32c2e1fb7aee6,67d182096d51b2815d946171,2025-03-12_13h46.11.433,Tarea de decisión léxica,2024.2.5,Win32,143.6781609,,,,,,,,,,,,,,,,,,,,,,,241.661,242.648,l,1,0.327,,0.327,1,242.648,243.148,,,,,,121,MAS,WORD,DIS,150,hoyo,,la,,243.148,243.148,-0.175,-0.289583333,0,0,0,,0,114,114,120,1,bomo,,,,
,,,,,,5c9cc12096cb340017b7321f,676192165fb32c2e1fb7aee6,67d182096d51b2815d946171,2025-03-12_13h46.11.433,Tarea de decisión léxica,2024.2.5,Win32,143.6781609,,,,,,,,,,,,,,,,,,,,,,,243.149,244.178,a,1,0.368,,0.368,1,244.178,244.678,,,,,,206,FEM,NOWORD,DIS,150,bara,,el,,244.678,244.678,-0.175,-0.289583333,0,0,0,,0,115,115,205,1,rana,,,,
,,,,,,5c9cc12096cb340017b7321f,676192165fb32c2e1fb7aee6,67d182096d51b2815d946171,2025-03-12_13h46.11.433,Tarea de decisión léxica,2024.2.5,Win32,143.6781609,,,,,,,,,,,,,,,,,,,,,,,244.679,245.749,l,1,0.411,,0.411,1,245.749,246.249,,,,,,191,FEM,WORD,AGR,150,pila,,la,,246.249,246.249,-0.175,-0.289583333,0,0,0,,0,116,116,190,1,bila,,,,
,,,,,,5c9cc12096cb340017b7321f,676192165fb32c2e1fb7aee6,67d182096d51b2815d946171,2025-03-12_13h46.11.433,Tarea de decisión léxica,2024.2.5,Win32,143.6781609,,,,,,,,,,,,,,,,,,,,,,,246.25,247.258,a,1,0.348,,0.348,1,247.258,247.759,,,,,,152,MAS,NOWORD,AGR,150,sogo,,el,,247.759,247.76,-0.175,-0.289583333,0,0,0,,0,117,117,151,1,tomo,,,,
,,,,,,5c9cc12096cb340017b7321f,676192165fb32c2e1fb7aee6,67d182096d51b2815d946171,2025-03-12_13h46.11.433,Tarea de decisión léxica,2024.2.5,Win32,143.6781609,,,,,,,,,,,,,,,,,,,,,,,247.76,248.905,l,1,0.49,,0.49,1,248.905,249.406,,,,,,267,MAS,WORD,AGR,150,libro,,el,,249.407,249.407,-0.175,-0.289583333,0,0,0,,0,118,118,266,1,figro,,,,
,,,,,,5c9cc12096cb340017b7321f,676192165fb32c2e1fb7aee6,67d182096d51b2815d946171,2025-03-12_13h46.11.433,Tarea de decisión léxica,2024.2.5,Win32,143.6781609,,,,,,,,,,,,,,,,,,,,,,,249.407,250.415,a,1,0.351,,0.351,1,250.415,250.915,,,,,,22,MAS,NOWORD,DIS,150,blan,,la,,250.915,250.915,-0.175,-0.289583333,0,0,0,,0,119,119,21,1,plan,,,,
,,,,,,5c9cc12096cb340017b7321f,676192165fb32c2e1fb7aee6,67d182096d51b2815d946171,2025-03-12_13h46.11.433,Tarea de decisión léxica,2024.2.5,Win32,143.6781609,,,,,,,,,,,,,,,,,,,,,,,250.916,251.895,l,1,0.321,,0.321,1,251.896,252.39,,,,,,399,MAS,WORD,AGR,150,techo,,el,,252.39,252.39,-0.175,-0.289583333,0,0,0,,0,120,120,398,1,serro,,,,
,,,,,,5c9cc12096cb340017b7321f,676192165fb32c2e1fb7aee6,67d182096d51b2815d946171,2025-03-12_13h46.11.433,Tarea de decisión léxica,2024.2.5,Win32,143.6781609,,,,,,,,,,,,,,,,,,,,,,,252.39,253.593,l,1,0.544,,0.544,1,253.593,254.092,,,,,,269,MAS,WORD,DIS,150,perro,,la,,254.092,254.093,-0.175,-0.289583333,0,0,0,,0,121,121,268,1,mello,,,,
,,,,,,5c9cc12096cb340017b7321f,676192165fb32c2e1fb7aee6,67d182096d51b2815d946171,2025-03-12_13h46.11.433,Tarea de decisión léxica,2024.2.5,Win32,143.6781609,,,,,,,,,,,,,,,,,,,,,,,254.093,255.198,l,1,0.446,,0.446,1,255.198,255.693,,,,,,85,MAS,WORD,DIS,150,lago,,la,,255.693,255.693,-0.175,-0.289583333,0,0,0,,0,122,122,84,1,babo,,,,
,,,,,,5c9cc12096cb340017b7321f,676192165fb32c2e1fb7aee6,67d182096d51b2815d946171,2025-03-12_13h46.11.433,Tarea de decisión léxica,2024.2.5,Win32,143.6781609,,,,,,,,,,,,,,,,,,,,,,,255.694,257.076,a,1,0.723,,0.723,1,257.076,257.576,,,,,,464,FEM,NOWORD,AGR,150,matla,,la,,257.576,257.576,-0.175,-0.289583333,0,0,0,,0,123,123,463,1,cabra,,,,
,,,,,,5c9cc12096cb340017b7321f,676192165fb32c2e1fb7aee6,67d182096d51b2815d946171,2025-03-12_13h46.11.433,Tarea de decisión léxica,2024.2.5,Win32,143.6781609,,,,,,,,,,,,,,,,,,,,,,,257.577,258.627,a,1,0.39,,0.39,1,258.627,259.127,,,,,,6,FEM,NOWORD,DIS,150,poga,,el,,259.127,259.127,-0.175,-0.289583333,0,0,0,,0,124,124,5,1,cosa,,,,
,,,,,,5c9cc12096cb340017b7321f,676192165fb32c2e1fb7aee6,67d182096d51b2815d946171,2025-03-12_13h46.11.433,Tarea de decisión léxica,2024.2.5,Win32,143.6781609,,,,,,,,,,,,,,,,,,,,,,,259.128,260.212,a,1,0.428,,0.428,1,260.212,260.713,,,,,,284,MAS,NOWORD,AGR,150,tuevo,,el,,260.713,260.713,-0.175,-0.289583333,0,0,0,,0,125,125,283,1,sueño,,,,
,,,,,,5c9cc12096cb340017b7321f,676192165fb32c2e1fb7aee6,67d182096d51b2815d946171,2025-03-12_13h46.11.433,Tarea de decisión léxica,2024.2.5,Win32,143.6781609,,,,,,,,,,,,,,,,,,,,,,,260.713,261.866,l,1,0.494,,0.494,1,261.866,262.361,,,,,,401,MAS,WORD,DIS,150,polvo,,la,,262.361,262.361,-0.175,-0.289583333,0,0,0,,0,126,126,400,1,pirvo,,,,
,,,,,,5c9cc12096cb340017b7321f,676192165fb32c2e1fb7aee6,67d182096d51b2815d946171,2025-03-12_13h46.11.433,Tarea de decisión léxica,2024.2.5,Win32,143.6781609,,,,,,,,,,,,,,,,,,,,,,,262.361,263.362,l,1,0.34,,0.34,1,263.362,263.862,,,,,,421,MAS,WORD,DIS,150,primo,,la,,263.862,263.863,-0.175,-0.289583333,0,0,0,,0,127,127,420,1,griso,,,,
,,,,,,5c9cc12096cb340017b7321f,676192165fb32c2e1fb7aee6,67d182096d51b2815d946171,2025-03-12_13h46.11.433,Tarea de decisión léxica,2024.2.5,Win32,143.6781609,,,,,,,,,,,,,,,,,,,,,,,263.864,264.892,l,1,0.371,,0.371,1,264.892,265.392,,,,,,315,FEM,WORD,AGR,150,reina,,la,,265.392,265.392,-0.175,-0.289583333,0,0,0,,0,128,128,314,1,riosa,,,,
,,,,,,5c9cc12096cb340017b7321f,676192165fb32c2e1fb7aee6,67d182096d51b2815d946171,2025-03-12_13h46.11.433,Tarea de decisión léxica,2024.2.5,Win32,143.6781609,,,,,,,,,,,,,,,,,,,,,,,265.393,266.365,l,1,0.313,,0.313,1,266.365,266.866,,,,,,311,MAS,WORD,AGR,150,honor,,el,,266.866,266.866,-0.175,-0.289583333,0,0,0,,0,129,129,310,1,nosor,,,,
,,,,,,5c9cc12096cb340017b7321f,676192165fb32c2e1fb7aee6,67d182096d51b2815d946171,2025-03-12_13h46.11.433,Tarea de decisión léxica,2024.2.5,Win32,143.6781609,,,,,,,,,,,,,,,,,,,,,,,266.866,267.854,a,1,0.327,,0.327,1,267.855,268.354,,,,,,128,MAS,NOWORD,AGR,150,itio,,el,,268.354,268.354,-0.175,-0.289583333,0,0,0,,0,130,130,127,1,pico,,,,
,,,,,,5c9cc12096cb340017b7321f,676192165fb32c2e1fb7aee6,67d182096d51b2815d946171,2025-03-12_13h46.11.433,Tarea de decisión léxica,2024.2.5,Win32,143.6781609,,,,,,,,,,,,,,,,,,,,,,,268.356,269.397,l,1,0.383,,0.383,1,269.397,269.897,,,,,,139,MAS,WORD,AGR,150,mago,,el,,269.898,269.899,-0.175,-0.289583333,0,0,0,,0,131,131,138,1,nila,,,,
,,,,,,5c9cc12096cb340017b7321f,676192165fb32c2e1fb7aee6,67d182096d51b2815d946171,2025-03-12_13h46.11.433,Tarea de decisión léxica,2024.2.5,Win32,143.6781609,,,,,,,,,,,,,,,,,,,,,,,269.899,270.871,l,1,0.317,,0.317,1,270.871,271.372,,,,,,193,FEM,WORD,DIS,150,loca,,el,,271.372,271.372,-0.175,-0.289583333,0,0,0,,0,132,132,192,1,foda,,,,
,,,,,,5c9cc12096cb340017b7321f,676192165fb32c2e1fb7aee6,67d182096d51b2815d946171,2025-03-12_13h46.11.433,Tarea de decisión léxica,2024.2.5,Win32,143.6781609,,,,,,,,,,,,,,,,,,,,,,,271.373,272.477,l,0,0.446,,0.446,0,272.478,272.978,,,,,,422,MAS,NOWORD,DIS,150,griso,,la,,272.978,272.978,-0.175,-0.289583333,0,0,0,,0,133,133,421,1,primo,,,,
,,,,,,5c9cc12096cb340017b7321f,676192165fb32c2e1fb7aee6,67d182096d51b2815d946171,2025-03-12_13h46.11.433,Tarea de decisión léxica,2024.2.5,Win32,143.6781609,,,,,,,,,,,,,,,,,,,,,,,272.978,274.021,a,0,0.383,,0.383,0,274.021,274.521,,,,,,17,FEM,WORD,DIS,150,mamá,,el,,274.521,274.521,-0.175,-0.289583333,0,0,0,,0,134,134,16,1,paba,,,,
,,,,,,5c9cc12096cb340017b7321f,676192165fb32c2e1fb7aee6,67d182096d51b2815d946171,2025-03-12_13h46.11.433,Tarea de decisión léxica,2024.2.5,Win32,143.6781609,,,,,,,,,,,,,,,,,,,,,,,274.522,275.933,l,1,0.755,,0.755,1,275.934,276.434,,,,,,425,FEM,WORD,DIS,150,viuda,,el,,276.434,276.434,-0.175,-0.289583333,0,0,0,,0,135,135,424,1,virca,,,,
,,,,,,5c9cc12096cb340017b7321f,676192165fb32c2e1fb7aee6,67d182096d51b2815d946171,2025-03-12_13h46.11.433,Tarea de decisión léxica,2024.2.5,Win32,143.6781609,,,,,,,,,,,,,,,,,,,,,,,276.434,277.553,a,1,0.461,,0.461,1,277.553,278.054,,,,,,66,MAS,NOWORD,DIS,150,nios,,la,,278.055,278.055,-0.175,-0.289583333,0,0,0,,0,136,136,65,1,dios,,,,
,,,,,,5c9cc12096cb340017b7321f,676192165fb32c2e1fb7aee6,67d182096d51b2815d946171,2025-03-12_13h46.11.433,Tarea de decisión léxica,2024.2.5,Win32,143.6781609,,,,,,,,,,,,,,,,,,,,,,,278.055,279.174,a,1,0.461,,0.461,1,279.174,279.674,,,,,,480,MAS,NOWORD,AGR,150,rimpo,,el,,279.674,279.674,-0.175,-0.289583333,0,0,0,,0,137,137,479,1,rumbo,,,,
,,,,,,5c9cc12096cb340017b7321f,676192165fb32c2e1fb7aee6,67d182096d51b2815d946171,2025-03-12_13h46.11.433,Tarea de decisión léxica,2024.2.5,Win32,143.6781609,,,,,,,,,,,,,,,,,,,,,,,279.675,280.703,l,1,0.372,,0.372,1,280.703,281.204,,,,,,79,FEM,WORD,AGR,150,piel,,la,,281.204,281.204,-0.175,-0.289583333,0,0,0,,0,138,138,78,1,ciel,,,,
,,,,,,5c9cc12096cb340017b7321f,676192165fb32c2e1fb7aee6,67d182096d51b2815d946171,2025-03-12_13h46.11.433,Tarea de decisión léxica,2024.2.5,Win32,143.6781609,,,,,,,,,,,,,,,,,,,,,,,281.204,282.338,a,1,0.472,,0.472,1,282.338,282.837,,,,,,62,FEM,NOWORD,DIS,150,efla,,el,,282.837,282.837,-0.175,-0.289583333,0,0,0,,0,139,139,61,1,obra,,,,
,,,,,,5c9cc12096cb340017b7321f,676192165fb32c2e1fb7aee6,67d182096d51b2815d946171,2025-03-12_13h46.11.433,Tarea de decisión léxica,2024.2.5,Win32,143.6781609,,,,,,,,,,,,,,,,,,,,,,,282.839,283.964,a,1,0.466,,0.466,1,283.964,284.465,,,,,,154,MAS,NOWORD,DIS,150,tado,,la,,284.465,284.465,-0.175,-0.289583333,0,0,0,,0,140,140,153,1,pato,,,,
,,,,,,5c9cc12096cb340017b7321f,676192165fb32c2e1fb7aee6,67d182096d51b2815d946171,2025-03-12_13h46.11.433,Tarea de decisión léxica,2024.2.5,Win32,143.6781609,,,,,,,,,,,,,,,,,,,,,,,284.465,285.397,l,1,0.272,,0.272,1,285.397,285.897,,,,,,251,MAS,WORD,AGR,150,señor,,el,,285.898,285.899,-0.175,-0.289583333,0,0,0,,0,141,141,250,1,refor,,,,
,,,,,,5c9cc12096cb340017b7321f,676192165fb32c2e1fb7aee6,67d182096d51b2815d946171,2025-03-12_13h46.11.433,Tarea de decisión léxica,2024.2.5,Win32,143.6781609,,,,,,,,,,,,,,,,,,,,,,,285.899,286.864,l,1,0.309,,0.309,1,286.864,287.364,,,,,,51,FEM,WORD,AGR,150,caja,,la,,287.364,287.364,-0.175,-0.289583333,0,0,0,,0,142,142,50,1,mava,,,,
,,,,,,5c9cc12096cb340017b7321f,676192165fb32c2e1fb7aee6,67d182096d51b2815d946171,2025-03-12_13h46.11.433,Tarea de decisión léxica,2024.2.5,Win32,143.6781609,,,,,,,,,,,,,,,,,,,,,,,287.364,288.372,l,1,0.349,,0.349,1,288.372,288.873,,,,,,363,FEM,WORD,AGR,150,deuda,,la,,288.873,288.873,-0.175,-0.289583333,0,0,0,,0,143,143,362,1,veida,,,,
,,,,,,5c9cc12096cb340017b7321f,676192165fb32c2e1fb7aee6,67d182096d51b2815d946171,2025-03-12_13h46.11.433,Tarea de decisión léxica,2024.2.5,Win32,143.6781609,,,,,,,,,,,,,,,,,,,,,,,288.874,289.958,l,1,0.425,,0.425,1,289.958,290.459,,,,,,217,MAS,WORD,DIS,150,luto,,la,,290.459,290.459,-0.175,-0.289583333,0,0,0,,0,144,144,216,1,budo,,,,
,,,,,,5c9cc12096cb340017b7321f,676192165fb32c2e1fb7aee6,67d182096d51b2815d946171,2025-03-12_13h46.11.433,Tarea de decisión léxica,2024.2.5,Win32,143.6781609,,,,,,,,,,,,,,,,,,,,,,,290.459,291.384,l,1,0.263,,0.263,1,291.384,291.884,,,,,,375,FEM,WORD,AGR,150,salsa,,la,,291.884,291.884,-0.175,-0.289583333,0,0,0,,0,145,145,374,1,sasna,,,,
,,,,,,5c9cc12096cb340017b7321f,676192165fb32c2e1fb7aee6,67d182096d51b2815d946171,2025-03-12_13h46.11.433,Tarea de decisión léxica,2024.2.5,Win32,143.6781609,,,,,,,,,,,,,,,,,,,,,,,291.885,292.774,l,1,0.23,,0.23,1,292.774,293.275,,,,,,145,MAS,WORD,DIS,150,león,,la,,293.275,293.275,-0.175,-0.289583333,0,0,0,,0,146,146,144,1,nobo,,,,
,,,,,,5c9cc12096cb340017b7321f,676192165fb32c2e1fb7aee6,67d182096d51b2815d946171,2025-03-12_13h46.11.433,Tarea de decisión léxica,2024.2.5,Win32,143.6781609,,,,,,,,,,,,,,,,,,,,,,,293.276,294.255,a,1,0.322,,0.322,1,294.255,294.756,,,,,,246,FEM,NOWORD,DIS,150,pafle,,el,,294.756,294.756,-0.175,-0.289583333,0,0,0,,0,147,147,245,1,madre,,,,
,,,,,,5c9cc12096cb340017b7321f,676192165fb32c2e1fb7aee6,67d182096d51b2815d946171,2025-03-12_13h46.11.433,Tarea de decisión léxica,2024.2.5,Win32,143.6781609,,,,,,,,,,,,,,,,,,,,,,,294.756,295.736,l,1,0.322,,0.322,1,295.736,296.237,,,,,,419,MAS,WORD,AGR,150,truco,,el,,296.237,296.237,-0.175,-0.289583333,0,0,0,,0,148,148,418,1,chudo,,,,
,,,,,,5c9cc12096cb340017b7321f,676192165fb32c2e1fb7aee6,67d182096d51b2815d946171,2025-03-12_13h46.11.433,Tarea de decisión léxica,2024.2.5,Win32,143.6781609,,,,,,,,,,,,,,,,,,,,,,,296.238,297.349,l,1,0.455,,0.455,1,297.35,297.85,,,,,,439,FEM,WORD,AGR,150,presa,,la,,297.85,297.85,-0.175,-0.289583333,0,0,0,,0,149,149,438,1,prema,,,,
,,,,,,5c9cc12096cb340017b7321f,676192165fb32c2e1fb7aee6,67d182096d51b2815d946171,2025-03-12_13h46.11.433,Tarea de decisión léxica,2024.2.5,Win32,143.6781609,,,,,,,,,,,,,,,,,,,,,,,297.85,298.838,l,1,0.326,,0.326,1,298.838,299.338,,,,,,75,MAS,WORD,AGR,150,olor,,el,,299.338,299.338,-0.175,-0.289583333,0,0,0,,0,150,150,74,1,ocer,,,,
,,,,,,5c9cc12096cb340017b7321f,676192165fb32c2e1fb7aee6,67d182096d51b2815d946171,2025-03-12_13h46.11.433,Tarea de decisión léxica,2024.2.5,Win32,143.6781609,,,,,,,,,,,,,,,,,,,,,,,299.339,300.284,l,1,0.286,,0.286,1,300.284,300.784,,,,,,365,FEM,WORD,DIS,150,ducha,,el,,300.784,300.785,-0.175,-0.289583333,0,0,0,,0,151,151,364,1,gulla,,,,
,,,,,,5c9cc12096cb340017b7321f,676192165fb32c2e1fb7aee6,67d182096d51b2815d946171,2025-03-12_13h46.11.433,Tarea de decisión léxica,2024.2.5,Win32,143.6781609,,,,,,,,,,,,,,,,,,,,,,,300.785,301.703,l,1,0.258,,0.258,1,301.703,302.203,,,,,,91,FEM,WORD,AGR,150,taza,,la,,302.203,302.204,-0.175,-0.289583333,0,0,0,,0,152,152,90,1,sava,,,,
,,,,,,5c9cc12096cb340017b7321f,676192165fb32c2e1fb7aee6,67d182096d51b2815d946171,2025-03-12_13h46.11.433,Tarea de decisión léxica,2024.2.5,Win32,143.6781609,,,,,,,,,,,,,,,,,,,,,,,302.205,303.142,l,1,0.278,,0.278,1,303.142,303.643,,,,,,337,MAS,WORD,DIS,150,huevo,,la,,303.643,303.643,-0.175,-0.289583333,0,0,0,,0,153,153,336,1,nuejo,,,,
,,,,,,5c9cc12096cb340017b7321f,676192165fb32c2e1fb7aee6,67d182096d51b2815d946171,2025-03-12_13h46.11.433,Tarea de decisión léxica,2024.2.5,Win32,143.6781609,,,,,,,,,,,,,,,,,,,,,,,303.643,304.532,l,1,0.232,,0.232,1,304.532,305.033,,,,,,147,FEM,WORD,AGR,150,hoja,,la,,305.033,305.033,-0.175,-0.289583333,0,0,0,,0,154,154,146,1,pama,,,,
,,,,,,5c9cc12096cb340017b7321f,676192165fb32c2e1fb7aee6,67d182096d51b2815d946171,2025-03-12_13h46.11.433,Tarea de decisión léxica,2024.2.5,Win32,143.6781609,,,,,,,,,,,,,,,,,,,,,,,305.033,306.062,a,1,0.367,,0.367,1,306.062,306.562,,,,,,134,FEM,NOWORD,DIS,150,vesa,,el,,306.563,306.564,-0.175,-0.289583333,0,0,0,,0,155,155,133,1,vaca,,,,
,,,,,,5c9cc12096cb340017b7321f,676192165fb32c2e1fb7aee6,67d182096d51b2815d946171,2025-03-12_13h46.11.433,Tarea de decisión léxica,2024.2.5,Win32,143.6781609,,,,,,,,,,,,,,,,,,,,,,,306.564,307.55,a,0,0.327,,0.327,0,307.551,308.05,,,,,,397,FEM,WORD,DIS,150,tribu,,el,,308.05,308.05,-0.175,-0.289583333,0,0,0,,0,156,156,396,1,trigi,,,,
,,,,,,5c9cc12096cb340017b7321f,676192165fb32c2e1fb7aee6,67d182096d51b2815d946171,2025-03-12_13h46.11.433,Tarea de decisión léxica,2024.2.5,Win32,143.6781609,,,,,,,,,,,,,,,,,,,,,,,308.051,309.01,l,1,0.302,,0.302,1,309.01,309.518,,,,,,437,FEM,WORD,DIS,150,plaza,,el,,309.518,309.518,-0.175,-0.289583333,0,0,0,,0,157,157,436,1,glava,,,,
,,,,,,5c9cc12096cb340017b7321f,676192165fb32c2e1fb7aee6,67d182096d51b2815d946171,2025-03-12_13h46.11.433,Tarea de decisión léxica,2024.2.5,Win32,143.6781609,,,,,,,,,,,,,,,,,,,,,,,309.518,310.415,l,1,0.237,,0.237,1,310.415,310.916,,,,,,283,MAS,WORD,AGR,150,sueño,,el,,310.916,310.916,-0.175,-0.289583333,0,0,0,,0,158,158,282,1,tuevo,,,,
,,,,,,5c9cc12096cb340017b7321f,676192165fb32c2e1fb7aee6,67d182096d51b2815d946171,2025-03-12_13h46.11.433,Tarea de decisión léxica,2024.2.5,Win32,143.6781609,,,,,,,,,,,,,,,,,,,,,,,310.916,311.986,l,0,0.413,,0.413,0,311.987,312.487,,,,,,106,FEM,NOWORD,DIS,150,vina,,el,,312.487,312.487,-0.175,-0.289583333,0,0,0,,0,159,159,105,1,sopa,,,,
,,,,,,5c9cc12096cb340017b7321f,676192165fb32c2e1fb7aee6,67d182096d51b2815d946171,2025-03-12_13h46.11.433,Tarea de decisión léxica,2024.2.5,Win32,143.6781609,,,,,,,,,,,,,,,,,,,,,,,312.487,313.502,l,1,0.357,,0.357,1,313.503,314.002,,,,,,405,FEM,WORD,DIS,150,barra,,el,,314.003,365.506,-0.175,-0.289583333,0,0,0,space,0,160,160,404,1,rarra,51.474,,,
,,,,,,5c9cc12096cb340017b7321f,676192165fb32c2e1fb7aee6,67d182096d51b2815d946171,2025-03-12_13h46.11.433,Tarea de decisión léxica,2024.2.5,Win32,143.6781609,,,,,,,,,,,,,,,,,,,,,,,365.508,366.493,l,1,0.327,,0.327,1,366.494,366.994,,,,,,33,FEM,WORD,DIS,150,boca,,el,,366.994,366.994,-0.175,-0.289583333,0,0,0,,0,161,161,32,1,loda,,,,
,,,,,,5c9cc12096cb340017b7321f,676192165fb32c2e1fb7aee6,67d182096d51b2815d946171,2025-03-12_13h46.11.433,Tarea de decisión léxica,2024.2.5,Win32,143.6781609,,,,,,,,,,,,,,,,,,,,,,,366.995,368.023,a,1,0.37,,0.37,1,368.024,368.524,,,,,,476,FEM,NOWORD,AGR,150,mucta,,la,,368.524,368.524,-0.175,-0.289583333,0,0,0,,0,162,162,475,1,manta,,,,
,,,,,,5c9cc12096cb340017b7321f,676192165fb32c2e1fb7aee6,67d182096d51b2815d946171,2025-03-12_13h46.11.433,Tarea de decisión léxica,2024.2.5,Win32,143.6781609,,,,,,,,,,,,,,,,,,,,,,,368.525,369.56,a,1,0.376,,0.376,1,369.56,370.061,,,,,,290,FEM,NOWORD,DIS,150,bumpa,,el,,370.061,370.061,-0.175,-0.289583333,0,0,0,,0,163,163,289,1,bomba,,,,
,,,,,,5c9cc12096cb340017b7321f,676192165fb32c2e1fb7aee6,67d182096d51b2815d946171,2025-03-12_13h46.11.433,Tarea de decisión léxica,2024.2.5,Win32,143.6781609,,,,,,,,,,,,,,,,,,,,,,,370.061,371.215,l,0,0.497,,0.497,0,371.215,371.716,,,,,,20,MAS,NOWORD,AGR,150,himo,,el,,371.716,371.716,-0.175,-0.289583333,0,0,0,,0,164,164,19,1,niño,,,,
,,,,,,5c9cc12096cb340017b7321f,676192165fb32c2e1fb7aee6,67d182096d51b2815d946171,2025-03-12_13h46.11.433,Tarea de decisión léxica,2024.2.5,Win32,143.6781609,,,,,,,,,,,,,,,,,,,,,,,371.716,372.814,a,1,0.441,,0.441,1,372.815,373.315,,,,,,458,MAS,NOWORD,DIS,150,glaco,,la,,373.315,373.316,-0.175,-0.289583333,0,0,0,,0,165,165,457,1,plato,,,,
,,,,,,5c9cc12096cb340017b7321f,676192165fb32c2e1fb7aee6,67d182096d51b2815d946171,2025-03-12_13h46.11.433,Tarea de decisión léxica,2024.2.5,Win32,143.6781609,,,,,,,,,,,,,,,,,,,,,,,373.317,374.399,a,1,0.424,,0.424,1,374.399,374.9,,,,,,136,MAS,NOWORD,AGR,150,geso,,el,,374.9,374.9,-0.175,-0.289583333,0,0,0,,0,166,166,135,1,tubo,,,,
,,,,,,5c9cc12096cb340017b7321f,676192165fb32c2e1fb7aee6,67d182096d51b2815d946171,2025-03-12_13h46.11.433,Tarea de decisión léxica,2024.2.5,Win32,143.6781609,,,,,,,,,,,,,,,,,,,,,,,374.9,375.943,l,1,0.386,,0.386,1,375.943,376.444,,,,,,261,MAS,WORD,DIS,150,sitio,,la,,376.444,376.444,-0.175,-0.289583333,0,0,0,,0,167,167,260,1,titio,,,,
,,,,,,5c9cc12096cb340017b7321f,676192165fb32c2e1fb7aee6,67d182096d51b2815d946171,2025-03-12_13h46.11.433,Tarea de decisión léxica,2024.2.5,Win32,143.6781609,,,,,,,,,,,,,,,,,,,,,,,376.445,377.466,a,1,0.362,,0.362,1,377.466,377.966,,,,,,294,MAS,NOWORD,DIS,150,cacso,,la,,377.966,377.966,-0.175,-0.289583333,0,0,0,,0,168,168,293,1,campo,,,,
,,,,,,5c9cc12096cb340017b7321f,676192165fb32c2e1fb7aee6,67d182096d51b2815d946171,2025-03-12_13h46.11.433,Tarea de decisión léxica,2024.2.5,Win32,143.6781609,,,,,,,,,,,,,,,,,,,,,,,377.966,379.037,a,1,0.411,,0.411,1,379.037,379.538,,,,,,366,FEM,NOWORD,DIS,150,gulla,,el,,379.538,379.538,-0.175,-0.289583333,0,0,0,,0,169,169,365,1,ducha,,,,
,,,,,,5c9cc12096cb340017b7321f,676192165fb32c2e1fb7aee6,67d182096d51b2815d946171,2025-03-12_13h46.11.433,Tarea de decisión léxica,2024.2.5,Win32,143.6781609,,,,,,,,,,,,,,,,,,,,,,,379.538,380.553,a,1,0.358,,0.358,1,380.553,381.053,,,,,,364,FEM,NOWORD,AGR,150,veida,,la,,381.054,381.054,-0.175,-0.289583333,0,0,0,,0,170,170,363,1,deuda,,,,
,,,,,,5c9cc12096cb340017b7321f,676192165fb32c2e1fb7aee6,67d182096d51b2815d946171,2025-03-12_13h46.11.433,Tarea de decisión léxica,2024.2.5,Win32,143.6781609,,,,,,,,,,,,,,,,,,,,,,,381.055,382.014,l,1,0.3,,0.3,1,382.014,382.514,,,,,,345,FEM,WORD,DIS,150,arena,,el,,382.514,382.514,-0.175,-0.289583333,0,0,0,,0,171,171,344,1,anera,,,,
,,,,,,5c9cc12096cb340017b7321f,676192165fb32c2e1fb7aee6,67d182096d51b2815d946171,2025-03-12_13h46.11.433,Tarea de decisión léxica,2024.2.5,Win32,143.6781609,,,,,,,,,,,,,,,,,,,,,,,382.514,383.474,l,1,0.301,,0.301,1,383.474,383.975,,,,,,211,FEM,WORD,AGR,150,joya,,la,,383.975,383.975,-0.175,-0.289583333,0,0,0,,0,172,172,210,1,joad,,,,
,,,,,,5c9cc12096cb340017b7321f,676192165fb32c2e1fb7aee6,67d182096d51b2815d946171,2025-03-12_13h46.11.433,Tarea de decisión léxica,2024.2.5,Win32,143.6781609,,,,,,,,,,,,,,,,,,,,,,,383.975,384.934,a,1,0.3,,0.3,1,384.934,385.434,,,,,,266,FEM,NOWORD,DIS,150,pitat,,el,,385.434,385.434,-0.175,-0.289583333,0,0,0,,0,173,173,265,1,mitad,,,,
,,,,,,5c9cc12096cb340017b7321f,676192165fb32c2e1fb7aee6,67d182096d51b2815d946171,2025-03-12_13h46.11.433,Tarea de decisión léxica,2024.2.5,Win32,143.6781609,,,,,,,,,,,,,,,,,,,,,,,385.435,386.485,a,1,0.392,,0.392,1,386.485,386.985,,,,,,80,FEM,NOWORD,AGR,150,ciel,,la,,386.985,386.985,-0.175,-0.289583333,0,0,0,,0,174,174,79,1,piel,,,,
,,,,,,5c9cc12096cb340017b7321f,676192165fb32c2e1fb7aee6,67d182096d51b2815d946171,2025-03-12_13h46.11.433,Tarea de decisión léxica,2024.2.5,Win32,143.6781609,,,,,,,,,,,,,,,,,,,,,,,386.986,388.105,l,1,0.462,,0.462,1,388.105,388.605,,,,,,219,FEM,WORD,AGR,150,pipa,,la,,388.606,388.607,-0.175,-0.289583333,0,0,0,,0,175,175,218,1,miva,,,,
,,,,,,5c9cc12096cb340017b7321f,676192165fb32c2e1fb7aee6,67d182096d51b2815d946171,2025-03-12_13h46.11.433,Tarea de decisión léxica,2024.2.5,Win32,143.6781609,,,,,,,,,,,,,,,,,,,,,,,388.607,389.613,a,1,0.348,,0.348,1,389.613,390.113,,,,,,264,FEM,NOWORD,AGR,150,dosta,,la,,390.113,390.113,-0.175,-0.289583333,0,0,0,,0,176,176,263,1,vista,,,,
,,,,,,5c9cc12096cb340017b7321f,676192165fb32c2e1fb7aee6,67d182096d51b2815d946171,2025-03-12_13h46.11.433,Tarea de decisión léxica,2024.2.5,Win32,143.6781609,,,,,,,,,,,,,,,,,,,,,,,390.114,391.115,a,1,0.341,,0.341,1,391.115,391.616,,,,,,400,MAS,NOWORD,AGR,150,serro,,el,,391.616,391.616,-0.175,-0.289583333,0,0,0,,0,177,177,399,1,techo,,,,
,,,,,,5c9cc12096cb340017b7321f,676192165fb32c2e1fb7aee6,67d182096d51b2815d946171,2025-03-12_13h46.11.433,Tarea de decisión léxica,2024.2.5,Win32,143.6781609,,,,,,,,,,,,,,,,,,,,,,,391.616,392.569,l,1,0.295,,0.295,1,392.569,393.069,,,,,,463,FEM,WORD,AGR,150,cabra,,la,,393.069,393.069,-0.175,-0.289583333,0,0,0,,0,178,178,462,1,matla,,,,
,,,,,,5c9cc12096cb340017b7321f,676192165fb32c2e1fb7aee6,67d182096d51b2815d946171,2025-03-12_13h46.11.433,Tarea de decisión léxica,2024.2.5,Win32,143.6781609,,,,,,,,,,,,,,,,,,,,,,,393.07,394.07,l,1,0.344,,0.344,1,394.07,394.565,,,,,,247,FEM,WORD,AGR,150,chica,,la,,394.565,394.566,-0.175,-0.289583333,0,0,0,,0,179,179,246,1,trida,,,,
,,,,,,5c9cc12096cb340017b7321f,676192165fb32c2e1fb7aee6,67d182096d51b2815d946171,2025-03-12_13h46.11.433,Tarea de decisión léxica,2024.2.5,Win32,143.6781609,,,,,,,,,,,,,,,,,,,,,,,394.566,395.683,a,1,0.461,,0.461,1,395.684,396.184,,,,,,440,FEM,NOWORD,AGR,150,prema,,la,,396.184,396.184,-0.175,-0.289583333,0,0,0,,0,180,180,439,1,presa,,,,
,,,,,,5c9cc12096cb340017b7321f,676192165fb32c2e1fb7aee6,67d182096d51b2815d946171,2025-03-12_13h46.11.433,Tarea de decisión léxica,2024.2.5,Win32,143.6781609,,,,,,,,,,,,,,,,,,,,,,,396.185,397.234,a,1,0.39,,0.39,1,397.234,397.735,,,,,,288,FEM,NOWORD,AGR,150,fosta,,la,,397.735,397.735,-0.175,-0.289583333,0,0,0,,0,181,181,287,1,lista,,,,
,,,,,,5c9cc12096cb340017b7321f,676192165fb32c2e1fb7aee6,67d182096d51b2815d946171,2025-03-12_13h46.11.433,Tarea de decisión léxica,2024.2.5,Win32,143.6781609,,,,,,,,,,,,,,,,,,,,,,,397.735,399.126,a,1,0.731,,0.731,1,399.126,399.626,,,,,,304,MAS,NOWORD,AGR,150,lanco,,el,,399.626,399.626,-0.175,-0.289583333,0,0,0,,0,182,182,303,1,barco,,,,
,,,,,,5c9cc12096cb340017b7321f,676192165fb32c2e1fb7aee6,67d182096d51b2815d946171,2025-03-12_13h46.11.433,Tarea de decisión léxica,2024.2.5,Win32,143.6781609,,,,,,,,,,,,,,,,,,,,,,,399.626,400.656,l,0,0.372,,0.372,0,400.657,401.156,,,,,,336,FEM,NOWORD,AGR,150,pesta,,la,,401.157,401.157,-0.175,-0.289583333,0,0,0,,0,183,183,335,1,costa,,,,
,,,,,,5c9cc12096cb340017b7321f,676192165fb32c2e1fb7aee6,67d182096d51b2815d946171,2025-03-12_13h46.11.433,Tarea de decisión léxica,2024.2.5,Win32,143.6781609,,,,,,,,,,,,,,,,,,,,,,,401.157,402.289,a,1,0.475,,0.475,1,402.29,402.79,,,,,,472,FEM,NOWORD,AGR,150,prana,,la,,402.79,402.791,-0.175,-0.289583333,0,0,0,,0,184,184,471,1,grasa,,,,
,,,,,,5c9cc12096cb340017b7321f,676192165fb32c2e1fb7aee6,67d182096d51b2815d946171,2025-03-12_13h46.11.433,Tarea de decisión léxica,2024.2.5,Win32,143.6781609,,,,,,,,,,,,,,,,,,,,,,,402.791,403.93,l,1,0.478,,0.478,1,403.93,404.431,,,,,,31,FEM,WORD,AGR,150,ropa,,la,,404.431,404.431,-0.175,-0.289583333,0,0,0,,0,185,185,30,1,bova,,,,
,,,,,,5c9cc12096cb340017b7321f,676192165fb32c2e1fb7aee6,67d182096d51b2815d946171,2025-03-12_13h46.11.433,Tarea de decisión léxica,2024.2.5,Win32,143.6781609,,,,,,,,,,,,,,,,,,,,,,,404.432,405.46,l,1,0.371,,0.371,1,405.46,405.961,,,,,,333,FEM,WORD,DIS,150,tarea,,el,,405.961,405.961,-0.175,-0.289583333,0,0,0,,0,186,186,332,1,dalea,,,,
,,,,,,5c9cc12096cb340017b7321f,676192165fb32c2e1fb7aee6,67d182096d51b2815d946171,2025-03-12_13h46.11.433,Tarea de decisión léxica,2024.2.5,Win32,143.6781609,,,,,,,,,,,,,,,,,,,,,,,405.962,406.92,l,1,0.299,,0.299,1,406.92,407.421,,,,,,459,MAS,WORD,AGR,150,grado,,el,,407.421,407.421,-0.175,-0.289583333,0,0,0,,0,187,187,458,1,fraco,,,,
,,,,,,5c9cc12096cb340017b7321f,676192165fb32c2e1fb7aee6,67d182096d51b2815d946171,2025-03-12_13h46.11.433,Tarea de decisión léxica,2024.2.5,Win32,143.6781609,,,,,,,,,,,,,,,,,,,,,,,407.422,408.575,l,1,0.494,,0.494,1,408.575,409.076,,,,,,43,FEM,WORD,AGR,150,pena,,la,,409.076,409.076,-0.175,-0.289583333,0,0,0,,0,188,188,42,1,meda,,,,
,,,,,,5c9cc12096cb340017b7321f,676192165fb32c2e1fb7aee6,67d182096d51b2815d946171,2025-03-12_13h46.11.433,Tarea de decisión léxica,2024.2.5,Win32,143.6781609,,,,,,,,,,,,,,,,,,,,,,,409.077,410.188,a,1,0.452,,0.452,1,410.189,410.683,,,,,,44,FEM,NOWORD,AGR,150,meda,,la,,410.683,410.683,-0.175,-0.289583333,0,0,0,,0,189,189,43,1,pena,,,,
,,,,,,5c9cc12096cb340017b7321f,676192165fb32c2e1fb7aee6,67d182096d51b2815d946171,2025-03-12_13h46.11.433,Tarea de decisión léxica,2024.2.5,Win32,143.6781609,,,,,,,,,,,,,,,,,,,,,,,410.684,411.732,a,1,0.391,,0.391,1,411.732,412.233,,,,,,4,FEM,NOWORD,AGR,150,dica,,la,,412.233,412.233,-0.175,-0.289583333,0,0,0,,0,190,190,3,1,vida,,,,
,,,,,,5c9cc12096cb340017b7321f,676192165fb32c2e1fb7aee6,67d182096d51b2815d946171,2025-03-12_13h46.11.433,Tarea de decisión léxica,2024.2.5,Win32,143.6781609,,,,,,,,,,,,,,,,,,,,,,,412.233,413.282,a,1,0.39,,0.39,1,413.282,413.777,,,,,,454,FEM,NOWORD,DIS,150,pafia,,el,,413.777,413.777,-0.175,-0.289583333,0,0,0,,0,191,191,453,1,mafia,,,,
,,,,,,5c9cc12096cb340017b7321f,676192165fb32c2e1fb7aee6,67d182096d51b2815d946171,2025-03-12_13h46.11.433,Tarea de decisión léxica,2024.2.5,Win32,143.6781609,,,,,,,,,,,,,,,,,,,,,,,413.777,414.888,a,1,0.454,,0.454,1,414.888,415.389,,,,,,432,MAS,NOWORD,AGR,150,tetor,,el,,415.389,415.389,-0.175,-0.289583333,0,0,0,,0,192,192,431,1,motor,,,,
,,,,,,5c9cc12096cb340017b7321f,676192165fb32c2e1fb7aee6,67d182096d51b2815d946171,2025-03-12_13h46.11.433,Tarea de decisión léxica,2024.2.5,Win32,143.6781609,,,,,,,,,,,,,,,,,,,,,,,415.39,416.432,a,1,0.384,,0.384,1,416.432,416.933,,,,,,232,FEM,NOWORD,AGR,150,heta,,la,,416.933,416.933,-0.175,-0.289583333,0,0,0,,0,193,193,231,1,bota,,,,
,,,,,,5c9cc12096cb340017b7321f,676192165fb32c2e1fb7aee6,67d182096d51b2815d946171,2025-03-12_13h46.11.433,Tarea de decisión léxica,2024.2.5,Win32,143.6781609,,,,,,,,,,,,,,,,,,,,,,,416.933,417.852,a,1,0.262,,0.262,1,417.852,418.351,,,,,,150,MAS,NOWORD,DIS,150,pafo,,la,,418.352,418.352,-0.175,-0.289583333,0,0,0,,0,194,194,149,1,cabo,,,,
,,,,,,5c9cc12096cb340017b7321f,676192165fb32c2e1fb7aee6,67d182096d51b2815d946171,2025-03-12_13h46.11.433,Tarea de decisión léxica,2024.2.5,Win32,143.6781609,,,,,,,,,,,,,,,,,,,,,,,418.352,419.311,l,1,0.3,,0.3,1,419.311,419.812,,,,,,229,MAS,WORD,DIS,150,amor,,la,,419.812,419.812,-0.175,-0.289583333,0,0,0,,0,195,195,228,1,ador,,,,
,,,,,,5c9cc12096cb340017b7321f,676192165fb32c2e1fb7aee6,67d182096d51b2815d946171,2025-03-12_13h46.11.433,Tarea de decisión léxica,2024.2.5,Win32,143.6781609,,,,,,,,,,,,,,,,,,,,,,,419.812,420.764,a,1,0.292,,0.292,1,420.764,421.265,,,,,,350,MAS,NOWORD,DIS,150,cosir,,la,,421.265,421.265,-0.175,-0.289583333,0,0,0,,0,196,196,349,1,color,,,,
,,,,,,5c9cc12096cb340017b7321f,676192165fb32c2e1fb7aee6,67d182096d51b2815d946171,2025-03-12_13h46.11.433,Tarea de decisión léxica,2024.2.5,Win32,143.6781609,,,,,,,,,,,,,,,,,,,,,,,421.266,422.294,a,0,0.368,,0.368,0,422.294,422.795,,,,,,473,FEM,WORD,DIS,150,feria,,el,,422.795,422.795,-0.175,-0.289583333,0,0,0,,0,197,197,472,1,felia,,,,
,,,,,,5c9cc12096cb340017b7321f,676192165fb32c2e1fb7aee6,67d182096d51b2815d946171,2025-03-12_13h46.11.433,Tarea de decisión léxica,2024.2.5,Win32,143.6781609,,,,,,,,,,,,,,,,,,,,,,,422.795,423.755,l,1,0.303,,0.303,1,423.755,424.255,,,,,,461,FEM,WORD,DIS,150,tabla,,el,,424.255,424.255,-0.175,-0.289583333,0,0,0,,0,198,198,460,1,pagra,,,,
,,,,,,5c9cc12096cb340017b7321f,676192165fb32c2e1fb7aee6,67d182096d51b2815d946171,2025-03-12_13h46.11.433,Tarea de decisión léxica,2024.2.5,Win32,143.6781609,,,,,,,,,,,,,,,,,,,,,,,424.255,425.311,a,1,0.399,,0.399,1,425.312,425.812,,,,,,26,FEM,NOWORD,DIS,150,paza,,el,,425.813,425.814,-0.175,-0.289583333,0,0,0,,0,199,199,25,1,cama,,,,
,,,,,,5c9cc12096cb340017b7321f,676192165fb32c2e1fb7aee6,67d182096d51b2815d946171,2025-03-12_13h46.11.433,Tarea de decisión léxica,2024.2.5,Win32,143.6781609,,,,,,,,,,,,,,,,,,,,,,,425.814,426.814,l,1,0.341,,0.341,1,426.814,427.314,,,,,,273,FEM,WORD,DIS,150,broma,,el,,427.314,427.314,-0.175,-0.289583333,0,0,0,,0,200,200,272,1,frosa,,,,
,,,,,,5c9cc12096cb340017b7321f,676192165fb32c2e1fb7aee6,67d182096d51b2815d946171,2025-03-12_13h46.11.433,Tarea de decisión léxica,2024.2.5,Win32,143.6781609,,,,,,,,,,,,,,,,,,,,,,,427.315,428.385,a,1,0.412,,0.412,1,428.385,428.886,,,,,,216,FEM,NOWORD,AGR,150,raua,,la,,428.886,428.886,-0.175,-0.289583333,0,0,0,,0,201,201,215,1,raíz,,,,
,,,,,,5c9cc12096cb340017b7321f,676192165fb32c2e1fb7aee6,67d182096d51b2815d946171,2025-03-12_13h46.11.433,Tarea de decisión léxica,2024.2.5,Win32,143.6781609,,,,,,,,,,,,,,,,,,,,,,,428.886,429.929,a,1,0.386,,0.386,1,429.929,430.43,,,,,,146,MAS,NOWORD,DIS,150,nobo,,la,,430.43,430.43,-0.175,-0.289583333,0,0,0,,0,202,202,145,1,león,,,,
,,,,,,5c9cc12096cb340017b7321f,676192165fb32c2e1fb7aee6,67d182096d51b2815d946171,2025-03-12_13h46.11.433,Tarea de decisión léxica,2024.2.5,Win32,143.6781609,,,,,,,,,,,,,,,,,,,,,,,430.43,431.501,l,1,0.404,,0.404,1,431.501,432.001,,,,,,39,MAS,WORD,AGR,150,voto,,el,,432.001,432.002,-0.175,-0.289583333,0,0,0,,0,203,203,38,1,redo,,,,
,,,,,,5c9cc12096cb340017b7321f,676192165fb32c2e1fb7aee6,67d182096d51b2815d946171,2025-03-12_13h46.11.433,Tarea de decisión léxica,2024.2.5,Win32,143.6781609,,,,,,,,,,,,,,,,,,,,,,,432.002,432.982,l,1,0.323,,0.323,1,432.982,433.482,,,,,,243,MAS,WORD,AGR,150,amigo,,el,,433.482,433.482,-0.175,-0.289583333,0,0,0,,0,204,204,242,1,asamo,,,,
,,,,,,5c9cc12096cb340017b7321f,676192165fb32c2e1fb7aee6,67d182096d51b2815d946171,2025-03-12_13h46.11.433,Tarea de decisión léxica,2024.2.5,Win32,143.6781609,,,,,,,,,,,,,,,,,,,,,,,433.483,434.497,a,0,0.357,,0.357,0,434.498,434.998,,,,,,149,MAS,WORD,DIS,150,cabo,,la,,434.998,434.998,-0.175,-0.289583333,0,0,0,,0,205,205,148,1,pafo,,,,
,,,,,,5c9cc12096cb340017b7321f,676192165fb32c2e1fb7aee6,67d182096d51b2815d946171,2025-03-12_13h46.11.433,Tarea de decisión léxica,2024.2.5,Win32,143.6781609,,,,,,,,,,,,,,,,,,,,,,,435,436.082,a,1,0.426,,0.426,1,436.082,436.583,,,,,,28,MAS,NOWORD,AGR,150,ravo,,el,,436.583,436.583,-0.175,-0.289583333,0,0,0,,0,206,206,27,1,baño,,,,
,,,,,,5c9cc12096cb340017b7321f,676192165fb32c2e1fb7aee6,67d182096d51b2815d946171,2025-03-12_13h46.11.433,Tarea de decisión léxica,2024.2.5,Win32,143.6781609,,,,,,,,,,,,,,,,,,,,,,,436.584,437.766,a,1,0.523,,0.523,1,437.766,438.266,,,,,,386,FEM,NOWORD,DIS,150,febra,,el,,438.266,438.266,-0.175,-0.289583333,0,0,0,,0,207,207,385,1,letra,,,,
,,,,,,5c9cc12096cb340017b7321f,676192165fb32c2e1fb7aee6,67d182096d51b2815d946171,2025-03-12_13h46.11.433,Tarea de decisión léxica,2024.2.5,Win32,143.6781609,,,,,,,,,,,,,,,,,,,,,,,438.266,439.26,l,1,0.338,,0.338,1,439.26,439.76,,,,,,171,MAS,WORD,AGR,150,hilo,,el,,439.761,439.761,-0.175,-0.289583333,0,0,0,,0,208,208,170,1,niro,,,,
,,,,,,5c9cc12096cb340017b7321f,676192165fb32c2e1fb7aee6,67d182096d51b2815d946171,2025-03-12_13h46.11.433,Tarea de decisión léxica,2024.2.5,Win32,143.6781609,,,,,,,,,,,,,,,,,,,,,,,439.762,440.693,l,1,0.272,,0.272,1,440.693,441.193,,,,,,259,MAS,WORD,AGR,150,juego,,el,,441.193,441.193,-0.175,-0.289583333,0,0,0,,0,209,209,258,1,jaumo,,,,
,,,,,,5c9cc12096cb340017b7321f,676192165fb32c2e1fb7aee6,67d182096d51b2815d946171,2025-03-12_13h46.11.433,Tarea de decisión léxica,2024.2.5,Win32,143.6781609,,,,,,,,,,,,,,,,,,,,,,,441.193,442.097,l,1,0.243,,0.243,1,442.097,442.598,,,,,,115,FEM,WORD,AGR,150,pata,,la,,442.598,442.598,-0.175,-0.289583333,0,0,0,,0,210,210,114,1,haca,,,,
,,,,,,5c9cc12096cb340017b7321f,676192165fb32c2e1fb7aee6,67d182096d51b2815d946171,2025-03-12_13h46.11.433,Tarea de decisión léxica,2024.2.5,Win32,143.6781609,,,,,,,,,,,,,,,,,,,,,,,442.599,443.571,l,1,0.317,,0.317,1,443.571,444.072,,,,,,55,MAS,WORD,AGR,150,gato,,el,,444.072,444.072,-0.175,-0.289583333,0,0,0,,0,211,211,54,1,jado,,,,
,,,,,,5c9cc12096cb340017b7321f,676192165fb32c2e1fb7aee6,67d182096d51b2815d946171,2025-03-12_13h46.11.433,Tarea de decisión léxica,2024.2.5,Win32,143.6781609,,,,,,,,,,,,,,,,,,,,,,,444.073,445.261,a,1,0.532,,0.532,1,445.261,445.761,,,,,,324,FEM,NOWORD,AGR,150,certa,,la,,445.761,445.761,-0.175,-0.289583333,0,0,0,,0,212,212,323,1,cinta,,,,
,,,,,,5c9cc12096cb340017b7321f,676192165fb32c2e1fb7aee6,67d182096d51b2815d946171,2025-03-12_13h46.11.433,Tarea de decisión léxica,2024.2.5,Win32,143.6781609,,,,,,,,,,,,,,,,,,,,,,,445.762,446.77,l,1,0.351,,0.351,1,446.77,447.27,,,,,,83,FEM,WORD,AGR,150,bala,,la,,447.27,447.271,-0.175,-0.289583333,0,0,0,,0,213,213,82,1,taga,,,,
,,,,,,5c9cc12096cb340017b7321f,676192165fb32c2e1fb7aee6,67d182096d51b2815d946171,2025-03-12_13h46.11.433,Tarea de decisión léxica,2024.2.5,Win32,143.6781609,,,,,,,,,,,,,,,,,,,,,,,447.271,448.446,a,1,0.514,,0.514,1,448.446,448.946,,,,,,368,MAS,NOWORD,AGR,150,rerob,,el,,448.946,448.946,-0.175,-0.289583333,0,0,0,,0,214,214,367,1,reloj,,,,
,,,,,,5c9cc12096cb340017b7321f,676192165fb32c2e1fb7aee6,67d182096d51b2815d946171,2025-03-12_13h46.11.433,Tarea de decisión léxica,2024.2.5,Win32,143.6781609,,,,,,,,,,,,,,,,,,,,,,,448.947,449.941,l,1,0.338,,0.338,1,449.941,450.441,,,,,,341,MAS,WORD,DIS,150,valor,,la,,450.441,450.441,-0.175,-0.289583333,0,0,0,,0,215,215,340,1,daror,,,,
,,,,,,5c9cc12096cb340017b7321f,676192165fb32c2e1fb7aee6,67d182096d51b2815d946171,2025-03-12_13h46.11.433,Tarea de decisión léxica,2024.2.5,Win32,143.6781609,,,,,,,,,,,,,,,,,,,,,,,450.441,451.519,a,1,0.418,,0.418,1,451.519,452.02,,,,,,322,MAS,NOWORD,DIS,150,rarco,,la,,452.02,452.02,-0.175,-0.289583333,0,0,0,,0,216,216,321,1,banco,,,,
,,,,,,5c9cc12096cb340017b7321f,676192165fb32c2e1fb7aee6,67d182096d51b2815d946171,2025-03-12_13h46.11.433,Tarea de decisión léxica,2024.2.5,Win32,143.6781609,,,,,,,,,,,,,,,,,,,,,,,452.02,452.965,l,1,0.289,,0.289,1,452.965,453.466,,,,,,455,MAS,WORD,AGR,150,reino,,el,,453.466,453.466,-0.175,-0.289583333,0,0,0,,0,217,217,454,1,riaso,,,,
,,,,,,5c9cc12096cb340017b7321f,676192165fb32c2e1fb7aee6,67d182096d51b2815d946171,2025-03-12_13h46.11.433,Tarea de decisión léxica,2024.2.5,Win32,143.6781609,,,,,,,,,,,,,,,,,,,,,,,453.467,454.509,l,1,0.382,,0.382,1,454.509,455.01,,,,,,287,FEM,WORD,AGR,150,lista,,la,,455.01,455.01,-0.175,-0.289583333,0,0,0,,0,218,218,286,1,fosta,,,,
,,,,,,5c9cc12096cb340017b7321f,676192165fb32c2e1fb7aee6,67d182096d51b2815d946171,2025-03-12_13h46.11.433,Tarea de decisión léxica,2024.2.5,Win32,143.6781609,,,,,,,,,,,,,,,,,,,,,,,455.011,455.997,l,1,0.327,,0.327,1,455.997,456.497,,,,,,165,FEM,WORD,DIS,150,vela,,el,,456.497,456.497,-0.175,-0.289583333,0,0,0,,0,219,219,164,1,dera,,,,
,,,,,,5c9cc12096cb340017b7321f,676192165fb32c2e1fb7aee6,67d182096d51b2815d946171,2025-03-12_13h46.11.433,Tarea de decisión léxica,2024.2.5,Win32,143.6781609,,,,,,,,,,,,,,,,,,,,,,,456.498,457.644,a,1,0.488,,0.488,1,457.644,458.145,,,,,,462,FEM,NOWORD,DIS,150,pagra,,el,,458.145,458.146,-0.175,-0.289583333,0,0,0,,0,220,220,461,1,tabla,,,,
,,,,,,5c9cc12096cb340017b7321f,676192165fb32c2e1fb7aee6,67d182096d51b2815d946171,2025-03-12_13h46.11.433,Tarea de decisión léxica,2024.2.5,Win32,143.6781609,,,,,,,,,,,,,,,,,,,,,,,458.146,459.111,l,1,0.306,,0.306,1,459.111,459.612,,,,,,131,FEM,WORD,AGR,150,mina,,la,,459.612,459.612,-0.175,-0.289583333,0,0,0,,0,221,221,130,1,fada,,,,
,,,,,,5c9cc12096cb340017b7321f,676192165fb32c2e1fb7aee6,67d182096d51b2815d946171,2025-03-12_13h46.11.433,Tarea de decisión léxica,2024.2.5,Win32,143.6781609,,,,,,,,,,,,,,,,,,,,,,,459.613,460.746,a,1,0.472,,0.472,1,460.746,461.247,,,,,,416,FEM,NOWORD,AGR,150,juira,,la,,461.247,461.247,-0.175,-0.289583333,0,0,0,,0,222,222,415,1,jaula,,,,
,,,,,,5c9cc12096cb340017b7321f,676192165fb32c2e1fb7aee6,67d182096d51b2815d946171,2025-03-12_13h46.11.433,Tarea de decisión léxica,2024.2.5,Win32,143.6781609,,,,,,,,,,,,,,,,,,,,,,,461.247,462.324,a,1,0.418,,0.418,1,462.324,462.825,,,,,,224,FEM,NOWORD,AGR,150,cira,,la,,462.825,462.826,-0.175,-0.289583333,0,0,0,,0,223,223,223,1,cera,,,,
,,,,,,5c9cc12096cb340017b7321f,676192165fb32c2e1fb7aee6,67d182096d51b2815d946171,2025-03-12_13h46.11.433,Tarea de decisión léxica,2024.2.5,Win32,143.6781609,,,,,,,,,,,,,,,,,,,,,,,462.826,463.75,l,1,0.269,,0.269,1,463.751,464.251,,,,,,161,MAS,WORD,DIS,150,coro,,la,,464.251,464.251,-0.175,-0.289583333,0,0,0,,0,224,224,160,1,bopo,,,,
,,,,,,5c9cc12096cb340017b7321f,676192165fb32c2e1fb7aee6,67d182096d51b2815d946171,2025-03-12_13h46.11.433,Tarea de decisión léxica,2024.2.5,Win32,143.6781609,,,,,,,,,,,,,,,,,,,,,,,464.251,465.356,l,0,0.446,,0.446,0,465.356,465.857,,,,,,72,FEM,NOWORD,AGR,150,urla,,la,,465.857,465.857,-0.175,-0.289583333,0,0,0,,0,225,225,71,1,isla,,,,
,,,,,,5c9cc12096cb340017b7321f,676192165fb32c2e1fb7aee6,67d182096d51b2815d946171,2025-03-12_13h46.11.433,Tarea de decisión léxica,2024.2.5,Win32,143.6781609,,,,,,,,,,,,,,,,,,,,,,,465.857,467.171,l,1,0.654,,0.654,1,467.173,467.671,,,,,,309,FEM,WORD,DIS,150,silla,,el,,467.671,467.672,-0.175,-0.289583333,0,0,0,,0,226,226,308,1,tirra,,,,
,,,,,,5c9cc12096cb340017b7321f,676192165fb32c2e1fb7aee6,67d182096d51b2815d946171,2025-03-12_13h46.11.433,Tarea de decisión léxica,2024.2.5,Win32,143.6781609,,,,,,,,,,,,,,,,,,,,,,,467.673,468.854,a,1,0.521,,0.521,1,468.854,469.354,,,,,,202,FEM,NOWORD,DIS,150,cusa,,el,,469.355,469.355,-0.175,-0.289583333,0,0,0,,0,227,227,201,1,cuna,,,,
,,,,,,5c9cc12096cb340017b7321f,676192165fb32c2e1fb7aee6,67d182096d51b2815d946171,2025-03-12_13h46.11.433,Tarea de decisión léxica,2024.2.5,Win32,143.6781609,,,,,,,,,,,,,,,,,,,,,,,469.356,470.599,l,1,0.586,,0.586,1,470.599,471.1,,,,,,317,FEM,WORD,DIS,150,playa,,el,,471.1,471.1,-0.175,-0.289583333,0,0,0,,0,228,228,316,1,plaad,,,,
,,,,,,5c9cc12096cb340017b7321f,676192165fb32c2e1fb7aee6,67d182096d51b2815d946171,2025-03-12_13h46.11.433,Tarea de decisión léxica,2024.2.5,Win32,143.6781609,,,,,,,,,,,,,,,,,,,,,,,471.1,472.115,a,1,0.355,,0.355,1,472.115,472.615,,,,,,162,MAS,NOWORD,DIS,150,bopo,,la,,472.615,472.615,-0.175,-0.289583333,0,0,0,,0,229,229,161,1,coro,,,,
,,,,,,5c9cc12096cb340017b7321f,676192165fb32c2e1fb7aee6,67d182096d51b2815d946171,2025-03-12_13h46.11.433,Tarea de decisión léxica,2024.2.5,Win32,143.6781609,,,,,,,,,,,,,,,,,,,,,,,472.616,473.652,l,1,0.377,,0.377,1,473.652,474.152,,,,,,357,FEM,WORD,DIS,150,bruja,,el,,474.152,474.152,-0.175,-0.289583333,0,0,0,,0,230,230,356,1,gruba,,,,
,,,,,,5c9cc12096cb340017b7321f,676192165fb32c2e1fb7aee6,67d182096d51b2815d946171,2025-03-12_13h46.11.433,Tarea de decisión léxica,2024.2.5,Win32,143.6781609,,,,,,,,,,,,,,,,,,,,,,,474.153,475.175,a,1,0.362,,0.362,1,475.175,475.675,,,,,,456,MAS,NOWORD,AGR,150,riaso,,el,,475.675,475.675,-0.175,-0.289583333,0,0,0,,0,231,231,455,1,reino,,,,
,,,,,,5c9cc12096cb340017b7321f,676192165fb32c2e1fb7aee6,67d182096d51b2815d946171,2025-03-12_13h46.11.433,Tarea de decisión léxica,2024.2.5,Win32,143.6781609,,,,,,,,,,,,,,,,,,,,,,,475.676,476.676,l,1,0.341,,0.341,1,476.677,477.177,,,,,,445,MAS,WORD,DIS,150,actor,,la,,477.178,477.178,-0.175,-0.289583333,0,0,0,,0,232,232,444,1,ascor,,,,
,,,,,,5c9cc12096cb340017b7321f,676192165fb32c2e1fb7aee6,67d182096d51b2815d946171,2025-03-12_13h46.11.433,Tarea de decisión léxica,2024.2.5,Win32,143.6781609,,,,,,,,,,,,,,,,,,,,,,,477.178,478.178,a,1,0.341,,0.341,1,478.178,478.679,,,,,,142,FEM,NOWORD,DIS,150,sina,,el,,478.679,478.679,-0.175,-0.289583333,0,0,0,,0,233,233,141,1,cruz,,,,
,,,,,,5c9cc12096cb340017b7321f,676192165fb32c2e1fb7aee6,67d182096d51b2815d946171,2025-03-12_13h46.11.433,Tarea de decisión léxica,2024.2.5,Win32,143.6781609,,,,,,,,,,,,,,,,,,,,,,,478.68,479.673,l,1,0.337,,0.337,1,479.673,480.173,,,,,,411,MAS,WORD,AGR,150,pollo,,el,,480.173,480.173,-0.175,-0.289583333,0,0,0,,0,234,234,410,1,mobro,,,,
,,,,,,5c9cc12096cb340017b7321f,676192165fb32c2e1fb7aee6,67d182096d51b2815d946171,2025-03-12_13h46.11.433,Tarea de decisión léxica,2024.2.5,Win32,143.6781609,,,,,,,,,,,,,,,,,,,,,,,480.174,481.189,a,1,0.356,,0.356,1,481.189,481.689,,,,,,126,MAS,NOWORD,DIS,150,vudo,,la,,481.69,481.69,-0.175,-0.289583333,0,0,0,,0,235,235,125,1,lujo,,,,
,,,,,,5c9cc12096cb340017b7321f,676192165fb32c2e1fb7aee6,67d182096d51b2815d946171,2025-03-12_13h46.11.433,Tarea de decisión léxica,2024.2.5,Win32,143.6781609,,,,,,,,,,,,,,,,,,,,,,,481.69,482.642,l,1,0.293,,0.293,1,482.642,483.143,,,,,,381,MAS,WORD,DIS,150,humor,,la,,483.143,483.143,-0.175,-0.289583333,0,0,0,,0,236,236,380,1,nusor,,,,
,,,,,,5c9cc12096cb340017b7321f,676192165fb32c2e1fb7aee6,67d182096d51b2815d946171,2025-03-12_13h46.11.433,Tarea de decisión léxica,2024.2.5,Win32,143.6781609,,,,,,,,,,,,,,,,,,,,,,,483.143,484.116,l,1,0.313,,0.313,1,484.116,484.617,,,,,,465,FEM,WORD,DIS,150,aguja,,el,,484.617,484.618,-0.175,-0.289583333,0,0,0,,0,237,237,464,1,asuba,,,,
,,,,,,5c9cc12096cb340017b7321f,676192165fb32c2e1fb7aee6,67d182096d51b2815d946171,2025-03-12_13h46.11.433,Tarea de decisión léxica,2024.2.5,Win32,143.6781609,,,,,,,,,,,,,,,,,,,,,,,484.619,485.653,l,1,0.379,,0.379,1,485.653,486.154,,,,,,13,FEM,WORD,DIS,150,hora,,el,,486.154,486.154,-0.175,-0.289583333,0,0,0,,0,238,238,12,1,nola,,,,
,,,,,,5c9cc12096cb340017b7321f,676192165fb32c2e1fb7aee6,67d182096d51b2815d946171,2025-03-12_13h46.11.433,Tarea de decisión léxica,2024.2.5,Win32,143.6781609,,,,,,,,,,,,,,,,,,,,,,,486.154,487.155,l,1,0.344,,0.344,1,487.155,487.656,,,,,,61,FEM,WORD,DIS,150,obra,,el,,487.656,487.656,-0.175,-0.289583333,0,0,0,,0,239,239,60,1,efla,,,,
,,,,,,5c9cc12096cb340017b7321f,676192165fb32c2e1fb7aee6,67d182096d51b2815d946171,2025-03-12_13h46.11.433,Tarea de decisión léxica,2024.2.5,Win32,143.6781609,,,,,,,,,,,,,,,,,,,,,,,487.656,488.608,l,1,0.294,,0.294,1,488.608,489.108,,,,,,367,MAS,WORD,AGR,150,reloj,,el,,489.108,489.108,-0.175,-0.289583333,0,0,0,,0,240,240,366,1,rerob,,,,
,,,,,,5c9cc12096cb340017b7321f,676192165fb32c2e1fb7aee6,67d182096d51b2815d946171,2025-03-12_13h46.11.433,Tarea de decisión léxica,2024.2.5,Win32,143.6781609,,,,,,,,,,,,,,,,,,,,,,,489.109,490.054,l,1,0.285,,0.285,1,490.054,490.555,,,,,,359,MAS,WORD,AGR,150,calor,,el,,490.555,490.555,-0.175,-0.289583333,0,0,0,,0,241,241,358,1,cacer,,,,
,,,,,,5c9cc12096cb340017b7321f,676192165fb32c2e1fb7aee6,67d182096d51b2815d946171,2025-03-12_13h46.11.433,Tarea de decisión léxica,2024.2.5,Win32,143.6781609,,,,,,,,,,,,,,,,,,,,,,,490.555,491.577,a,1,0.361,,0.361,1,491.577,492.077,,,,,,478,MAS,NOWORD,DIS,150,hocon,,la,,492.078,492.078,-0.175,-0.289583333,0,0,0,,0,242,242,477,1,botón,,,,
,,,,,,5c9cc12096cb340017b7321f,676192165fb32c2e1fb7aee6,67d182096d51b2815d946171,2025-03-12_13h46.11.433,Tarea de decisión léxica,2024.2.5,Win32,143.6781609,,,,,,,,,,,,,,,,,,,,,,,492.079,493.065,l,1,0.327,,0.327,1,493.065,493.565,,,,,,395,FEM,WORD,AGR,150,caída,,la,,493.566,493.566,-0.175,-0.289583333,0,0,0,,0,243,243,394,1,paeda,,,,
,,,,,,5c9cc12096cb340017b7321f,676192165fb32c2e1fb7aee6,67d182096d51b2815d946171,2025-03-12_13h46.11.433,Tarea de decisión léxica,2024.2.5,Win32,143.6781609,,,,,,,,,,,,,,,,,,,,,,,493.566,494.672,l,1,0.45,,0.45,1,494.672,495.172,,,,,,23,FEM,WORD,AGR,150,hija,,la,,495.172,495.172,-0.175,-0.289583333,0,0,0,,0,244,244,22,1,giva,,,,
,,,,,,5c9cc12096cb340017b7321f,676192165fb32c2e1fb7aee6,67d182096d51b2815d946171,2025-03-12_13h46.11.433,Tarea de decisión léxica,2024.2.5,Win32,143.6781609,,,,,,,,,,,,,,,,,,,,,,,495.172,496.208,l,1,0.378,,0.378,1,496.208,496.708,,,,,,59,FEM,WORD,AGR,150,sala,,la,,496.708,496.708,-0.175,-0.289583333,0,0,0,,0,245,245,58,1,tafa,,,,
,,,,,,5c9cc12096cb340017b7321f,676192165fb32c2e1fb7aee6,67d182096d51b2815d946171,2025-03-12_13h46.11.433,Tarea de decisión léxica,2024.2.5,Win32,143.6781609,,,,,,,,,,,,,,,,,,,,,,,496.709,497.647,l,1,0.278,,0.278,1,497.647,498.148,,,,,,215,FEM,WORD,AGR,150,raíz,,la,,498.148,498.148,-0.175,-0.289583333,0,0,0,,0,246,246,214,1,raua,,,,
,,,,,,5c9cc12096cb340017b7321f,676192165fb32c2e1fb7aee6,67d182096d51b2815d946171,2025-03-12_13h46.11.433,Tarea de decisión léxica,2024.2.5,Win32,143.6781609,,,,,,,,,,,,,,,,,,,,,,,498.148,499.129,a,1,0.322,,0.322,1,499.129,499.629,,,,,,192,FEM,NOWORD,AGR,150,bila,,la,,499.629,499.63,-0.175,-0.289583333,0,0,0,,0,247,247,191,1,pila,,,,
,,,,,,5c9cc12096cb340017b7321f,676192165fb32c2e1fb7aee6,67d182096d51b2815d946171,2025-03-12_13h46.11.433,Tarea de decisión léxica,2024.2.5,Win32,143.6781609,,,,,,,,,,,,,,,,,,,,,,,499.63,500.63,l,1,0.342,,0.342,1,500.631,501.131,,,,,,475,FEM,WORD,AGR,150,manta,,la,,501.132,501.132,-0.175,-0.289583333,0,0,0,,0,248,248,474,1,mucta,,,,
,,,,,,5c9cc12096cb340017b7321f,676192165fb32c2e1fb7aee6,67d182096d51b2815d946171,2025-03-12_13h46.11.433,Tarea de decisión léxica,2024.2.5,Win32,143.6781609,,,,,,,,,,,,,,,,,,,,,,,501.132,502.209,a,1,0.42,,0.42,1,502.209,502.71,,,,,,74,MAS,NOWORD,DIS,150,omio,,la,,502.71,502.71,-0.175,-0.289583333,0,0,0,,0,249,249,73,1,odio,,,,
,,,,,,5c9cc12096cb340017b7321f,676192165fb32c2e1fb7aee6,67d182096d51b2815d946171,2025-03-12_13h46.11.433,Tarea de decisión léxica,2024.2.5,Win32,143.6781609,,,,,,,,,,,,,,,,,,,,,,,502.71,503.738,a,1,0.372,,0.372,1,503.738,504.239,,,,,,262,MAS,NOWORD,DIS,150,titio,,la,,504.239,504.239,-0.175,-0.289583333,0,0,0,,0,250,250,261,1,sitio,,,,
,,,,,,5c9cc12096cb340017b7321f,676192165fb32c2e1fb7aee6,67d182096d51b2815d946171,2025-03-12_13h46.11.433,Tarea de decisión léxica,2024.2.5,Win32,143.6781609,,,,,,,,,,,,,,,,,,,,,,,504.239,505.372,a,1,0.473,,0.473,1,505.372,505.873,,,,,,10,MAS,NOWORD,DIS,150,sibo,,la,,505.874,505.875,-0.175,-0.289583333,0,0,0,,0,251,251,9,1,tipo,,,,
,,,,,,5c9cc12096cb340017b7321f,676192165fb32c2e1fb7aee6,67d182096d51b2815d946171,2025-03-12_13h46.11.433,Tarea de decisión léxica,2024.2.5,Win32,143.6781609,,,,,,,,,,,,,,,,,,,,,,,505.875,506.916,a,1,0.384,,0.384,1,506.916,507.417,,,,,,286,MAS,NOWORD,DIS,150,echor,,la,,507.417,507.417,-0.175,-0.289583333,0,0,0,,0,252,252,285,1,error,,,,
,,,,,,5c9cc12096cb340017b7321f,676192165fb32c2e1fb7aee6,67d182096d51b2815d946171,2025-03-12_13h46.11.433,Tarea de decisión léxica,2024.2.5,Win32,143.6781609,,,,,,,,,,,,,,,,,,,,,,,507.417,508.397,l,1,0.32,,0.32,1,508.397,508.898,,,,,,289,FEM,WORD,DIS,150,bomba,,el,,508.898,508.898,-0.175,-0.289583333,0,0,0,,0,253,253,288,1,bumpa,,,,
,,,,,,5c9cc12096cb340017b7321f,676192165fb32c2e1fb7aee6,67d182096d51b2815d946171,2025-03-12_13h46.11.433,Tarea de decisión léxica,2024.2.5,Win32,143.6781609,,,,,,,,,,,,,,,,,,,,,,,508.898,509.933,a,1,0.375,,0.375,1,509.934,510.434,,,,,,40,MAS,NOWORD,AGR,150,redo,,el,,510.434,510.434,-0.175,-0.289583333,0,0,0,,0,254,254,39,1,voto,,,,
,,,,,,5c9cc12096cb340017b7321f,676192165fb32c2e1fb7aee6,67d182096d51b2815d946171,2025-03-12_13h46.11.433,Tarea de decisión léxica,2024.2.5,Win32,143.6781609,,,,,,,,,,,,,,,,,,,,,,,510.435,511.471,a,0,0.378,,0.378,0,511.471,511.971,,,,,,125,MAS,WORD,DIS,150,lujo,,la,,511.971,511.971,-0.175,-0.289583333,0,0,0,,0,255,255,124,1,vudo,,,,
,,,,,,5c9cc12096cb340017b7321f,676192165fb32c2e1fb7aee6,67d182096d51b2815d946171,2025-03-12_13h46.11.433,Tarea de decisión léxica,2024.2.5,Win32,143.6781609,,,,,,,,,,,,,,,,,,,,,,,511.972,513.056,a,1,0.425,,0.425,1,513.056,513.557,,,,,,388,FEM,NOWORD,AGR,150,bresa,,la,,513.557,513.557,-0.175,-0.289583333,0,0,0,,0,256,256,387,1,crema,,,,
,,,,,,5c9cc12096cb340017b7321f,676192165fb32c2e1fb7aee6,67d182096d51b2815d946171,2025-03-12_13h46.11.433,Tarea de decisión léxica,2024.2.5,Win32,143.6781609,,,,,,,,,,,,,,,,,,,,,,,513.558,514.6,l,1,0.384,,0.384,1,514.6,515.101,,,,,,331,MAS,WORD,AGR,150,éxito,,el,,515.101,515.101,-0.175,-0.289583333,0,0,0,,0,257,257,330,1,erato,,,,
,,,,,,5c9cc12096cb340017b7321f,676192165fb32c2e1fb7aee6,67d182096d51b2815d946171,2025-03-12_13h46.11.433,Tarea de decisión léxica,2024.2.5,Win32,143.6781609,,,,,,,,,,,,,,,,,,,,,,,515.101,516.15,a,1,0.392,,0.392,1,516.15,516.651,,,,,,346,FEM,NOWORD,DIS,150,anera,,el,,516.651,516.651,-0.175,-0.289583333,0,0,0,,0,258,258,345,1,arena,,,,
,,,,,,5c9cc12096cb340017b7321f,676192165fb32c2e1fb7aee6,67d182096d51b2815d946171,2025-03-12_13h46.11.433,Tarea de decisión léxica,2024.2.5,Win32,143.6781609,,,,,,,,,,,,,,,,,,,,,,,516.652,517.61,l,1,0.298,,0.298,1,517.611,518.111,,,,,,263,FEM,WORD,AGR,150,vista,,la,,518.111,518.111,-0.175,-0.289583333,0,0,0,,0,259,259,262,1,dosta,,,,
,,,,,,5c9cc12096cb340017b7321f,676192165fb32c2e1fb7aee6,67d182096d51b2815d946171,2025-03-12_13h46.11.433,Tarea de decisión léxica,2024.2.5,Win32,143.6781609,,,,,,,,,,,,,,,,,,,,,,,518.112,519.106,l,1,0.333,,0.333,1,519.106,519.606,,,,,,19,MAS,WORD,AGR,150,niño,,el,,519.606,519.606,-0.175,-0.289583333,0,0,0,,0,260,260,18,1,himo,,,,
,,,,,,5c9cc12096cb340017b7321f,676192165fb32c2e1fb7aee6,67d182096d51b2815d946171,2025-03-12_13h46.11.433,Tarea de decisión léxica,2024.2.5,Win32,143.6781609,,,,,,,,,,,,,,,,,,,,,,,519.606,520.649,l,1,0.384,,0.384,1,520.649,521.15,,,,,,81,FEM,WORD,DIS,150,dama,,el,,521.15,521.15,-0.175,-0.289583333,0,0,0,,0,261,261,80,1,vasa,,,,
,,,,,,5c9cc12096cb340017b7321f,676192165fb32c2e1fb7aee6,67d182096d51b2815d946171,2025-03-12_13h46.11.433,Tarea de decisión léxica,2024.2.5,Win32,143.6781609,,,,,,,,,,,,,,,,,,,,,,,521.151,522.276,a,1,0.469,,0.469,1,522.276,522.777,,,,,,234,FEM,NOWORD,DIS,150,fasa,,el,,522.777,522.777,-0.175,-0.289583333,0,0,0,,0,262,262,233,1,lana,,,,
,,,,,,5c9cc12096cb340017b7321f,676192165fb32c2e1fb7aee6,67d182096d51b2815d946171,2025-03-12_13h46.11.433,Tarea de decisión léxica,2024.2.5,Win32,143.6781609,,,,,,,,,,,,,,,,,,,,,,,522.777,523.674,l,1,0.237,,0.237,1,523.674,524.174,,,,,,169,MAS,WORD,DIS,150,cubo,,la,,524.174,524.174,-0.175,-0.289583333,0,0,0,,0,263,263,168,1,mibo,,,,
,,,,,,5c9cc12096cb340017b7321f,676192165fb32c2e1fb7aee6,67d182096d51b2815d946171,2025-03-12_13h46.11.433,Tarea de decisión léxica,2024.2.5,Win32,143.6781609,,,,,,,,,,,,,,,,,,,,,,,524.174,525.085,l,1,0.255,,0.255,1,525.085,525.586,,,,,,479,MAS,WORD,AGR,150,rumbo,,el,,525.586,525.586,-0.175,-0.289583333,0,0,0,,0,264,264,478,1,rimpo,,,,
,,,,,,5c9cc12096cb340017b7321f,676192165fb32c2e1fb7aee6,67d182096d51b2815d946171,2025-03-12_13h46.11.433,Tarea de decisión léxica,2024.2.5,Win32,143.6781609,,,,,,,,,,,,,,,,,,,,,,,525.586,526.483,l,0,0.239,,0.239,0,526.484,526.983,,,,,,148,FEM,NOWORD,AGR,150,pama,,la,,526.983,526.983,-0.175,-0.289583333,0,0,0,,0,265,265,147,1,hoja,,,,
,,,,,,5c9cc12096cb340017b7321f,676192165fb32c2e1fb7aee6,67d182096d51b2815d946171,2025-03-12_13h46.11.433,Tarea de decisión léxica,2024.2.5,Win32,143.6781609,,,,,,,,,,,,,,,,,,,,,,,526.983,527.909,l,1,0.269,,0.269,1,527.909,528.409,,,,,,257,FEM,WORD,DIS,150,amiga,,el,,528.409,528.41,-0.175,-0.289583333,0,0,0,,0,266,266,256,1,asama,,,,
,,,,,,5c9cc12096cb340017b7321f,676192165fb32c2e1fb7aee6,67d182096d51b2815d946171,2025-03-12_13h46.11.433,Tarea de decisión léxica,2024.2.5,Win32,143.6781609,,,,,,,,,,,,,,,,,,,,,,,528.41,529.472,a,1,0.406,,0.406,1,529.472,529.973,,,,,,276,MAS,NOWORD,AGR,150,musto,,el,,529.973,529.973,-0.175,-0.289583333,0,0,0,,0,267,267,275,1,punto,,,,
,,,,,,5c9cc12096cb340017b7321f,676192165fb32c2e1fb7aee6,67d182096d51b2815d946171,2025-03-12_13h46.11.433,Tarea de decisión léxica,2024.2.5,Win32,143.6781609,,,,,,,,,,,,,,,,,,,,,,,529.974,531.038,a,1,0.404,,0.404,1,531.038,531.538,,,,,,316,FEM,NOWORD,AGR,150,riosa,,la,,531.538,531.538,-0.175,-0.289583333,0,0,0,,0,268,268,315,1,reina,,,,
,,,,,,5c9cc12096cb340017b7321f,676192165fb32c2e1fb7aee6,67d182096d51b2815d946171,2025-03-12_13h46.11.433,Tarea de decisión léxica,2024.2.5,Win32,143.6781609,,,,,,,,,,,,,,,,,,,,,,,531.538,532.511,l,1,0.315,,0.315,1,532.511,533.012,,,,,,15,FEM,WORD,AGR,150,idea,,la,,533.012,533.012,-0.175,-0.289583333,0,0,0,,0,269,269,14,1,odea,,,,
,,,,,,5c9cc12096cb340017b7321f,676192165fb32c2e1fb7aee6,67d182096d51b2815d946171,2025-03-12_13h46.11.433,Tarea de decisión léxica,2024.2.5,Win32,143.6781609,,,,,,,,,,,,,,,,,,,,,,,533.013,533.93,l,1,0.258,,0.258,1,533.93,534.431,,,,,,105,FEM,WORD,DIS,150,sopa,,el,,534.431,534.431,-0.175,-0.289583333,0,0,0,,0,270,270,104,1,vina,,,,
,,,,,,5c9cc12096cb340017b7321f,676192165fb32c2e1fb7aee6,67d182096d51b2815d946171,2025-03-12_13h46.11.433,Tarea de decisión léxica,2024.2.5,Win32,143.6781609,,,,,,,,,,,,,,,,,,,,,,,534.432,535.363,l,1,0.273,,0.273,1,535.363,535.863,,,,,,99,MAS,WORD,AGR,150,lobo,,el,,535.864,535.864,-0.175,-0.289583333,0,0,0,,0,271,271,98,1,soro,,,,
,,,,,,5c9cc12096cb340017b7321f,676192165fb32c2e1fb7aee6,67d182096d51b2815d946171,2025-03-12_13h46.11.433,Tarea de decisión léxica,2024.2.5,Win32,143.6781609,,,,,,,,,,,,,,,,,,,,,,,535.865,536.975,a,1,0.456,,0.456,1,536.975,537.476,,,,,,404,FEM,NOWORD,AGR,150,grisa,,la,,537.476,537.476,-0.175,-0.289583333,0,0,0,,0,272,272,403,1,prima,,,,
,,,,,,5c9cc12096cb340017b7321f,676192165fb32c2e1fb7aee6,67d182096d51b2815d946171,2025-03-12_13h46.11.433,Tarea de decisión léxica,2024.2.5,Win32,143.6781609,,,,,,,,,,,,,,,,,,,,,,,537.477,538.526,a,1,0.39,,0.39,1,538.527,539.027,,,,,,96,FEM,NOWORD,AGR,151,neda,,la,,539.027,539.027,-0.175,-0.289583333,0,0,0,,0,273,273,95,1,moda,,,,
,,,,,,5c9cc12096cb340017b7321f,676192165fb32c2e1fb7aee6,67d182096d51b2815d946171,2025-03-12_13h46.11.433,Tarea de decisión léxica,2024.2.5,Win32,143.6781609,,,,,,,,,,,,,,,,,,,,,,,539.028,540.056,l,1,0.372,,0.372,1,540.056,540.556,,,,,,441,FEM,WORD,DIS,150,selva,,el,,540.556,540.556,-0.175,-0.289583333,0,0,0,,0,274,274,440,1,telza,,,,
