counterbalancing_condition,consent_prescreening.block_1/declare_consent,consent_prescreening.block_1/age_years,consent_prescreening.block_1/gender,consent_prescreening.block_1/language_disorder,consent_prescreening.block_1/first_language,PROLIFIC_PID,STUDY_ID,SESSION_ID,date,expName,psychopyVersion,OS,frameRate,check_prescreening_answers.started,check_prescreening_answers.stopped,Instructions.started,Instructions.stopped,instr_done_keyboard.keys,instr_done_touch.x,instr_done_touch.y,instr_done_touch.leftButton,instr_done_touch.midButton,instr_done_touch.rightButton,instr_done_touch.clicked_name,instruction_pages.thisRepN,instruction_pages.thisTrialN,instruction_pages.thisN,instruction_pages.thisIndex,instruction_pages.ran,pageN,phase,instruct_text,has_image,instruct_image,instr_done_keyboard.rt,instr_done_keyboard.duration,presentTrial.started,presentTrial.stopped,response.keys,response.corr,rt,corr,feedback.started,feedback.stopped,practice_trials.thisRepN,practice_trials.thisTrialN,practice_trials.thisN,practice_trials.thisIndex,practice_trials.ran,TrialID,Gender,StimulusType,Condition,PrimeDuration,Prime,len,Flanker,corrAns,response.rt,response.duration,Break.started,Break.stopped,break_done_touch.x,break_done_touch.y,break_done_touch.leftButton,break_done_touch.midButton,break_done_touch.rightButton,break_done_keyboard.keys,experiment_trials.thisRepN,experiment_trials.thisTrialN,experiment_trials.thisN,experiment_trials.thisIndex,experiment_trials.ran,PairedWith,break_done_keyboard.rt,break_done_keyboard.duration,End.started,End.stopped
2,"[""over_18"",""comfortable"",""read_info"",""consent_given""]",33,M,"[""none""]","[""english"",""spanish""]",5c9ebf067114700016da2813,676192165fb32c2e1fb7aee6,67d1559a2096bb6d09b411d0,2025-03-12_04h37.01.473,Tarea de decisión léxica,2024.2.5,MacIntel,59.88023952,,,,,,,,,,,,,,,,,,,,,,,,,,,,,,,,,,,,,,,,,,,,,,,,,,,,,,,,,,,,,,,,,
,,,,,,5c9ebf067114700016da2813,676192165fb32c2e1fb7aee6,67d1559a2096bb6d09b411d0,2025-03-12_04h37.01.473,Tarea de decisión léxica,2024.2.5,MacIntel,59.88023952,31.7503,31.7504,,,,,,,,,,,,,,,,,,,,,,,,,,,,,,,,,,,,,,,,,,,,,,,,,,,,,,,,,,,,,,,
,,,,,,5c9ebf067114700016da2813,676192165fb32c2e1fb7aee6,67d1559a2096bb6d09b411d0,2025-03-12_04h37.01.473,Tarea de decisión léxica,2024.2.5,MacIntel,59.88023952,,,31.7803,43.6481,,0.015988329,-0.384819031,1,0,0,instr_done_button,0,0,0,0,1,1,instructions,"INSTRUCCIONES
Va a realizar una prueba de decisión léxica. Desde el comienzo de la prueba mire siempre al centro de la pantalla. Se presentará una serie de cadenas de letras, una a la vez, en la pantalla. Su tarea consiste en determinar si cada cadena de letras constituye una palabra real en español o una no-palabra (una secuencia de letras que no constituye una palabra real). 

Pulse la tecla ESPACIO para continuar.",0,keyboardresponseWN.png,,,,,,,,,,,,,,,,,,,,,,,,,,,,,,,,,,,,,,,,,,,,
,,,,,,5c9ebf067114700016da2813,676192165fb32c2e1fb7aee6,67d1559a2096bb6d09b411d0,2025-03-12_04h37.01.473,Tarea de decisión léxica,2024.2.5,MacIntel,59.88023952,,,43.6519,44.9825,space,0.177665541,-0.261650764,0,0,0,,0,1,1,1,1,2,instructions,"El procedimiento es el siguiente: Aparecerán dos barras verticales posicionadas en el centro de la pantalla, separadas por un pequeño espacio.Por favor, enfoque su atención en el espacio entre las barras. Esto preparará sus ojos para la siguiente cadena de letras, que aparecerá entre las dos barras durante un instante.

Pulse la tecla ESPACIO para continuar.",0,keyboardresponseNW.png,1.3009,,,,,,,,,,,,,,,,,,,,,,,,,,,,,,,,,,,,,,,,,,,
,,,,,,5c9ebf067114700016da2813,676192165fb32c2e1fb7aee6,67d1559a2096bb6d09b411d0,2025-03-12_04h37.01.473,Tarea de decisión léxica,2024.2.5,MacIntel,59.88023952,,,44.9856,51.6878,space,0.526007758,-0.129056464,0,0,0,,0,2,2,2,1,3,instructions,"En el teclado de su dispositivo, pulse la tecla ""A"" si la cadena de letras es una palabra real en español (por ejemplo: ""mano"") y la tecla ""L"" si la cadena de letras es una no-palabra (por ejemplo: ""minu"").
Pulse la tecla ESPACIO para continuar.",1,keyboardresponseWN.png,6.6321,,,,,,,,,,,,,,,,,,,,,,,,,,,,,,,,,,,,,,,,,,,
,,,,,,5c9ebf067114700016da2813,676192165fb32c2e1fb7aee6,67d1559a2096bb6d09b411d0,2025-03-12_04h37.01.473,Tarea de decisión léxica,2024.2.5,MacIntel,59.88023952,,,51.6917,59.0245,space,0.526007758,-0.129056464,0,0,0,,0,3,3,3,1,4,instructions,"Es muy importante que responda con la mayor rapidez y precisión posibles. Si no responde dentro de 2 segundos, aparecerá el mensaje ""Muy lento"" y el experimento pasará a la siguiente palabra. Inmediatamente después de su respuesta se indicará si fue correcta o no. Los primeros 15 intentos serán de práctica y habrá dos descansos durante la prueba.

Pulse la tecla ESPACIO  para iniciar la parte de práctica.",0,keyboardresponseWN.png,7.31,,,,,,,,,,,,,,,,,,,,,,,,,,,,,,,,,,,,,,,,,,,
,,,,,,5c9ebf067114700016da2813,676192165fb32c2e1fb7aee6,67d1559a2096bb6d09b411d0,2025-03-12_04h37.01.473,Tarea de decisión léxica,2024.2.5,MacIntel,59.88023952,,,,,,,,,,,,,,,,,,,,,,,,59.0454,61.697,,0,,-1,61.6973,62.1958,0,0,0,7,1,1008,MAS,WORD,DIS,150,frío,4,la,l,,,,,,,,,,,,,,,,,,,,
,,,,,,5c9ebf067114700016da2813,676192165fb32c2e1fb7aee6,67d1559a2096bb6d09b411d0,2025-03-12_04h37.01.473,Tarea de decisión léxica,2024.2.5,MacIntel,59.88023952,,,,,,,,,,,,,,,,,,,,,,,,62.1978,62.9801,a,1,0.1014,1,62.9991,63.4806,0,1,1,8,1,1009,FEM,WORD,AGR,150,viejo,5,la,l,0.1014,,,,,,,,,,,,,,,,,,,
,,,,,,5c9ebf067114700016da2813,676192165fb32c2e1fb7aee6,67d1559a2096bb6d09b411d0,2025-03-12_04h37.01.473,Tarea de decisión léxica,2024.2.5,MacIntel,59.88023952,,,,,,,,,,,,,,,,,,,,,,,,63.4817,64.9485,a,0,0.8103,0,64.9497,65.4493,0,2,2,4,1,1005,MAS,NOWORD,DIS,150,nobad,5,la,a,0.8103,,,,,,,,,,,,,,,,,,,
,,,,,,5c9ebf067114700016da2813,676192165fb32c2e1fb7aee6,67d1559a2096bb6d09b411d0,2025-03-12_04h37.01.473,Tarea de decisión léxica,2024.2.5,MacIntel,59.88023952,,,,,,,,,,,,,,,,,,,,,,,,65.4502,66.717,l,1,0.6045,1,66.7179,67.2172,0,3,3,3,1,1004,FEM,NOWORD,AGR,150,bireo,5,la,a,0.6045,,,,,,,,,,,,,,,,,,,
,,,,,,5c9ebf067114700016da2813,676192165fb32c2e1fb7aee6,67d1559a2096bb6d09b411d0,2025-03-12_04h37.01.473,Tarea de decisión léxica,2024.2.5,MacIntel,59.88023952,,,,,,,,,,,,,,,,,,,,,,,,67.2182,68.8353,a,1,0.9568,1,68.8353,69.3355,0,4,4,9,1,1010,MAS,WORD,DIS,150,video,5,la,l,0.9568,,,,,,,,,,,,,,,,,,,
,,,,,,5c9ebf067114700016da2813,676192165fb32c2e1fb7aee6,67d1559a2096bb6d09b411d0,2025-03-12_04h37.01.473,Tarea de decisión léxica,2024.2.5,MacIntel,59.88023952,,,,,,,,,,,,,,,,,,,,,,,,69.3365,70.3361,a,1,0.3355,1,70.3362,70.8366,0,5,5,5,1,1006,FEM,WORD,AGR,150,cara,4,la,l,0.3355,,,,,,,,,,,,,,,,,,,
,,,,,,5c9ebf067114700016da2813,676192165fb32c2e1fb7aee6,67d1559a2096bb6d09b411d0,2025-03-12_04h37.01.473,Tarea de decisión léxica,2024.2.5,MacIntel,59.88023952,,,,,,,,,,,,,,,,,,,,,,,,70.8375,72.0379,a,0,0.5439,0,72.0386,72.5382,0,6,6,0,1,1001,FEM,NOWORD,AGR,150,croz,4,la,a,0.5439,,,,,,,,,,,,,,,,,,,
,,,,,,5c9ebf067114700016da2813,676192165fb32c2e1fb7aee6,67d1559a2096bb6d09b411d0,2025-03-12_04h37.01.473,Tarea de decisión léxica,2024.2.5,MacIntel,59.88023952,,,,,,,,,,,,,,,,,,,,,,,,72.5393,73.5229,a,1,0.2746,1,73.5236,74.0223,0,7,7,6,1,1007,MAS,WORD,DIS,150,masa,4,la,l,0.2746,,,,,,,,,,,,,,,,,,,
,,,,,,5c9ebf067114700016da2813,676192165fb32c2e1fb7aee6,67d1559a2096bb6d09b411d0,2025-03-12_04h37.01.473,Tarea de decisión léxica,2024.2.5,MacIntel,59.88023952,,,,,,,,,,,,,,,,,,,,,,,,74.0231,75.2303,l,1,0.5149,1,75.2304,75.7234,0,8,8,1,1,1002,FEM,NOWORD,DIS,150,mabo,4,el,a,0.5149,,,,,,,,,,,,,,,,,,,
,,,,,,5c9ebf067114700016da2813,676192165fb32c2e1fb7aee6,67d1559a2096bb6d09b411d0,2025-03-12_04h37.01.473,Tarea de decisión léxica,2024.2.5,MacIntel,59.88023952,,,,,,,,,,,,,,,,,,,,,,,,75.7243,76.8582,l,1,0.4585,1,76.8584,77.3586,0,9,9,2,1,1003,FEM,NOWORD,DIS,150,muvor,5,el,a,0.4585,,,,,,,,,,,,,,,,,,,
,,,,,,5c9ebf067114700016da2813,676192165fb32c2e1fb7aee6,67d1559a2096bb6d09b411d0,2025-03-12_04h37.01.473,Tarea de decisión léxica,2024.2.5,MacIntel,59.88023952,,,86.4513,89.7927,space,0.8171875,0.012452952,0,0,0,,,,,,,,,,,,3.3236,,89.8508,90.9868,a,1,0.4687,1,90.9869,91.4864,,,,,,263,FEM,WORD,AGR,150,vista,,la,,0.4687,,91.4867,91.4902,0.8171875,0.012452952,0,0,0,,0,0,0,262,1,dosta,,,,
,,,,,,5c9ebf067114700016da2813,676192165fb32c2e1fb7aee6,67d1559a2096bb6d09b411d0,2025-03-12_04h37.01.473,Tarea de decisión léxica,2024.2.5,MacIntel,59.88023952,,,,,,,,,,,,,,,,,,,,,,,,91.4916,92.9544,a,1,0.7877,1,92.9545,93.4552,,,,,,85,MAS,WORD,DIS,150,lago,,la,,0.7877,,93.4552,93.4553,0.8171875,0.012452952,0,0,0,,0,1,1,84,1,babo,,,,
,,,,,,5c9ebf067114700016da2813,676192165fb32c2e1fb7aee6,67d1559a2096bb6d09b411d0,2025-03-12_04h37.01.473,Tarea de decisión léxica,2024.2.5,MacIntel,59.88023952,,,,,,,,,,,,,,,,,,,,,,,,93.4562,94.5892,a,1,0.4535,1,94.5892,95.0892,,,,,,91,FEM,WORD,AGR,150,taza,,la,,0.4535,,95.0901,95.091,0.8171875,0.012452952,0,0,0,,0,2,2,90,1,sava,,,,
,,,,,,5c9ebf067114700016da2813,676192165fb32c2e1fb7aee6,67d1559a2096bb6d09b411d0,2025-03-12_04h37.01.473,Tarea de decisión léxica,2024.2.5,MacIntel,59.88023952,,,,,,,,,,,,,,,,,,,,,,,,95.0918,96.1736,a,0,0.4046,0,96.1744,96.6749,,,,,,344,FEM,NOWORD,AGR,150,trada,,la,,0.4046,,96.675,96.6751,0.8171875,0.012452952,0,0,0,,0,3,3,343,1,plata,,,,
,,,,,,5c9ebf067114700016da2813,676192165fb32c2e1fb7aee6,67d1559a2096bb6d09b411d0,2025-03-12_04h37.01.473,Tarea de decisión léxica,2024.2.5,MacIntel,59.88023952,,,,,,,,,,,,,,,,,,,,,,,,96.6761,97.8425,a,1,0.4879,1,97.8432,98.3431,,,,,,277,MAS,WORD,DIS,150,fuego,,la,,0.4879,,98.3431,98.3432,0.8171875,0.012452952,0,0,0,,0,4,4,276,1,vuemo,,,,
,,,,,,5c9ebf067114700016da2813,676192165fb32c2e1fb7aee6,67d1559a2096bb6d09b411d0,2025-03-12_04h37.01.473,Tarea de decisión léxica,2024.2.5,MacIntel,59.88023952,,,,,,,,,,,,,,,,,,,,,,,,98.3443,99.477,l,1,0.4505,1,99.4772,99.977,,,,,,32,FEM,NOWORD,AGR,150,bova,,la,,0.4505,,99.9771,99.9771,0.8171875,0.012452952,0,0,0,,0,5,5,31,1,ropa,,,,
,,,,,,5c9ebf067114700016da2813,676192165fb32c2e1fb7aee6,67d1559a2096bb6d09b411d0,2025-03-12_04h37.01.473,Tarea de decisión léxica,2024.2.5,MacIntel,59.88023952,,,,,,,,,,,,,,,,,,,,,,,,99.9779,101.0777,a,1,0.4434,1,101.0778,101.5779,,,,,,3,FEM,WORD,AGR,150,vida,,la,,0.4434,,101.5779,101.5781,0.8171875,0.012452952,0,0,0,,0,6,6,2,1,dica,,,,
,,,,,,5c9ebf067114700016da2813,676192165fb32c2e1fb7aee6,67d1559a2096bb6d09b411d0,2025-03-12_04h37.01.473,Tarea de decisión léxica,2024.2.5,MacIntel,59.88023952,,,,,,,,,,,,,,,,,,,,,,,,101.5789,102.6465,a,0,0.4031,0,102.6473,103.1459,,,,,,446,MAS,NOWORD,DIS,150,ascor,,la,,0.4031,,103.1469,103.1476,0.8171875,0.012452952,0,0,0,,0,7,7,445,1,actor,,,,
,,,,,,5c9ebf067114700016da2813,676192165fb32c2e1fb7aee6,67d1559a2096bb6d09b411d0,2025-03-12_04h37.01.473,Tarea de decisión léxica,2024.2.5,MacIntel,59.88023952,,,,,,,,,,,,,,,,,,,,,,,,103.1482,104.4809,l,1,0.6494,1,104.4815,104.9809,,,,,,376,FEM,NOWORD,AGR,150,sasna,,la,,0.6494,,104.981,104.981,0.8171875,0.012452952,0,0,0,,0,8,8,375,1,salsa,,,,
,,,,,,5c9ebf067114700016da2813,676192165fb32c2e1fb7aee6,67d1559a2096bb6d09b411d0,2025-03-12_04h37.01.473,Tarea de decisión léxica,2024.2.5,MacIntel,59.88023952,,,,,,,,,,,,,,,,,,,,,,,,104.9819,106.2152,l,1,0.5504,1,106.2152,106.7154,,,,,,104,FEM,NOWORD,AGR,150,rova,,la,,0.5504,,106.7155,106.7155,0.8171875,0.012452952,0,0,0,,0,9,9,103,1,ruta,,,,
,,,,,,5c9ebf067114700016da2813,676192165fb32c2e1fb7aee6,67d1559a2096bb6d09b411d0,2025-03-12_04h37.01.473,Tarea de decisión léxica,2024.2.5,MacIntel,59.88023952,,,,,,,,,,,,,,,,,,,,,,,,106.7163,108.0174,l,1,0.6454,1,108.0175,108.5171,,,,,,18,FEM,NOWORD,DIS,150,paba,,el,,0.6454,,108.5172,108.5172,0.8171875,0.012452952,0,0,0,,0,10,10,17,1,mamá,,,,
,,,,,,5c9ebf067114700016da2813,676192165fb32c2e1fb7aee6,67d1559a2096bb6d09b411d0,2025-03-12_04h37.01.473,Tarea de decisión léxica,2024.2.5,MacIntel,59.88023952,,,,,,,,,,,,,,,,,,,,,,,,108.518,110.0182,l,1,0.8331,1,110.0183,110.5196,,,,,,90,MAS,NOWORD,DIS,150,guso,,la,,0.8331,,110.5204,110.5212,0.8171875,0.012452952,0,0,0,,0,11,11,89,1,humo,,,,
,,,,,,5c9ebf067114700016da2813,676192165fb32c2e1fb7aee6,67d1559a2096bb6d09b411d0,2025-03-12_04h37.01.473,Tarea de decisión léxica,2024.2.5,MacIntel,59.88023952,,,,,,,,,,,,,,,,,,,,,,,,110.5217,111.8533,l,1,0.6608,1,111.8534,112.3561,,,,,,194,FEM,NOWORD,DIS,150,foda,,el,,0.6608,,112.3561,112.3562,0.8171875,0.012452952,0,0,0,,0,12,12,193,1,loca,,,,
,,,,,,5c9ebf067114700016da2813,676192165fb32c2e1fb7aee6,67d1559a2096bb6d09b411d0,2025-03-12_04h37.01.473,Tarea de decisión léxica,2024.2.5,MacIntel,59.88023952,,,,,,,,,,,,,,,,,,,,,,,,112.3573,113.6715,l,1,0.636,1,113.6716,114.1726,,,,,,114,FEM,NOWORD,DIS,150,tada,,el,,0.636,,114.1727,114.1727,0.8171875,0.012452952,0,0,0,,0,13,13,113,1,miel,,,,
,,,,,,5c9ebf067114700016da2813,676192165fb32c2e1fb7aee6,67d1559a2096bb6d09b411d0,2025-03-12_04h37.01.473,Tarea de decisión léxica,2024.2.5,MacIntel,59.88023952,,,,,,,,,,,,,,,,,,,,,,,,114.1736,115.5904,l,1,0.7342,1,115.5904,116.0905,,,,,,348,FEM,NOWORD,AGR,150,mueza,,la,,0.7342,,116.0905,116.0907,0.8171875,0.012452952,0,0,0,,0,14,14,347,1,pieza,,,,
,,,,,,5c9ebf067114700016da2813,676192165fb32c2e1fb7aee6,67d1559a2096bb6d09b411d0,2025-03-12_04h37.01.473,Tarea de decisión léxica,2024.2.5,MacIntel,59.88023952,,,,,,,,,,,,,,,,,,,,,,,,116.0916,117.5279,l,1,0.763,1,117.5279,118.0248,,,,,,452,FEM,NOWORD,AGR,150,clita,,la,,0.763,,118.0249,118.025,0.8171875,0.012452952,0,0,0,,0,15,15,451,1,fruta,,,,
,,,,,,5c9ebf067114700016da2813,676192165fb32c2e1fb7aee6,67d1559a2096bb6d09b411d0,2025-03-12_04h37.01.473,Tarea de decisión léxica,2024.2.5,MacIntel,59.88023952,,,,,,,,,,,,,,,,,,,,,,,,118.0259,119.2593,l,1,0.5643,1,119.2594,119.7604,,,,,,466,FEM,NOWORD,DIS,150,asuba,,el,,0.5643,,119.7615,119.7626,0.8171875,0.012452952,0,0,0,,0,16,16,465,1,aguja,,,,
,,,,,,5c9ebf067114700016da2813,676192165fb32c2e1fb7aee6,67d1559a2096bb6d09b411d0,2025-03-12_04h37.01.473,Tarea de decisión léxica,2024.2.5,MacIntel,59.88023952,,,,,,,,,,,,,,,,,,,,,,,,119.7635,121.5176,l,0,1.0502,0,121.5185,122.0176,,,,,,149,MAS,WORD,DIS,150,cabo,,la,,1.0502,,122.0177,122.0178,0.8171875,0.012452952,0,0,0,,0,17,17,148,1,pafo,,,,
,,,,,,5c9ebf067114700016da2813,676192165fb32c2e1fb7aee6,67d1559a2096bb6d09b411d0,2025-03-12_04h37.01.473,Tarea de decisión léxica,2024.2.5,MacIntel,59.88023952,,,,,,,,,,,,,,,,,,,,,,,,122.0187,123.4793,a,1,0.7906,1,123.4802,123.9802,,,,,,9,MAS,WORD,DIS,150,tipo,,la,,0.7906,,123.9802,123.9803,0.8171875,0.012452952,0,0,0,,0,18,18,8,1,sibo,,,,
,,,,,,5c9ebf067114700016da2813,676192165fb32c2e1fb7aee6,67d1559a2096bb6d09b411d0,2025-03-12_04h37.01.473,Tarea de decisión léxica,2024.2.5,MacIntel,59.88023952,,,,,,,,,,,,,,,,,,,,,,,,123.9813,125.0815,a,1,0.4356,1,125.0816,125.5646,,,,,,205,FEM,WORD,DIS,150,rana,,el,,0.4356,,125.5646,125.5647,0.8171875,0.012452952,0,0,0,,0,19,19,204,1,bara,,,,
,,,,,,5c9ebf067114700016da2813,676192165fb32c2e1fb7aee6,67d1559a2096bb6d09b411d0,2025-03-12_04h37.01.473,Tarea de decisión léxica,2024.2.5,MacIntel,59.88023952,,,,,,,,,,,,,,,,,,,,,,,,125.5662,127.4189,a,1,1.1968,1,127.419,127.9169,,,,,,245,FEM,WORD,DIS,150,madre,,el,,1.1968,,127.9169,127.917,0.8171875,0.012452952,0,0,0,,0,20,20,244,1,pafle,,,,
,,,,,,5c9ebf067114700016da2813,676192165fb32c2e1fb7aee6,67d1559a2096bb6d09b411d0,2025-03-12_04h37.01.473,Tarea de decisión léxica,2024.2.5,MacIntel,59.88023952,,,,,,,,,,,,,,,,,,,,,,,,127.918,129.0673,a,1,0.4675,1,129.0674,129.5513,,,,,,239,MAS,WORD,AGR,150,mozo,,el,,0.4675,,129.5525,129.5533,0.8171875,0.012452952,0,0,0,,0,21,21,238,1,poño,,,,
,,,,,,5c9ebf067114700016da2813,676192165fb32c2e1fb7aee6,67d1559a2096bb6d09b411d0,2025-03-12_04h37.01.473,Tarea de decisión léxica,2024.2.5,MacIntel,59.88023952,,,,,,,,,,,,,,,,,,,,,,,,129.5542,130.9362,l,1,0.7064,1,130.9363,131.4359,,,,,,428,FEM,NOWORD,AGR,150,oseva,,la,,0.7064,,131.4359,131.436,0.8171875,0.012452952,0,0,0,,0,22,22,427,1,oreja,,,,
,,,,,,5c9ebf067114700016da2813,676192165fb32c2e1fb7aee6,67d1559a2096bb6d09b411d0,2025-03-12_04h37.01.473,Tarea de decisión léxica,2024.2.5,MacIntel,59.88023952,,,,,,,,,,,,,,,,,,,,,,,,131.4371,132.6535,l,1,0.5372,1,132.6536,133.1542,,,,,,210,MAS,NOWORD,DIS,150,dero,,la,,0.5372,,133.1543,133.1543,0.8171875,0.012452952,0,0,0,,0,23,23,209,1,velo,,,,
,,,,,,5c9ebf067114700016da2813,676192165fb32c2e1fb7aee6,67d1559a2096bb6d09b411d0,2025-03-12_04h37.01.473,Tarea de decisión léxica,2024.2.5,MacIntel,59.88023952,,,,,,,,,,,,,,,,,,,,,,,,133.1551,134.6218,l,0,0.79,0,134.6227,135.1222,,,,,,225,MAS,WORD,DIS,150,lodo,,la,,0.79,,135.1223,135.1224,0.8171875,0.012452952,0,0,0,,0,24,24,224,1,boco,,,,
,,,,,,5c9ebf067114700016da2813,676192165fb32c2e1fb7aee6,67d1559a2096bb6d09b411d0,2025-03-12_04h37.01.473,Tarea de decisión léxica,2024.2.5,MacIntel,59.88023952,,,,,,,,,,,,,,,,,,,,,,,,135.1232,136.2567,a,1,0.4606,1,136.2575,136.758,,,,,,299,FEM,WORD,AGR,150,bolsa,,la,,0.4606,,136.758,136.7581,0.8171875,0.012452952,0,0,0,,0,25,25,298,1,bosga,,,,
,,,,,,5c9ebf067114700016da2813,676192165fb32c2e1fb7aee6,67d1559a2096bb6d09b411d0,2025-03-12_04h37.01.473,Tarea de decisión léxica,2024.2.5,MacIntel,59.88023952,,,,,,,,,,,,,,,,,,,,,,,,136.7588,137.9246,a,1,0.493,1,137.9247,138.4256,,,,,,213,FEM,WORD,DIS,150,rama,,el,,0.493,,138.4267,138.4275,0.8171875,0.012452952,0,0,0,,0,26,26,212,1,bana,,,,
,,,,,,5c9ebf067114700016da2813,676192165fb32c2e1fb7aee6,67d1559a2096bb6d09b411d0,2025-03-12_04h37.01.473,Tarea de decisión léxica,2024.2.5,MacIntel,59.88023952,,,,,,,,,,,,,,,,,,,,,,,,138.4284,139.6778,l,0,0.5782,0,139.6785,140.1769,,,,,,161,MAS,WORD,DIS,150,coro,,la,,0.5782,,140.177,140.1771,0.8171875,0.012452952,0,0,0,,0,27,27,160,1,bopo,,,,
,,,,,,5c9ebf067114700016da2813,676192165fb32c2e1fb7aee6,67d1559a2096bb6d09b411d0,2025-03-12_04h37.01.473,Tarea de decisión léxica,2024.2.5,MacIntel,59.88023952,,,,,,,,,,,,,,,,,,,,,,,,140.178,141.395,a,1,0.5431,1,141.3958,141.8947,,,,,,41,FEM,WORD,DIS,150,nave,,el,,0.5431,,141.8948,141.8948,0.8171875,0.012452952,0,0,0,,0,28,28,40,1,haje,,,,
,,,,,,5c9ebf067114700016da2813,676192165fb32c2e1fb7aee6,67d1559a2096bb6d09b411d0,2025-03-12_04h37.01.473,Tarea de decisión léxica,2024.2.5,MacIntel,59.88023952,,,,,,,,,,,,,,,,,,,,,,,,141.8956,142.979,a,1,0.4167,1,142.9791,143.4792,,,,,,53,FEM,WORD,DIS,150,boda,,el,,0.4167,,143.4793,143.4794,0.8171875,0.012452952,0,0,0,,0,29,29,52,1,rora,,,,
,,,,,,5c9ebf067114700016da2813,676192165fb32c2e1fb7aee6,67d1559a2096bb6d09b411d0,2025-03-12_04h37.01.473,Tarea de decisión léxica,2024.2.5,MacIntel,59.88023952,,,,,,,,,,,,,,,,,,,,,,,,143.4805,144.6971,l,0,0.5323,0,144.6979,145.1816,,,,,,367,MAS,WORD,AGR,150,reloj,,el,,0.5323,,145.1816,145.1817,0.8171875,0.012452952,0,0,0,,0,30,30,366,1,rerob,,,,
,,,,,,5c9ebf067114700016da2813,676192165fb32c2e1fb7aee6,67d1559a2096bb6d09b411d0,2025-03-12_04h37.01.473,Tarea de decisión léxica,2024.2.5,MacIntel,59.88023952,,,,,,,,,,,,,,,,,,,,,,,,145.1828,146.6008,a,1,0.7309,1,146.6022,147.0992,,,,,,359,MAS,WORD,AGR,150,calor,,el,,0.7309,,147.1005,147.1014,0.8171875,0.012452952,0,0,0,,0,31,31,358,1,cacer,,,,
,,,,,,5c9ebf067114700016da2813,676192165fb32c2e1fb7aee6,67d1559a2096bb6d09b411d0,2025-03-12_04h37.01.473,Tarea de decisión léxica,2024.2.5,MacIntel,59.88023952,,,,,,,,,,,,,,,,,,,,,,,,147.1029,148.2338,a,1,0.4532,1,148.2338,148.7343,,,,,,219,FEM,WORD,AGR,150,pipa,,la,,0.4532,,148.7344,148.7344,0.8171875,0.012452952,0,0,0,,0,32,32,218,1,miva,,,,
,,,,,,5c9ebf067114700016da2813,676192165fb32c2e1fb7aee6,67d1559a2096bb6d09b411d0,2025-03-12_04h37.01.473,Tarea de decisión léxica,2024.2.5,MacIntel,59.88023952,,,,,,,,,,,,,,,,,,,,,,,,148.7355,149.8844,a,1,0.469,1,149.8844,150.3854,,,,,,287,FEM,WORD,AGR,150,lista,,la,,0.469,,150.3854,150.3855,0.8171875,0.012452952,0,0,0,,0,33,33,286,1,fosta,,,,
,,,,,,5c9ebf067114700016da2813,676192165fb32c2e1fb7aee6,67d1559a2096bb6d09b411d0,2025-03-12_04h37.01.473,Tarea de decisión léxica,2024.2.5,MacIntel,59.88023952,,,,,,,,,,,,,,,,,,,,,,,,150.3865,151.6211,l,1,0.551,1,151.6212,152.1201,,,,,,284,MAS,NOWORD,AGR,150,tuevo,,el,,0.551,,152.1202,152.1203,0.8171875,0.012452952,0,0,0,,0,34,34,283,1,sueño,,,,
,,,,,,5c9ebf067114700016da2813,676192165fb32c2e1fb7aee6,67d1559a2096bb6d09b411d0,2025-03-12_04h37.01.473,Tarea de decisión léxica,2024.2.5,MacIntel,59.88023952,,,,,,,,,,,,,,,,,,,,,,,,152.1211,153.9218,a,1,1.1335,1,153.922,154.4221,,,,,,297,MAS,WORD,DIS,150,grupo,,la,,1.1335,,154.4235,154.4243,0.8171875,0.012452952,0,0,0,,0,35,35,296,1,brubo,,,,
,,,,,,5c9ebf067114700016da2813,676192165fb32c2e1fb7aee6,67d1559a2096bb6d09b411d0,2025-03-12_04h37.01.473,Tarea de decisión léxica,2024.2.5,MacIntel,59.88023952,,,,,,,,,,,,,,,,,,,,,,,,154.4252,155.6257,l,1,0.5091,1,155.6258,156.1233,,,,,,50,FEM,NOWORD,DIS,150,ecat,,el,,0.5091,,156.1233,156.1235,0.8171875,0.012452952,0,0,0,,0,36,36,49,1,edad,,,,
,,,,,,5c9ebf067114700016da2813,676192165fb32c2e1fb7aee6,67d1559a2096bb6d09b411d0,2025-03-12_04h37.01.473,Tarea de decisión léxica,2024.2.5,MacIntel,59.88023952,,,,,,,,,,,,,,,,,,,,,,,,156.1247,157.4419,a,1,0.5986,1,157.442,157.9068,,,,,,409,MAS,WORD,DIS,150,carro,,la,,0.5986,,157.9068,157.9069,0.8171875,0.012452952,0,0,0,,0,37,37,408,1,pafro,,,,
,,,,,,5c9ebf067114700016da2813,676192165fb32c2e1fb7aee6,67d1559a2096bb6d09b411d0,2025-03-12_04h37.01.473,Tarea de decisión léxica,2024.2.5,MacIntel,59.88023952,,,,,,,,,,,,,,,,,,,,,,,,157.9079,159.0989,l,1,0.5245,1,159.099,159.5933,,,,,,220,FEM,NOWORD,AGR,150,miva,,la,,0.5245,,159.5934,159.5935,0.8171875,0.012452952,0,0,0,,0,38,38,219,1,pipa,,,,
,,,,,,5c9ebf067114700016da2813,676192165fb32c2e1fb7aee6,67d1559a2096bb6d09b411d0,2025-03-12_04h37.01.473,Tarea de decisión léxica,2024.2.5,MacIntel,59.88023952,,,,,,,,,,,,,,,,,,,,,,,,159.5944,160.7951,a,1,0.5201,1,160.7951,161.2952,,,,,,261,MAS,WORD,DIS,150,sitio,,la,,0.5201,,161.2953,161.2954,0.8171875,0.012452952,0,0,0,,0,39,39,260,1,titio,,,,
,,,,,,5c9ebf067114700016da2813,676192165fb32c2e1fb7aee6,67d1559a2096bb6d09b411d0,2025-03-12_04h37.01.473,Tarea de decisión léxica,2024.2.5,MacIntel,59.88023952,,,,,,,,,,,,,,,,,,,,,,,,161.2962,162.5954,l,1,0.6192,1,162.5955,163.0958,,,,,,386,FEM,NOWORD,DIS,150,febra,,el,,0.6192,,163.0968,163.0977,0.8171875,0.012452952,0,0,0,,0,40,40,385,1,letra,,,,
,,,,,,5c9ebf067114700016da2813,676192165fb32c2e1fb7aee6,67d1559a2096bb6d09b411d0,2025-03-12_04h37.01.473,Tarea de decisión léxica,2024.2.5,MacIntel,59.88023952,,,,,,,,,,,,,,,,,,,,,,,,163.0986,164.2918,a,1,0.5151,1,164.2918,164.7808,,,,,,111,MAS,WORD,AGR,150,muro,,el,,0.5151,,164.7809,164.781,0.8171875,0.012452952,0,0,0,,0,41,41,110,1,siro,,,,
,,,,,,5c9ebf067114700016da2813,676192165fb32c2e1fb7aee6,67d1559a2096bb6d09b411d0,2025-03-12_04h37.01.473,Tarea de decisión léxica,2024.2.5,MacIntel,59.88023952,,,,,,,,,,,,,,,,,,,,,,,,164.782,166.1322,l,1,0.6687,1,166.1323,166.6322,,,,,,208,MAS,NOWORD,AGR,150,kedo,,el,,0.6687,,166.6323,166.6323,0.8171875,0.012452952,0,0,0,,0,42,42,207,1,kilo,,,,
,,,,,,5c9ebf067114700016da2813,676192165fb32c2e1fb7aee6,67d1559a2096bb6d09b411d0,2025-03-12_04h37.01.473,Tarea de decisión léxica,2024.2.5,MacIntel,59.88023952,,,,,,,,,,,,,,,,,,,,,,,,166.6331,167.7607,a,1,0.4641,1,167.7608,168.259,,,,,,241,MAS,WORD,DIS,150,mundo,,la,,0.4641,,168.2591,168.2591,0.8171875,0.012452952,0,0,0,,0,43,43,240,1,mirdo,,,,
,,,,,,5c9ebf067114700016da2813,676192165fb32c2e1fb7aee6,67d1559a2096bb6d09b411d0,2025-03-12_04h37.01.473,Tarea de decisión léxica,2024.2.5,MacIntel,59.88023952,,,,,,,,,,,,,,,,,,,,,,,,168.2599,169.3513,l,1,0.4178,1,169.3514,169.8512,,,,,,316,FEM,NOWORD,AGR,150,riosa,,la,,0.4178,,169.8512,169.8513,0.8171875,0.012452952,0,0,0,,0,44,44,315,1,reina,,,,
,,,,,,5c9ebf067114700016da2813,676192165fb32c2e1fb7aee6,67d1559a2096bb6d09b411d0,2025-03-12_04h37.01.473,Tarea de decisión léxica,2024.2.5,MacIntel,59.88023952,,,,,,,,,,,,,,,,,,,,,,,,169.8521,171.1193,a,1,0.6005,1,171.1193,171.6195,,,,,,253,MAS,WORD,DIS,150,chico,,la,,0.6005,,171.6205,171.6213,0.8171875,0.012452952,0,0,0,,0,45,45,252,1,trido,,,,
,,,,,,5c9ebf067114700016da2813,676192165fb32c2e1fb7aee6,67d1559a2096bb6d09b411d0,2025-03-12_04h37.01.473,Tarea de decisión léxica,2024.2.5,MacIntel,59.88023952,,,,,,,,,,,,,,,,,,,,,,,,171.6219,172.8655,a,1,0.5758,1,172.8656,173.3547,,,,,,259,MAS,WORD,AGR,150,juego,,el,,0.5758,,173.3548,173.3548,0.8171875,0.012452952,0,0,0,,0,46,46,258,1,jaumo,,,,
,,,,,,5c9ebf067114700016da2813,676192165fb32c2e1fb7aee6,67d1559a2096bb6d09b411d0,2025-03-12_04h37.01.473,Tarea de decisión léxica,2024.2.5,MacIntel,59.88023952,,,,,,,,,,,,,,,,,,,,,,,,173.3556,174.5556,a,1,0.5174,1,174.5557,175.0553,,,,,,101,MAS,WORD,DIS,150,tono,,la,,0.5174,,175.0554,175.0554,0.8171875,0.012452952,0,0,0,,0,47,47,100,1,gito,,,,
,,,,,,5c9ebf067114700016da2813,676192165fb32c2e1fb7aee6,67d1559a2096bb6d09b411d0,2025-03-12_04h37.01.473,Tarea de decisión léxica,2024.2.5,MacIntel,59.88023952,,,,,,,,,,,,,,,,,,,,,,,,175.0564,176.1731,a,1,0.4489,1,176.1732,176.6739,,,,,,391,MAS,WORD,AGR,150,dueño,,el,,0.4489,,176.674,176.674,0.8171875,0.012452952,0,0,0,,0,48,48,390,1,dievo,,,,
,,,,,,5c9ebf067114700016da2813,676192165fb32c2e1fb7aee6,67d1559a2096bb6d09b411d0,2025-03-12_04h37.01.473,Tarea de decisión léxica,2024.2.5,MacIntel,59.88023952,,,,,,,,,,,,,,,,,,,,,,,,176.6748,177.8909,l,1,0.5382,1,177.891,178.3924,,,,,,304,MAS,NOWORD,AGR,150,lanco,,el,,0.5382,,178.3925,178.3925,0.8171875,0.012452952,0,0,0,,0,49,49,303,1,barco,,,,
,,,,,,5c9ebf067114700016da2813,676192165fb32c2e1fb7aee6,67d1559a2096bb6d09b411d0,2025-03-12_04h37.01.473,Tarea de decisión léxica,2024.2.5,MacIntel,59.88023952,,,,,,,,,,,,,,,,,,,,,,,,178.3934,179.6591,l,1,0.6072,1,179.6592,180.1595,,,,,,168,FEM,NOWORD,AGR,150,zifa,,la,,0.6072,,180.1603,180.1612,0.8171875,0.012452952,0,0,0,,0,50,50,167,1,jefa,,,,
,,,,,,5c9ebf067114700016da2813,676192165fb32c2e1fb7aee6,67d1559a2096bb6d09b411d0,2025-03-12_04h37.01.473,Tarea de decisión léxica,2024.2.5,MacIntel,59.88023952,,,,,,,,,,,,,,,,,,,,,,,,180.162,181.444,l,1,0.5891,1,181.444,181.9443,,,,,,162,MAS,NOWORD,DIS,150,bopo,,la,,0.5891,,181.9444,181.9444,0.8171875,0.012452952,0,0,0,,0,51,51,161,1,coro,,,,
,,,,,,5c9ebf067114700016da2813,676192165fb32c2e1fb7aee6,67d1559a2096bb6d09b411d0,2025-03-12_04h37.01.473,Tarea de decisión léxica,2024.2.5,MacIntel,59.88023952,,,,,,,,,,,,,,,,,,,,,,,,181.9452,183.0959,a,1,0.4917,1,183.0959,183.5959,,,,,,429,FEM,WORD,DIS,150,tarta,,el,,0.4917,,183.5959,183.5961,0.8171875,0.012452952,0,0,0,,0,52,52,428,1,tenta,,,,
,,,,,,5c9ebf067114700016da2813,676192165fb32c2e1fb7aee6,67d1559a2096bb6d09b411d0,2025-03-12_04h37.01.473,Tarea de decisión léxica,2024.2.5,MacIntel,59.88023952,,,,,,,,,,,,,,,,,,,,,,,,183.5969,184.6804,a,1,0.4195,1,184.6804,185.1804,,,,,,243,MAS,WORD,AGR,150,amigo,,el,,0.4195,,185.1805,185.1805,0.8171875,0.012452952,0,0,0,,0,53,53,242,1,asamo,,,,
,,,,,,5c9ebf067114700016da2813,676192165fb32c2e1fb7aee6,67d1559a2096bb6d09b411d0,2025-03-12_04h37.01.473,Tarea de decisión léxica,2024.2.5,MacIntel,59.88023952,,,,,,,,,,,,,,,,,,,,,,,,185.1813,186.5321,a,1,0.6676,1,186.5321,187.0316,,,,,,289,FEM,WORD,DIS,150,bomba,,el,,0.6676,,187.0317,187.0317,0.8171875,0.012452952,0,0,0,,0,54,54,288,1,bumpa,,,,
,,,,,,5c9ebf067114700016da2813,676192165fb32c2e1fb7aee6,67d1559a2096bb6d09b411d0,2025-03-12_04h37.01.473,Tarea de decisión léxica,2024.2.5,MacIntel,59.88023952,,,,,,,,,,,,,,,,,,,,,,,,187.0326,188.6337,l,1,0.9343,1,188.6338,189.1342,,,,,,354,FEM,NOWORD,DIS,150,cezca,,el,,0.9343,,189.1351,189.1361,0.8171875,0.012452952,0,0,0,,0,55,55,353,1,celda,,,,
,,,,,,5c9ebf067114700016da2813,676192165fb32c2e1fb7aee6,67d1559a2096bb6d09b411d0,2025-03-12_04h37.01.473,Tarea de decisión léxica,2024.2.5,MacIntel,59.88023952,,,,,,,,,,,,,,,,,,,,,,,,189.1375,190.7021,a,1,0.8841,1,190.7022,191.2029,,,,,,233,FEM,WORD,DIS,150,lana,,el,,0.8841,,191.203,191.2031,0.8171875,0.012452952,0,0,0,,0,56,56,232,1,fasa,,,,
,,,,,,5c9ebf067114700016da2813,676192165fb32c2e1fb7aee6,67d1559a2096bb6d09b411d0,2025-03-12_04h37.01.473,Tarea de decisión léxica,2024.2.5,MacIntel,59.88023952,,,,,,,,,,,,,,,,,,,,,,,,191.2042,192.6197,a,1,0.7296,1,192.6198,193.1204,,,,,,357,FEM,WORD,DIS,150,bruja,,el,,0.7296,,193.1205,193.1206,0.8171875,0.012452952,0,0,0,,0,57,57,356,1,gruba,,,,
,,,,,,5c9ebf067114700016da2813,676192165fb32c2e1fb7aee6,67d1559a2096bb6d09b411d0,2025-03-12_04h37.01.473,Tarea de decisión léxica,2024.2.5,MacIntel,59.88023952,,,,,,,,,,,,,,,,,,,,,,,,193.1214,194.6219,l,1,0.8144,1,194.622,195.1227,,,,,,38,MAS,NOWORD,DIS,150,gaco,,la,,0.8144,,195.1227,195.1228,0.8171875,0.012452952,0,0,0,,0,58,58,37,1,rato,,,,
,,,,,,5c9ebf067114700016da2813,676192165fb32c2e1fb7aee6,67d1559a2096bb6d09b411d0,2025-03-12_04h37.01.473,Tarea de decisión léxica,2024.2.5,MacIntel,59.88023952,,,,,,,,,,,,,,,,,,,,,,,,195.1238,196.2399,a,1,0.4538,1,196.24,196.7401,,,,,,443,MAS,WORD,AGR,150,salón,,el,,0.4538,,196.7412,196.7422,0.8171875,0.012452952,0,0,0,,0,59,59,442,1,taron,,,,
,,,,,,5c9ebf067114700016da2813,676192165fb32c2e1fb7aee6,67d1559a2096bb6d09b411d0,2025-03-12_04h37.01.473,Tarea de decisión léxica,2024.2.5,MacIntel,59.88023952,,,,,,,,,,,,,,,,,,,,,,,,196.7443,198.0244,a,0,0.5977,0,198.0253,198.5248,,,,,,44,FEM,NOWORD,AGR,150,meda,,la,,0.5977,,198.5249,198.525,0.8171875,0.012452952,0,0,0,,0,60,60,43,1,pena,,,,
,,,,,,5c9ebf067114700016da2813,676192165fb32c2e1fb7aee6,67d1559a2096bb6d09b411d0,2025-03-12_04h37.01.473,Tarea de decisión léxica,2024.2.5,MacIntel,59.88023952,,,,,,,,,,,,,,,,,,,,,,,,198.5261,199.7829,l,0,0.5755,0,199.783,200.2622,,,,,,369,MAS,WORD,DIS,150,ruido,,la,,0.5755,,200.2623,200.2624,0.8171875,0.012452952,0,0,0,,0,61,61,368,1,rioco,,,,
,,,,,,5c9ebf067114700016da2813,676192165fb32c2e1fb7aee6,67d1559a2096bb6d09b411d0,2025-03-12_04h37.01.473,Tarea de decisión léxica,2024.2.5,MacIntel,59.88023952,,,,,,,,,,,,,,,,,,,,,,,,200.2632,201.6644,l,1,0.7312,1,201.6652,202.1611,,,,,,216,FEM,NOWORD,AGR,150,raua,,la,,0.7312,,202.1612,202.1613,0.8171875,0.012452952,0,0,0,,0,62,62,215,1,raíz,,,,
,,,,,,5c9ebf067114700016da2813,676192165fb32c2e1fb7aee6,67d1559a2096bb6d09b411d0,2025-03-12_04h37.01.473,Tarea de decisión léxica,2024.2.5,MacIntel,59.88023952,,,,,,,,,,,,,,,,,,,,,,,,202.1623,203.7672,l,1,0.9467,1,203.7672,204.2627,,,,,,172,MAS,NOWORD,AGR,150,niro,,el,,0.9467,,204.2627,204.2628,0.8171875,0.012452952,0,0,0,,0,63,63,171,1,hilo,,,,
,,,,,,5c9ebf067114700016da2813,676192165fb32c2e1fb7aee6,67d1559a2096bb6d09b411d0,2025-03-12_04h37.01.473,Tarea de decisión léxica,2024.2.5,MacIntel,59.88023952,,,,,,,,,,,,,,,,,,,,,,,,204.2638,205.3612,a,0,0.4345,0,205.362,205.8646,,,,,,164,FEM,NOWORD,AGR,150,laga,,la,,0.4345,,205.8657,205.8674,0.8171875,0.012452952,0,0,0,,0,64,64,163,1,fama,,,,
,,,,,,5c9ebf067114700016da2813,676192165fb32c2e1fb7aee6,67d1559a2096bb6d09b411d0,2025-03-12_04h37.01.473,Tarea de decisión léxica,2024.2.5,MacIntel,59.88023952,,,,,,,,,,,,,,,,,,,,,,,,205.8688,206.9985,a,1,0.4556,1,206.9994,207.5074,,,,,,311,MAS,WORD,AGR,150,honor,,el,,0.4556,,207.5075,207.5077,0.8171875,0.012452952,0,0,0,,0,65,65,310,1,nosor,,,,
,,,,,,5c9ebf067114700016da2813,676192165fb32c2e1fb7aee6,67d1559a2096bb6d09b411d0,2025-03-12_04h37.01.473,Tarea de decisión léxica,2024.2.5,MacIntel,59.88023952,,,,,,,,,,,,,,,,,,,,,,,,207.5087,208.9499,a,1,0.6141,1,208.9499,209.4505,,,,,,449,FEM,WORD,DIS,150,pluma,,el,,0.6141,,209.4505,209.4505,0.8171875,0.012452952,0,0,0,,0,66,66,448,1,crusa,,,,
,,,,,,5c9ebf067114700016da2813,676192165fb32c2e1fb7aee6,67d1559a2096bb6d09b411d0,2025-03-12_04h37.01.473,Tarea de decisión léxica,2024.2.5,MacIntel,59.88023952,,,,,,,,,,,,,,,,,,,,,,,,209.4517,210.7349,l,1,0.5886,1,210.735,211.2255,,,,,,86,MAS,NOWORD,DIS,150,babo,,la,,0.5886,,211.2256,211.2256,0.8171875,0.012452952,0,0,0,,0,67,67,85,1,lago,,,,
,,,,,,5c9ebf067114700016da2813,676192165fb32c2e1fb7aee6,67d1559a2096bb6d09b411d0,2025-03-12_04h37.01.473,Tarea de decisión léxica,2024.2.5,MacIntel,59.88023952,,,,,,,,,,,,,,,,,,,,,,,,211.2266,212.5032,l,1,0.6001,1,212.5033,213.0041,,,,,,8,MAS,NOWORD,AGR,150,nivo,,el,,0.6001,,213.0042,213.0044,0.8171875,0.012452952,0,0,0,,0,68,68,7,1,hijo,,,,
,,,,,,5c9ebf067114700016da2813,676192165fb32c2e1fb7aee6,67d1559a2096bb6d09b411d0,2025-03-12_04h37.01.473,Tarea de decisión léxica,2024.2.5,MacIntel,59.88023952,,,,,,,,,,,,,,,,,,,,,,,,213.0055,214.2277,l,1,0.5436,1,214.2277,214.7191,,,,,,214,FEM,NOWORD,DIS,150,bana,,el,,0.5436,,214.72,214.7209,0.8171875,0.012452952,0,0,0,,0,69,69,213,1,rama,,,,
,,,,,,5c9ebf067114700016da2813,676192165fb32c2e1fb7aee6,67d1559a2096bb6d09b411d0,2025-03-12_04h37.01.473,Tarea de decisión léxica,2024.2.5,MacIntel,59.88023952,,,,,,,,,,,,,,,,,,,,,,,,214.7218,216.1226,a,0,0.7348,0,216.1243,216.6243,,,,,,468,MAS,NOWORD,AGR,150,peiso,,el,,0.7348,,216.6244,216.6246,0.8171875,0.012452952,0,0,0,,0,70,70,467,1,piano,,,,
,,,,,,5c9ebf067114700016da2813,676192165fb32c2e1fb7aee6,67d1559a2096bb6d09b411d0,2025-03-12_04h37.01.473,Tarea de decisión léxica,2024.2.5,MacIntel,59.88023952,,,,,,,,,,,,,,,,,,,,,,,,216.6259,217.8587,l,1,0.5618,1,217.8595,218.3502,,,,,,112,MAS,NOWORD,AGR,150,siro,,el,,0.5618,,218.3503,218.3503,0.8171875,0.012452952,0,0,0,,0,71,71,111,1,muro,,,,
,,,,,,5c9ebf067114700016da2813,676192165fb32c2e1fb7aee6,67d1559a2096bb6d09b411d0,2025-03-12_04h37.01.473,Tarea de decisión léxica,2024.2.5,MacIntel,59.88023952,,,,,,,,,,,,,,,,,,,,,,,,218.3514,219.5426,a,1,0.5262,1,219.5427,220.0428,,,,,,211,FEM,WORD,AGR,150,joya,,la,,0.5262,,220.0428,220.0429,0.8171875,0.012452952,0,0,0,,0,72,72,210,1,joad,,,,
,,,,,,5c9ebf067114700016da2813,676192165fb32c2e1fb7aee6,67d1559a2096bb6d09b411d0,2025-03-12_04h37.01.473,Tarea de decisión léxica,2024.2.5,MacIntel,59.88023952,,,,,,,,,,,,,,,,,,,,,,,,220.0437,221.3012,a,1,0.6002,1,221.3013,221.7942,,,,,,21,MAS,WORD,DIS,150,plan,,la,,0.6002,,221.7942,221.7943,0.8171875,0.012452952,0,0,0,,0,73,73,20,1,blan,,,,
,,,,,,5c9ebf067114700016da2813,676192165fb32c2e1fb7aee6,67d1559a2096bb6d09b411d0,2025-03-12_04h37.01.473,Tarea de decisión léxica,2024.2.5,MacIntel,59.88023952,,,,,,,,,,,,,,,,,,,,,,,,221.7951,223.196,l,1,0.7392,1,223.1961,223.6957,,,,,,2,FEM,NOWORD,DIS,150,mada,,el,,0.7392,,223.697,223.6977,0.8171875,0.012452952,0,0,0,,0,74,74,1,1,casa,,,,
,,,,,,5c9ebf067114700016da2813,676192165fb32c2e1fb7aee6,67d1559a2096bb6d09b411d0,2025-03-12_04h37.01.473,Tarea de decisión léxica,2024.2.5,MacIntel,59.88023952,,,,,,,,,,,,,,,,,,,,,,,,223.6986,224.8298,l,1,0.4514,1,224.8299,225.3299,,,,,,222,FEM,NOWORD,DIS,150,puca,,el,,0.4514,,225.33,225.3301,0.8171875,0.012452952,0,0,0,,0,75,75,221,1,mula,,,,
,,,,,,5c9ebf067114700016da2813,676192165fb32c2e1fb7aee6,67d1559a2096bb6d09b411d0,2025-03-12_04h37.01.473,Tarea de decisión léxica,2024.2.5,MacIntel,59.88023952,,,,,,,,,,,,,,,,,,,,,,,,225.331,226.4475,l,1,0.4534,1,226.4476,226.948,,,,,,232,FEM,NOWORD,AGR,150,heta,,la,,0.4534,,226.948,226.948,0.8171875,0.012452952,0,0,0,,0,76,76,231,1,bota,,,,
,,,,,,5c9ebf067114700016da2813,676192165fb32c2e1fb7aee6,67d1559a2096bb6d09b411d0,2025-03-12_04h37.01.473,Tarea de decisión léxica,2024.2.5,MacIntel,59.88023952,,,,,,,,,,,,,,,,,,,,,,,,226.9491,228.1824,l,1,0.568,1,228.1825,228.6829,,,,,,136,MAS,NOWORD,AGR,150,geso,,el,,0.568,,228.683,228.6831,0.8171875,0.012452952,0,0,0,,0,77,77,135,1,tubo,,,,
,,,,,,5c9ebf067114700016da2813,676192165fb32c2e1fb7aee6,67d1559a2096bb6d09b411d0,2025-03-12_04h37.01.473,Tarea de decisión léxica,2024.2.5,MacIntel,59.88023952,,,,,,,,,,,,,,,,,,,,,,,,228.684,229.8391,a,1,0.4994,1,229.8392,230.3343,,,,,,69,FEM,WORD,DIS,150,zona,,el,,0.4994,,230.3343,230.3344,0.8171875,0.012452952,0,0,0,,0,78,78,68,1,ñola,,,,
,,,,,,5c9ebf067114700016da2813,676192165fb32c2e1fb7aee6,67d1559a2096bb6d09b411d0,2025-03-12_04h37.01.473,Tarea de decisión léxica,2024.2.5,MacIntel,59.88023952,,,,,,,,,,,,,,,,,,,,,,,,230.3354,231.5519,l,1,0.5508,1,231.552,232.0528,,,,,,126,MAS,NOWORD,DIS,150,vudo,,la,,0.5508,,232.0539,232.0546,0.8171875,0.012452952,0,0,0,,0,79,79,125,1,lujo,,,,
,,,,,,5c9ebf067114700016da2813,676192165fb32c2e1fb7aee6,67d1559a2096bb6d09b411d0,2025-03-12_04h37.01.473,Tarea de decisión léxica,2024.2.5,MacIntel,59.88023952,,,,,,,,,,,,,,,,,,,,,,,,232.0553,233.3035,l,1,0.5699,1,233.3036,233.8042,,,,,,416,FEM,NOWORD,AGR,150,juira,,la,,0.5699,,233.8043,233.8043,0.8171875,0.012452952,0,0,0,,0,80,80,415,1,jaula,,,,
,,,,,,5c9ebf067114700016da2813,676192165fb32c2e1fb7aee6,67d1559a2096bb6d09b411d0,2025-03-12_04h37.01.473,Tarea de decisión léxica,2024.2.5,MacIntel,59.88023952,,,,,,,,,,,,,,,,,,,,,,,,233.8052,235.3768,a,1,0.8977,1,235.3769,235.8682,,,,,,309,FEM,WORD,DIS,150,silla,,el,,0.8977,,235.8683,235.8684,0.8171875,0.012452952,0,0,0,,0,81,81,308,1,tirra,,,,
,,,,,,5c9ebf067114700016da2813,676192165fb32c2e1fb7aee6,67d1559a2096bb6d09b411d0,2025-03-12_04h37.01.473,Tarea de decisión léxica,2024.2.5,MacIntel,59.88023952,,,,,,,,,,,,,,,,,,,,,,,,235.8692,237.908,a,1,1.3632,1,237.9081,238.4137,,,,,,283,MAS,WORD,AGR,150,sueño,,el,,1.3632,,238.4137,238.4138,0.8171875,0.012452952,0,0,0,,0,82,82,282,1,tuevo,,,,
,,,,,,5c9ebf067114700016da2813,676192165fb32c2e1fb7aee6,67d1559a2096bb6d09b411d0,2025-03-12_04h37.01.473,Tarea de decisión léxica,2024.2.5,MacIntel,59.88023952,,,,,,,,,,,,,,,,,,,,,,,,238.4147,239.5127,a,1,0.4289,1,239.5127,239.9989,,,,,,343,FEM,WORD,AGR,150,plata,,la,,0.4289,,240,240.001,0.8171875,0.012452952,0,0,0,,0,83,83,342,1,trada,,,,
,,,,,,5c9ebf067114700016da2813,676192165fb32c2e1fb7aee6,67d1559a2096bb6d09b411d0,2025-03-12_04h37.01.473,Tarea de decisión léxica,2024.2.5,MacIntel,59.88023952,,,,,,,,,,,,,,,,,,,,,,,,240.0018,241.3607,a,1,0.6867,1,241.3609,241.8605,,,,,,413,FEM,WORD,DIS,150,rueda,,el,,0.6867,,241.8605,241.8607,0.8171875,0.012452952,0,0,0,,0,84,84,412,1,bieda,,,,
,,,,,,5c9ebf067114700016da2813,676192165fb32c2e1fb7aee6,67d1559a2096bb6d09b411d0,2025-03-12_04h37.01.473,Tarea de decisión léxica,2024.2.5,MacIntel,59.88023952,,,,,,,,,,,,,,,,,,,,,,,,241.8617,243.0313,a,1,0.4984,1,243.0314,243.5293,,,,,,151,MAS,WORD,AGR,150,tomo,,el,,0.4984,,243.5293,243.5294,0.8171875,0.012452952,0,0,0,,0,85,85,150,1,sogo,,,,
,,,,,,5c9ebf067114700016da2813,676192165fb32c2e1fb7aee6,67d1559a2096bb6d09b411d0,2025-03-12_04h37.01.473,Tarea de decisión léxica,2024.2.5,MacIntel,59.88023952,,,,,,,,,,,,,,,,,,,,,,,,243.5302,245.122,l,1,0.9201,1,245.122,245.6142,,,,,,444,MAS,NOWORD,AGR,150,taron,,el,,0.9201,,245.6143,245.6144,0.8171875,0.012452952,0,0,0,,0,86,86,443,1,salón,,,,
,,,,,,5c9ebf067114700016da2813,676192165fb32c2e1fb7aee6,67d1559a2096bb6d09b411d0,2025-03-12_04h37.01.473,Tarea de decisión léxica,2024.2.5,MacIntel,59.88023952,,,,,,,,,,,,,,,,,,,,,,,,245.6154,246.9989,a,1,0.7053,1,246.999,247.5014,,,,,,181,FEM,WORD,DIS,150,seda,,el,,0.7053,,247.5014,247.5016,0.8171875,0.012452952,0,0,0,,0,87,87,180,1,teda,,,,
,,,,,,5c9ebf067114700016da2813,676192165fb32c2e1fb7aee6,67d1559a2096bb6d09b411d0,2025-03-12_04h37.01.473,Tarea de decisión léxica,2024.2.5,MacIntel,59.88023952,,,,,,,,,,,,,,,,,,,,,,,,247.5023,249.0673,l,1,0.8866,1,249.0673,249.5685,,,,,,296,MAS,NOWORD,AGR,150,goler,,el,,0.8866,,249.5696,249.5703,0.8171875,0.012452952,0,0,0,,0,88,88,295,1,dolor,,,,
,,,,,,5c9ebf067114700016da2813,676192165fb32c2e1fb7aee6,67d1559a2096bb6d09b411d0,2025-03-12_04h37.01.473,Tarea de decisión léxica,2024.2.5,MacIntel,59.88023952,,,,,,,,,,,,,,,,,,,,,,,,249.5712,251.0521,l,1,0.8092,1,251.0521,251.5548,,,,,,314,MAS,NOWORD,DIS,150,govio,,la,,0.8092,,251.5548,251.5549,0.8171875,0.012452952,0,0,0,,0,89,89,313,1,novio,,,,
,,,,,,5c9ebf067114700016da2813,676192165fb32c2e1fb7aee6,67d1559a2096bb6d09b411d0,2025-03-12_04h37.01.473,Tarea de decisión léxica,2024.2.5,MacIntel,59.88023952,,,,,,,,,,,,,,,,,,,,,,,,251.5559,252.7368,l,1,0.5022,1,252.7368,253.2371,,,,,,46,FEM,NOWORD,DIS,150,pema,,el,,0.5022,,253.2371,253.2372,0.8171875,0.012452952,0,0,0,,0,90,90,45,1,mesa,,,,
,,,,,,5c9ebf067114700016da2813,676192165fb32c2e1fb7aee6,67d1559a2096bb6d09b411d0,2025-03-12_04h37.01.473,Tarea de decisión léxica,2024.2.5,MacIntel,59.88023952,,,,,,,,,,,,,,,,,,,,,,,,253.2386,254.4545,l,1,0.5527,1,254.4545,254.9549,,,,,,142,FEM,NOWORD,DIS,150,sina,,el,,0.5527,,254.955,254.9551,0.8171875,0.012452952,0,0,0,,0,91,91,141,1,cruz,,,,
,,,,,,5c9ebf067114700016da2813,676192165fb32c2e1fb7aee6,67d1559a2096bb6d09b411d0,2025-03-12_04h37.01.473,Tarea de decisión léxica,2024.2.5,MacIntel,59.88023952,,,,,,,,,,,,,,,,,,,,,,,,254.9557,256.2564,l,1,0.6241,1,256.2564,256.7559,,,,,,22,MAS,NOWORD,DIS,150,blan,,la,,0.6241,,256.7559,256.756,0.8171875,0.012452952,0,0,0,,0,92,92,21,1,plan,,,,
,,,,,,5c9ebf067114700016da2813,676192165fb32c2e1fb7aee6,67d1559a2096bb6d09b411d0,2025-03-12_04h37.01.473,Tarea de decisión léxica,2024.2.5,MacIntel,59.88023952,,,,,,,,,,,,,,,,,,,,,,,,256.7568,258.2425,a,0,0.8301,0,258.2431,258.7413,,,,,,310,FEM,NOWORD,DIS,150,tirra,,el,,0.8301,,258.7421,258.743,0.8171875,0.012452952,0,0,0,,0,93,93,309,1,silla,,,,
,,,,,,5c9ebf067114700016da2813,676192165fb32c2e1fb7aee6,67d1559a2096bb6d09b411d0,2025-03-12_04h37.01.473,Tarea de decisión léxica,2024.2.5,MacIntel,59.88023952,,,,,,,,,,,,,,,,,,,,,,,,258.7437,259.9761,l,0,0.5498,0,259.9762,260.4765,,,,,,159,MAS,WORD,AGR,150,giro,,el,,0.5498,,260.4766,260.4767,0.8171875,0.012452952,0,0,0,,0,94,94,158,1,bilo,,,,
,,,,,,5c9ebf067114700016da2813,676192165fb32c2e1fb7aee6,67d1559a2096bb6d09b411d0,2025-03-12_04h37.01.473,Tarea de decisión léxica,2024.2.5,MacIntel,59.88023952,,,,,,,,,,,,,,,,,,,,,,,,260.4774,261.8104,a,0,0.6393,0,261.8105,262.3105,,,,,,110,MAS,NOWORD,DIS,150,suno,,la,,0.6393,,262.3105,262.3105,0.8171875,0.012452952,0,0,0,,0,95,95,109,1,rayo,,,,
,,,,,,5c9ebf067114700016da2813,676192165fb32c2e1fb7aee6,67d1559a2096bb6d09b411d0,2025-03-12_04h37.01.473,Tarea de decisión léxica,2024.2.5,MacIntel,59.88023952,,,,,,,,,,,,,,,,,,,,,,,,262.3114,263.7622,a,1,0.7853,1,263.7629,264.2621,,,,,,133,FEM,WORD,DIS,150,vaca,,el,,0.7853,,264.2622,264.2623,0.8171875,0.012452952,0,0,0,,0,96,96,132,1,vesa,,,,
,,,,,,5c9ebf067114700016da2813,676192165fb32c2e1fb7aee6,67d1559a2096bb6d09b411d0,2025-03-12_04h37.01.473,Tarea de decisión léxica,2024.2.5,MacIntel,59.88023952,,,,,,,,,,,,,,,,,,,,,,,,264.2631,265.4635,a,1,0.5356,1,265.4635,265.9639,,,,,,387,FEM,WORD,AGR,150,crema,,la,,0.5356,,265.9639,265.964,0.8171875,0.012452952,0,0,0,,0,97,97,386,1,bresa,,,,
,,,,,,5c9ebf067114700016da2813,676192165fb32c2e1fb7aee6,67d1559a2096bb6d09b411d0,2025-03-12_04h37.01.473,Tarea de decisión léxica,2024.2.5,MacIntel,59.88023952,,,,,,,,,,,,,,,,,,,,,,,,265.9647,267.4824,l,1,0.8437,1,267.4824,267.9823,,,,,,442,FEM,NOWORD,DIS,150,telza,,el,,0.8437,,267.9833,267.9843,0.8171875,0.012452952,0,0,0,,0,98,98,441,1,selva,,,,
,,,,,,5c9ebf067114700016da2813,676192165fb32c2e1fb7aee6,67d1559a2096bb6d09b411d0,2025-03-12_04h37.01.473,Tarea de decisión léxica,2024.2.5,MacIntel,59.88023952,,,,,,,,,,,,,,,,,,,,,,,,267.985,269.3831,l,1,0.7262,1,269.3832,269.8842,,,,,,362,FEM,NOWORD,DIS,150,solle,,el,,0.7262,,269.8843,269.8843,0.8171875,0.012452952,0,0,0,,0,99,99,361,1,torre,,,,
,,,,,,5c9ebf067114700016da2813,676192165fb32c2e1fb7aee6,67d1559a2096bb6d09b411d0,2025-03-12_04h37.01.473,Tarea de decisión léxica,2024.2.5,MacIntel,59.88023952,,,,,,,,,,,,,,,,,,,,,,,,269.8855,271.0015,l,1,0.4446,1,271.0016,271.502,,,,,,374,FEM,NOWORD,DIS,150,pogza,,el,,0.4446,,271.502,271.5021,0.8171875,0.012452952,0,0,0,,0,100,100,373,1,pizza,,,,
,,,,,,5c9ebf067114700016da2813,676192165fb32c2e1fb7aee6,67d1559a2096bb6d09b411d0,2025-03-12_04h37.01.473,Tarea de decisión léxica,2024.2.5,MacIntel,59.88023952,,,,,,,,,,,,,,,,,,,,,,,,271.5029,273.0535,a,1,0.8659,1,273.0536,273.5534,,,,,,373,FEM,WORD,DIS,150,pizza,,el,,0.8659,,273.5534,273.5535,0.8171875,0.012452952,0,0,0,,0,101,101,372,1,pogza,,,,
,,,,,,5c9ebf067114700016da2813,676192165fb32c2e1fb7aee6,67d1559a2096bb6d09b411d0,2025-03-12_04h37.01.473,Tarea de decisión léxica,2024.2.5,MacIntel,59.88023952,,,,,,,,,,,,,,,,,,,,,,,,273.5543,275.4894,a,0,1.2621,0,275.4901,275.9902,,,,,,238,MAS,NOWORD,DIS,150,huco,,la,,1.2621,,275.9903,275.9903,0.8171875,0.012452952,0,0,0,,0,102,102,237,1,nudo,,,,
,,,,,,5c9ebf067114700016da2813,676192165fb32c2e1fb7aee6,67d1559a2096bb6d09b411d0,2025-03-12_04h37.01.473,Tarea de decisión léxica,2024.2.5,MacIntel,59.88023952,,,,,,,,,,,,,,,,,,,,,,,,275.9911,277.4732,l,1,0.785,1,277.474,277.9744,,,,,,246,FEM,NOWORD,DIS,150,pafle,,el,,0.785,,277.976,277.9774,0.8171875,0.012452952,0,0,0,,0,103,103,245,1,madre,,,,
,,,,,,5c9ebf067114700016da2813,676192165fb32c2e1fb7aee6,67d1559a2096bb6d09b411d0,2025-03-12_04h37.01.473,Tarea de decisión léxica,2024.2.5,MacIntel,59.88023952,,,,,,,,,,,,,,,,,,,,,,,,277.9783,279.6584,a,1,0.998,1,279.6584,280.1586,,,,,,321,MAS,WORD,DIS,150,banco,,la,,0.998,,280.1586,280.1587,0.8171875,0.012452952,0,0,0,,0,104,104,320,1,rarco,,,,
,,,,,,5c9ebf067114700016da2813,676192165fb32c2e1fb7aee6,67d1559a2096bb6d09b411d0,2025-03-12_04h37.01.473,Tarea de decisión léxica,2024.2.5,MacIntel,59.88023952,,,,,,,,,,,,,,,,,,,,,,,,280.1597,281.5933,l,1,0.7437,1,281.5933,282.094,,,,,,262,MAS,NOWORD,DIS,150,titio,,la,,0.7437,,282.0941,282.0942,0.8171875,0.012452952,0,0,0,,0,105,105,261,1,sitio,,,,
,,,,,,5c9ebf067114700016da2813,676192165fb32c2e1fb7aee6,67d1559a2096bb6d09b411d0,2025-03-12_04h37.01.473,Tarea de decisión léxica,2024.2.5,MacIntel,59.88023952,,,,,,,,,,,,,,,,,,,,,,,,282.0951,283.6614,a,1,0.9001,1,283.6616,284.162,,,,,,271,FEM,WORD,AGR,150,señal,,la,,0.9001,,284.162,284.1621,0.8171875,0.012452952,0,0,0,,0,106,106,270,1,refal,,,,
,,,,,,5c9ebf067114700016da2813,676192165fb32c2e1fb7aee6,67d1559a2096bb6d09b411d0,2025-03-12_04h37.01.473,Tarea de decisión léxica,2024.2.5,MacIntel,59.88023952,,,,,,,,,,,,,,,,,,,,,,,,284.163,285.6299,l,0,0.7629,0,285.6307,286.1302,,,,,,235,FEM,WORD,AGR,150,grúa,,la,,0.7629,,286.1311,286.1319,0.8171875,0.012452952,0,0,0,,0,107,107,234,1,tria,,,,
,,,,,,5c9ebf067114700016da2813,676192165fb32c2e1fb7aee6,67d1559a2096bb6d09b411d0,2025-03-12_04h37.01.473,Tarea de decisión léxica,2024.2.5,MacIntel,59.88023952,,,,,,,,,,,,,,,,,,,,,,,,286.1329,287.5833,l,1,0.7801,1,287.5843,288.0822,,,,,,342,MAS,NOWORD,DIS,150,daror,,la,,0.7801,,288.0823,288.0824,0.8171875,0.012452952,0,0,0,,0,108,108,341,1,valor,,,,
,,,,,,5c9ebf067114700016da2813,676192165fb32c2e1fb7aee6,67d1559a2096bb6d09b411d0,2025-03-12_04h37.01.473,Tarea de decisión léxica,2024.2.5,MacIntel,59.88023952,,,,,,,,,,,,,,,,,,,,,,,,288.0833,289.2958,l,0,0.5491,0,289.2965,289.8023,,,,,,237,MAS,WORD,DIS,150,nudo,,la,,0.5491,,289.8025,289.8026,0.8171875,0.012452952,0,0,0,,0,109,109,236,1,huco,,,,
,,,,,,5c9ebf067114700016da2813,676192165fb32c2e1fb7aee6,67d1559a2096bb6d09b411d0,2025-03-12_04h37.01.473,Tarea de decisión léxica,2024.2.5,MacIntel,59.88023952,,,,,,,,,,,,,,,,,,,,,,,,289.8035,291.2181,l,1,0.7465,1,291.2188,291.7192,,,,,,364,FEM,NOWORD,AGR,150,veida,,la,,0.7465,,291.7193,291.7194,0.8171875,0.012452952,0,0,0,,0,110,110,363,1,deuda,,,,
,,,,,,5c9ebf067114700016da2813,676192165fb32c2e1fb7aee6,67d1559a2096bb6d09b411d0,2025-03-12_04h37.01.473,Tarea de decisión léxica,2024.2.5,MacIntel,59.88023952,,,,,,,,,,,,,,,,,,,,,,,,291.7206,292.92,l,1,0.509,1,292.9201,293.4222,,,,,,332,MAS,NOWORD,AGR,150,erato,,el,,0.509,,293.4222,293.4223,0.8171875,0.012452952,0,0,0,,0,111,111,331,1,éxito,,,,
,,,,,,5c9ebf067114700016da2813,676192165fb32c2e1fb7aee6,67d1559a2096bb6d09b411d0,2025-03-12_04h37.01.473,Tarea de decisión léxica,2024.2.5,MacIntel,59.88023952,,,,,,,,,,,,,,,,,,,,,,,,293.423,294.8719,a,1,0.7707,1,294.872,295.3739,,,,,,107,MAS,WORD,AGR,150,saco,,el,,0.7707,,295.3751,295.376,0.8171875,0.012452952,0,0,0,,0,112,112,106,1,raot,,,,
,,,,,,5c9ebf067114700016da2813,676192165fb32c2e1fb7aee6,67d1559a2096bb6d09b411d0,2025-03-12_04h37.01.473,Tarea de decisión léxica,2024.2.5,MacIntel,59.88023952,,,,,,,,,,,,,,,,,,,,,,,,295.3767,296.8728,a,1,0.8188,1,296.8729,297.374,,,,,,475,FEM,WORD,AGR,150,manta,,la,,0.8188,,297.374,297.3741,0.8171875,0.012452952,0,0,0,,0,113,113,474,1,mucta,,,,
,,,,,,5c9ebf067114700016da2813,676192165fb32c2e1fb7aee6,67d1559a2096bb6d09b411d0,2025-03-12_04h37.01.473,Tarea de decisión léxica,2024.2.5,MacIntel,59.88023952,,,,,,,,,,,,,,,,,,,,,,,,297.375,298.7578,a,1,0.7005,1,298.7579,299.2586,,,,,,167,FEM,WORD,AGR,150,jefa,,la,,0.7005,,299.2586,299.2587,0.8171875,0.012452952,0,0,0,,0,114,114,166,1,zifa,,,,
,,,,,,5c9ebf067114700016da2813,676192165fb32c2e1fb7aee6,67d1559a2096bb6d09b411d0,2025-03-12_04h37.01.473,Tarea de decisión léxica,2024.2.5,MacIntel,59.88023952,,,,,,,,,,,,,,,,,,,,,,,,299.2597,300.9929,l,1,1.0466,1,300.993,301.493,,,,,,166,FEM,NOWORD,DIS,150,dera,,el,,1.0466,,301.4931,301.4932,0.8171875,0.012452952,0,0,0,,0,115,115,165,1,vela,,,,
,,,,,,5c9ebf067114700016da2813,676192165fb32c2e1fb7aee6,67d1559a2096bb6d09b411d0,2025-03-12_04h37.01.473,Tarea de decisión léxica,2024.2.5,MacIntel,59.88023952,,,,,,,,,,,,,,,,,,,,,,,,301.4941,302.8781,a,1,0.7197,1,302.8781,303.3778,,,,,,295,MAS,WORD,AGR,150,dolor,,el,,0.7197,,303.3778,303.3779,0.8171875,0.012452952,0,0,0,,0,116,116,294,1,goler,,,,
,,,,,,5c9ebf067114700016da2813,676192165fb32c2e1fb7aee6,67d1559a2096bb6d09b411d0,2025-03-12_04h37.01.473,Tarea de decisión léxica,2024.2.5,MacIntel,59.88023952,,,,,,,,,,,,,,,,,,,,,,,,303.3786,304.7465,l,1,0.7014,1,304.7465,305.2463,,,,,,98,MAS,NOWORD,DIS,150,fopo,,la,,0.7014,,305.2471,305.2479,0.8171875,0.012452952,0,0,0,,0,117,117,97,1,mono,,,,
,,,,,,5c9ebf067114700016da2813,676192165fb32c2e1fb7aee6,67d1559a2096bb6d09b411d0,2025-03-12_04h37.01.473,Tarea de decisión léxica,2024.2.5,MacIntel,59.88023952,,,,,,,,,,,,,,,,,,,,,,,,305.2485,306.7486,a,1,0.817,1,306.7488,307.2482,,,,,,479,MAS,WORD,AGR,150,rumbo,,el,,0.817,,307.2483,307.2484,0.8171875,0.012452952,0,0,0,,0,118,118,478,1,rimpo,,,,
,,,,,,5c9ebf067114700016da2813,676192165fb32c2e1fb7aee6,67d1559a2096bb6d09b411d0,2025-03-12_04h37.01.473,Tarea de decisión léxica,2024.2.5,MacIntel,59.88023952,,,,,,,,,,,,,,,,,,,,,,,,307.2492,308.5662,a,1,0.6304,1,308.5662,309.0661,,,,,,137,MAS,WORD,DIS,150,nene,,la,,0.6304,,309.0661,309.0662,0.8171875,0.012452952,0,0,0,,0,119,119,136,1,pamo,,,,
,,,,,,5c9ebf067114700016da2813,676192165fb32c2e1fb7aee6,67d1559a2096bb6d09b411d0,2025-03-12_04h37.01.473,Tarea de decisión léxica,2024.2.5,MacIntel,59.88023952,,,,,,,,,,,,,,,,,,,,,,,,309.0669,310.6006,l,1,0.8491,1,310.6007,311.1014,,,,,,432,MAS,NOWORD,AGR,150,tetor,,el,,0.8491,,311.1015,311.1016,0.8171875,0.012452952,0,0,0,,0,120,120,431,1,motor,,,,
,,,,,,5c9ebf067114700016da2813,676192165fb32c2e1fb7aee6,67d1559a2096bb6d09b411d0,2025-03-12_04h37.01.473,Tarea de decisión léxica,2024.2.5,MacIntel,59.88023952,,,,,,,,,,,,,,,,,,,,,,,,311.1025,312.6137,l,1,0.8339,1,312.6137,313.1155,,,,,,184,FEM,NOWORD,AGR,150,raad,,la,,0.8339,,313.1156,313.1156,0.8171875,0.012452952,0,0,0,,0,121,121,183,1,raya,,,,
,,,,,,5c9ebf067114700016da2813,676192165fb32c2e1fb7aee6,67d1559a2096bb6d09b411d0,2025-03-12_04h37.01.473,Tarea de decisión léxica,2024.2.5,MacIntel,59.88023952,,,,,,,,,,,,,,,,,,,,,,,,313.1164,314.3702,l,1,0.5856,1,314.3702,314.8708,,,,,,338,MAS,NOWORD,DIS,150,nuejo,,la,,0.5856,,314.8717,314.8724,0.8171875,0.012452952,0,0,0,,0,122,122,337,1,huevo,,,,
,,,,,,5c9ebf067114700016da2813,676192165fb32c2e1fb7aee6,67d1559a2096bb6d09b411d0,2025-03-12_04h37.01.473,Tarea de decisión léxica,2024.2.5,MacIntel,59.88023952,,,,,,,,,,,,,,,,,,,,,,,,314.8732,316.3223,l,1,0.767,1,316.3223,316.8224,,,,,,298,MAS,NOWORD,DIS,150,brubo,,la,,0.767,,316.8224,316.8225,0.8171875,0.012452952,0,0,0,,0,123,123,297,1,grupo,,,,
,,,,,,5c9ebf067114700016da2813,676192165fb32c2e1fb7aee6,67d1559a2096bb6d09b411d0,2025-03-12_04h37.01.473,Tarea de decisión léxica,2024.2.5,MacIntel,59.88023952,,,,,,,,,,,,,,,,,,,,,,,,316.8236,318.0232,l,0,0.5197,0,318.024,318.524,,,,,,99,MAS,WORD,AGR,150,lobo,,el,,0.5197,,318.5241,318.5242,0.8171875,0.012452952,0,0,0,,0,124,124,98,1,soro,,,,
,,,,,,5c9ebf067114700016da2813,676192165fb32c2e1fb7aee6,67d1559a2096bb6d09b411d0,2025-03-12_04h37.01.473,Tarea de decisión léxica,2024.2.5,MacIntel,59.88023952,,,,,,,,,,,,,,,,,,,,,,,,318.5251,319.8584,a,1,0.6676,1,319.8593,320.3582,,,,,,105,FEM,WORD,DIS,150,sopa,,el,,0.6676,,320.3584,320.3584,0.8171875,0.012452952,0,0,0,,0,125,125,104,1,vina,,,,
,,,,,,5c9ebf067114700016da2813,676192165fb32c2e1fb7aee6,67d1559a2096bb6d09b411d0,2025-03-12_04h37.01.473,Tarea de decisión léxica,2024.2.5,MacIntel,59.88023952,,,,,,,,,,,,,,,,,,,,,,,,320.3593,322.0605,l,1,1.0169,1,322.0606,322.5605,,,,,,430,FEM,NOWORD,DIS,150,tenta,,el,,1.0169,,322.5605,322.5606,0.8171875,0.012452952,0,0,0,,0,126,126,429,1,tarta,,,,
,,,,,,5c9ebf067114700016da2813,676192165fb32c2e1fb7aee6,67d1559a2096bb6d09b411d0,2025-03-12_04h37.01.473,Tarea de decisión léxica,2024.2.5,MacIntel,59.88023952,,,,,,,,,,,,,,,,,,,,,,,,322.5615,323.8778,a,1,0.6565,1,323.8779,324.3784,,,,,,77,MAS,WORD,DIS,150,loco,,la,,0.6565,,324.3793,324.3801,0.8171875,0.012452952,0,0,0,,0,127,127,76,1,fodo,,,,
,,,,,,5c9ebf067114700016da2813,676192165fb32c2e1fb7aee6,67d1559a2096bb6d09b411d0,2025-03-12_04h37.01.473,Tarea de decisión léxica,2024.2.5,MacIntel,59.88023952,,,,,,,,,,,,,,,,,,,,,,,,324.3808,325.8297,a,0,0.7365,0,325.8304,326.33,,,,,,206,FEM,NOWORD,DIS,150,bara,,el,,0.7365,,326.3301,326.3301,0.8171875,0.012452952,0,0,0,,0,128,128,205,1,rana,,,,
,,,,,,5c9ebf067114700016da2813,676192165fb32c2e1fb7aee6,67d1559a2096bb6d09b411d0,2025-03-12_04h37.01.473,Tarea de decisión léxica,2024.2.5,MacIntel,59.88023952,,,,,,,,,,,,,,,,,,,,,,,,326.331,327.8015,l,1,0.8072,1,327.8022,328.2981,,,,,,288,FEM,NOWORD,AGR,150,fosta,,la,,0.8072,,328.2982,328.2982,0.8171875,0.012452952,0,0,0,,0,129,129,287,1,lista,,,,
,,,,,,5c9ebf067114700016da2813,676192165fb32c2e1fb7aee6,67d1559a2096bb6d09b411d0,2025-03-12_04h37.01.473,Tarea de decisión léxica,2024.2.5,MacIntel,59.88023952,,,,,,,,,,,,,,,,,,,,,,,,328.2991,329.6336,a,1,0.6746,1,329.6336,330.1344,,,,,,317,FEM,WORD,DIS,150,playa,,el,,0.6746,,330.1345,330.1346,0.8171875,0.012452952,0,0,0,,0,130,130,316,1,plaad,,,,
,,,,,,5c9ebf067114700016da2813,676192165fb32c2e1fb7aee6,67d1559a2096bb6d09b411d0,2025-03-12_04h37.01.473,Tarea de decisión léxica,2024.2.5,MacIntel,59.88023952,,,,,,,,,,,,,,,,,,,,,,,,330.1353,331.4841,a,1,0.6714,1,331.4842,331.9847,,,,,,231,FEM,WORD,AGR,150,bota,,la,,0.6714,,331.9858,331.9865,0.8171875,0.012452952,0,0,0,,0,131,131,230,1,heta,,,,
,,,,,,5c9ebf067114700016da2813,676192165fb32c2e1fb7aee6,67d1559a2096bb6d09b411d0,2025-03-12_04h37.01.473,Tarea de decisión léxica,2024.2.5,MacIntel,59.88023952,,,,,,,,,,,,,,,,,,,,,,,,331.9873,333.353,a,1,0.6673,1,333.3531,333.8536,,,,,,113,FEM,WORD,DIS,150,miel,,el,,0.6673,,333.8536,333.8538,0.8171875,0.012452952,0,0,0,,0,132,132,112,1,tada,,,,
,,,,,,5c9ebf067114700016da2813,676192165fb32c2e1fb7aee6,67d1559a2096bb6d09b411d0,2025-03-12_04h37.01.473,Tarea de decisión léxica,2024.2.5,MacIntel,59.88023952,,,,,,,,,,,,,,,,,,,,,,,,333.8547,335.037,a,1,0.5007,1,335.0371,335.5374,,,,,,165,FEM,WORD,DIS,150,vela,,el,,0.5007,,335.5375,335.5376,0.8171875,0.012452952,0,0,0,,0,133,133,164,1,dera,,,,
,,,,,,5c9ebf067114700016da2813,676192165fb32c2e1fb7aee6,67d1559a2096bb6d09b411d0,2025-03-12_04h37.01.473,Tarea de decisión léxica,2024.2.5,MacIntel,59.88023952,,,,,,,,,,,,,,,,,,,,,,,,335.5384,336.5719,a,1,0.3701,1,336.5719,337.0728,,,,,,139,MAS,WORD,AGR,150,mago,,el,,0.3701,,337.0729,337.073,0.8171875,0.012452952,0,0,0,,0,134,134,138,1,nila,,,,
,,,,,,5c9ebf067114700016da2813,676192165fb32c2e1fb7aee6,67d1559a2096bb6d09b411d0,2025-03-12_04h37.01.473,Tarea de decisión léxica,2024.2.5,MacIntel,59.88023952,,,,,,,,,,,,,,,,,,,,,,,,337.0739,338.2232,a,1,0.4745,1,338.2233,338.7239,,,,,,433,MAS,WORD,DIS,150,disco,,la,,0.4745,,338.724,338.724,0.8171875,0.012452952,0,0,0,,0,135,135,432,1,durco,,,,
,,,,,,5c9ebf067114700016da2813,676192165fb32c2e1fb7aee6,67d1559a2096bb6d09b411d0,2025-03-12_04h37.01.473,Tarea de decisión léxica,2024.2.5,MacIntel,59.88023952,,,,,,,,,,,,,,,,,,,,,,,,338.725,340.308,l,1,0.917,1,340.3082,340.8095,,,,,,244,MAS,NOWORD,AGR,150,asamo,,el,,0.917,,340.811,340.8123,0.8171875,0.012452952,0,0,0,,0,136,136,243,1,amigo,,,,
,,,,,,5c9ebf067114700016da2813,676192165fb32c2e1fb7aee6,67d1559a2096bb6d09b411d0,2025-03-12_04h37.01.473,Tarea de decisión léxica,2024.2.5,MacIntel,59.88023952,,,,,,,,,,,,,,,,,,,,,,,,340.8131,342.3607,l,1,0.8676,1,342.3608,342.8606,,,,,,150,MAS,NOWORD,DIS,150,pafo,,la,,0.8676,,342.8607,342.8607,0.8171875,0.012452952,0,0,0,,0,137,137,149,1,cabo,,,,
,,,,,,5c9ebf067114700016da2813,676192165fb32c2e1fb7aee6,67d1559a2096bb6d09b411d0,2025-03-12_04h37.01.473,Tarea de decisión léxica,2024.2.5,MacIntel,59.88023952,,,,,,,,,,,,,,,,,,,,,,,,342.8625,344.5288,a,1,1.0038,1,344.5289,345.0298,,,,,,461,FEM,WORD,DIS,150,tabla,,el,,1.0038,,345.03,345.0301,0.8171875,0.012452952,0,0,0,,0,138,138,460,1,pagra,,,,
,,,,,,5c9ebf067114700016da2813,676192165fb32c2e1fb7aee6,67d1559a2096bb6d09b411d0,2025-03-12_04h37.01.473,Tarea de decisión léxica,2024.2.5,MacIntel,59.88023952,,,,,,,,,,,,,,,,,,,,,,,,345.0315,346.3309,a,0,0.6165,0,346.3325,346.8303,,,,,,88,MAS,NOWORD,AGR,150,damo,,el,,0.6165,,346.8304,346.8305,0.8171875,0.012452952,0,0,0,,0,139,139,87,1,vaso,,,,
,,,,,,5c9ebf067114700016da2813,676192165fb32c2e1fb7aee6,67d1559a2096bb6d09b411d0,2025-03-12_04h37.01.473,Tarea de decisión léxica,2024.2.5,MacIntel,59.88023952,,,,,,,,,,,,,,,,,,,,,,,,346.8315,348.5652,l,1,1.0685,1,348.5668,349.0658,,,,,,472,FEM,NOWORD,AGR,150,prana,,la,,1.0685,,349.0659,349.066,0.8171875,0.012452952,0,0,0,,0,140,140,471,1,grasa,,,,
,,,,,,5c9ebf067114700016da2813,676192165fb32c2e1fb7aee6,67d1559a2096bb6d09b411d0,2025-03-12_04h37.01.473,Tarea de decisión léxica,2024.2.5,MacIntel,59.88023952,,,,,,,,,,,,,,,,,,,,,,,,349.0679,350.3831,l,1,0.6322,1,350.3832,350.8841,,,,,,108,MAS,NOWORD,AGR,150,raot,,el,,0.6322,,350.885,350.8858,0.8171875,0.012452952,0,0,0,,0,141,141,107,1,saco,,,,
,,,,,,5c9ebf067114700016da2813,676192165fb32c2e1fb7aee6,67d1559a2096bb6d09b411d0,2025-03-12_04h37.01.473,Tarea de decisión léxica,2024.2.5,MacIntel,59.88023952,,,,,,,,,,,,,,,,,,,,,,,,350.8865,352.1188,l,1,0.5567,1,352.119,352.6189,,,,,,384,FEM,NOWORD,AGR,150,brame,,la,,0.5567,,352.619,352.6191,0.8171875,0.012452952,0,0,0,,0,142,142,383,1,frase,,,,
,,,,,,5c9ebf067114700016da2813,676192165fb32c2e1fb7aee6,67d1559a2096bb6d09b411d0,2025-03-12_04h37.01.473,Tarea de decisión léxica,2024.2.5,MacIntel,59.88023952,,,,,,,,,,,,,,,,,,,,,,,,352.6201,354.2717,a,1,0.95,1,354.2717,354.7703,,,,,,427,FEM,WORD,AGR,150,oreja,,la,,0.95,,354.7704,354.7706,0.8171875,0.012452952,0,0,0,,0,143,143,426,1,oseva,,,,
,,,,,,5c9ebf067114700016da2813,676192165fb32c2e1fb7aee6,67d1559a2096bb6d09b411d0,2025-03-12_04h37.01.473,Tarea de decisión léxica,2024.2.5,MacIntel,59.88023952,,,,,,,,,,,,,,,,,,,,,,,,354.7722,356.2545,l,1,0.8252,1,356.2546,356.7562,,,,,,4,FEM,NOWORD,AGR,150,dica,,la,,0.8252,,356.7563,356.7564,0.8171875,0.012452952,0,0,0,,0,144,144,3,1,vida,,,,
,,,,,,5c9ebf067114700016da2813,676192165fb32c2e1fb7aee6,67d1559a2096bb6d09b411d0,2025-03-12_04h37.01.473,Tarea de decisión léxica,2024.2.5,MacIntel,59.88023952,,,,,,,,,,,,,,,,,,,,,,,,356.7578,358.0273,a,1,0.595,1,358.0274,358.5244,,,,,,123,FEM,WORD,AGR,150,flor,,la,,0.595,,358.5245,358.5247,0.8171875,0.012452952,0,0,0,,0,145,145,122,1,maba,,,,
,,,,,,5c9ebf067114700016da2813,676192165fb32c2e1fb7aee6,67d1559a2096bb6d09b411d0,2025-03-12_04h37.01.473,Tarea de decisión léxica,2024.2.5,MacIntel,59.88023952,,,,,,,,,,,,,,,,,,,,,,,,358.5258,359.9578,a,1,0.7244,1,359.9579,360.4512,,,,,,365,FEM,WORD,DIS,150,ducha,,el,,0.7244,,360.4521,360.4529,0.8171875,0.012452952,0,0,0,,0,146,146,364,1,gulla,,,,
,,,,,,5c9ebf067114700016da2813,676192165fb32c2e1fb7aee6,67d1559a2096bb6d09b411d0,2025-03-12_04h37.01.473,Tarea de decisión léxica,2024.2.5,MacIntel,59.88023952,,,,,,,,,,,,,,,,,,,,,,,,360.4537,362.3059,a,1,1.1874,1,362.306,362.8111,,,,,,209,MAS,WORD,DIS,150,velo,,la,,1.1874,,362.8112,362.8113,0.8171875,0.012452952,0,0,0,,0,147,147,208,1,dero,,,,
,,,,,,5c9ebf067114700016da2813,676192165fb32c2e1fb7aee6,67d1559a2096bb6d09b411d0,2025-03-12_04h37.01.473,Tarea de decisión léxica,2024.2.5,MacIntel,59.88023952,,,,,,,,,,,,,,,,,,,,,,,,362.8124,363.9262,a,1,0.4407,1,363.9262,364.4282,,,,,,257,FEM,WORD,DIS,150,amiga,,el,,0.4407,,364.4283,364.4285,0.8171875,0.012452952,0,0,0,,0,148,148,256,1,asama,,,,
,,,,,,5c9ebf067114700016da2813,676192165fb32c2e1fb7aee6,67d1559a2096bb6d09b411d0,2025-03-12_04h37.01.473,Tarea de decisión léxica,2024.2.5,MacIntel,59.88023952,,,,,,,,,,,,,,,,,,,,,,,,364.4301,365.5131,a,1,0.4256,1,365.5133,366.0134,,,,,,119,MAS,WORD,AGR,150,pozo,,el,,0.4256,,366.0134,366.0135,0.8171875,0.012452952,0,0,0,,0,149,149,118,1,hooy,,,,
,,,,,,5c9ebf067114700016da2813,676192165fb32c2e1fb7aee6,67d1559a2096bb6d09b411d0,2025-03-12_04h37.01.473,Tarea de decisión léxica,2024.2.5,MacIntel,59.88023952,,,,,,,,,,,,,,,,,,,,,,,,366.0143,367.6142,l,1,0.9168,1,367.6143,368.1142,,,,,,268,MAS,NOWORD,AGR,150,figro,,el,,0.9168,,368.1142,368.1144,0.8171875,0.012452952,0,0,0,,0,150,150,267,1,libro,,,,
,,,,,,5c9ebf067114700016da2813,676192165fb32c2e1fb7aee6,67d1559a2096bb6d09b411d0,2025-03-12_04h37.01.473,Tarea de decisión léxica,2024.2.5,MacIntel,59.88023952,,,,,,,,,,,,,,,,,,,,,,,,368.1152,369.3824,a,1,0.6062,1,369.3824,369.8826,,,,,,125,MAS,WORD,DIS,150,lujo,,la,,0.6062,,369.8834,369.8843,0.8171875,0.012452952,0,0,0,,0,151,151,124,1,vudo,,,,
,,,,,,5c9ebf067114700016da2813,676192165fb32c2e1fb7aee6,67d1559a2096bb6d09b411d0,2025-03-12_04h37.01.473,Tarea de decisión léxica,2024.2.5,MacIntel,59.88023952,,,,,,,,,,,,,,,,,,,,,,,,369.8849,371.3339,a,1,0.7772,1,371.3339,371.8344,,,,,,201,FEM,WORD,DIS,150,cuna,,el,,0.7772,,371.8345,371.8345,0.8171875,0.012452952,0,0,0,,0,152,152,200,1,cusa,,,,
,,,,,,5c9ebf067114700016da2813,676192165fb32c2e1fb7aee6,67d1559a2096bb6d09b411d0,2025-03-12_04h37.01.473,Tarea de decisión léxica,2024.2.5,MacIntel,59.88023952,,,,,,,,,,,,,,,,,,,,,,,,371.8353,373.7365,a,0,1.234,0,373.7371,374.2364,,,,,,28,MAS,NOWORD,AGR,150,ravo,,el,,1.234,,374.2365,374.2365,0.8171875,0.012452952,0,0,0,,0,153,153,27,1,baño,,,,
,,,,,,5c9ebf067114700016da2813,676192165fb32c2e1fb7aee6,67d1559a2096bb6d09b411d0,2025-03-12_04h37.01.473,Tarea de decisión léxica,2024.2.5,MacIntel,59.88023952,,,,,,,,,,,,,,,,,,,,,,,,374.2375,375.4047,a,1,0.5075,1,375.4052,375.9045,,,,,,207,MAS,WORD,AGR,150,kilo,,el,,0.5075,,375.9046,375.9047,0.8171875,0.012452952,0,0,0,,0,154,154,206,1,kedo,,,,
,,,,,,5c9ebf067114700016da2813,676192165fb32c2e1fb7aee6,67d1559a2096bb6d09b411d0,2025-03-12_04h37.01.473,Tarea de decisión léxica,2024.2.5,MacIntel,59.88023952,,,,,,,,,,,,,,,,,,,,,,,,375.9058,376.9386,a,1,0.3505,1,376.9387,377.439,,,,,,145,MAS,WORD,DIS,150,león,,la,,0.3505,,377.4398,377.4405,0.8171875,0.012452952,0,0,0,,0,155,155,144,1,nobo,,,,
,,,,,,5c9ebf067114700016da2813,676192165fb32c2e1fb7aee6,67d1559a2096bb6d09b411d0,2025-03-12_04h37.01.473,Tarea de decisión léxica,2024.2.5,MacIntel,59.88023952,,,,,,,,,,,,,,,,,,,,,,,,377.4412,378.5256,a,0,0.4139,0,378.5262,379.0238,,,,,,176,FEM,NOWORD,AGR,150,hosa,,la,,0.4139,,379.0239,379.0239,0.8171875,0.012452952,0,0,0,,0,156,156,175,1,goma,,,,
,,,,,,5c9ebf067114700016da2813,676192165fb32c2e1fb7aee6,67d1559a2096bb6d09b411d0,2025-03-12_04h37.01.473,Tarea de decisión léxica,2024.2.5,MacIntel,59.88023952,,,,,,,,,,,,,,,,,,,,,,,,379.0248,380.025,a,1,0.3239,1,380.0258,380.5249,,,,,,153,MAS,WORD,DIS,150,pato,,la,,0.3239,,380.5249,380.525,0.8171875,0.012452952,0,0,0,,0,157,157,152,1,tado,,,,
,,,,,,5c9ebf067114700016da2813,676192165fb32c2e1fb7aee6,67d1559a2096bb6d09b411d0,2025-03-12_04h37.01.473,Tarea de decisión léxica,2024.2.5,MacIntel,59.88023952,,,,,,,,,,,,,,,,,,,,,,,,380.5257,382.1426,a,1,0.9567,1,382.1426,382.643,,,,,,363,FEM,WORD,AGR,150,deuda,,la,,0.9567,,382.6431,382.6431,0.8171875,0.012452952,0,0,0,,0,158,158,362,1,veida,,,,
,,,,,,5c9ebf067114700016da2813,676192165fb32c2e1fb7aee6,67d1559a2096bb6d09b411d0,2025-03-12_04h37.01.473,Tarea de decisión léxica,2024.2.5,MacIntel,59.88023952,,,,,,,,,,,,,,,,,,,,,,,,382.6439,383.8782,a,1,0.553,1,383.8783,384.378,,,,,,315,FEM,WORD,AGR,150,reina,,la,,0.553,,384.378,384.3781,0.8171875,0.012452952,0,0,0,,0,159,159,314,1,riosa,,,,
,,,,,,5c9ebf067114700016da2813,676192165fb32c2e1fb7aee6,67d1559a2096bb6d09b411d0,2025-03-12_04h37.01.473,Tarea de decisión léxica,2024.2.5,MacIntel,59.88023952,,,,,,,,,,,,,,,,,,,,,,,,384.379,385.5308,l,0,0.4796,0,385.5315,386.0294,,,,,,415,FEM,WORD,AGR,150,jaula,,la,,0.4796,,386.0302,470.649,0.8171875,0.012452952,0,0,0,space,0,160,160,414,1,juira,84.5936,,,
,,,,,,5c9ebf067114700016da2813,676192165fb32c2e1fb7aee6,67d1559a2096bb6d09b411d0,2025-03-12_04h37.01.473,Tarea de decisión léxica,2024.2.5,MacIntel,59.88023952,,,,,,,,,,,,,,,,,,,,,,,,470.6498,472.0625,a,1,0.7527,1,472.0638,472.5508,,,,,,293,MAS,WORD,DIS,150,campo,,la,,0.7527,,472.5509,472.551,0.8171875,0.012452952,0,0,0,,0,161,161,292,1,cacso,,,,
,,,,,,5c9ebf067114700016da2813,676192165fb32c2e1fb7aee6,67d1559a2096bb6d09b411d0,2025-03-12_04h37.01.473,Tarea de decisión léxica,2024.2.5,MacIntel,59.88023952,,,,,,,,,,,,,,,,,,,,,,,,472.5521,473.8348,a,1,0.5964,1,473.8348,474.3361,,,,,,423,MAS,WORD,AGR,150,queso,,el,,0.5964,,474.3362,474.3362,0.8171875,0.012452952,0,0,0,,0,162,162,422,1,quigo,,,,
,,,,,,5c9ebf067114700016da2813,676192165fb32c2e1fb7aee6,67d1559a2096bb6d09b411d0,2025-03-12_04h37.01.473,Tarea de decisión léxica,2024.2.5,MacIntel,59.88023952,,,,,,,,,,,,,,,,,,,,,,,,474.3371,475.9537,l,1,0.9346,1,475.9537,476.454,,,,,,290,FEM,NOWORD,DIS,150,bumpa,,el,,0.9346,,476.4541,476.4541,0.8171875,0.012452952,0,0,0,,0,163,163,289,1,bomba,,,,
,,,,,,5c9ebf067114700016da2813,676192165fb32c2e1fb7aee6,67d1559a2096bb6d09b411d0,2025-03-12_04h37.01.473,Tarea de decisión léxica,2024.2.5,MacIntel,59.88023952,,,,,,,,,,,,,,,,,,,,,,,,476.455,477.5055,a,1,0.3782,1,477.5056,478.0057,,,,,,121,MAS,WORD,DIS,150,hoyo,,la,,0.3782,,478.0058,478.0058,0.8171875,0.012452952,0,0,0,,0,164,164,120,1,bomo,,,,
,,,,,,5c9ebf067114700016da2813,676192165fb32c2e1fb7aee6,67d1559a2096bb6d09b411d0,2025-03-12_04h37.01.473,Tarea de decisión léxica,2024.2.5,MacIntel,59.88023952,,,,,,,,,,,,,,,,,,,,,,,,478.0069,479.206,a,0,0.5173,0,479.2068,479.7073,,,,,,196,FEM,NOWORD,AGR,150,sira,,la,,0.5173,,479.7083,479.7092,0.8171875,0.012452952,0,0,0,,0,165,165,195,1,tela,,,,
,,,,,,5c9ebf067114700016da2813,676192165fb32c2e1fb7aee6,67d1559a2096bb6d09b411d0,2025-03-12_04h37.01.473,Tarea de decisión léxica,2024.2.5,MacIntel,59.88023952,,,,,,,,,,,,,,,,,,,,,,,,479.7102,480.8907,a,1,0.4844,1,480.8917,481.3698,,,,,,473,FEM,WORD,DIS,150,feria,,el,,0.4844,,481.3699,481.37,0.8171875,0.012452952,0,0,0,,0,166,166,472,1,felia,,,,
,,,,,,5c9ebf067114700016da2813,676192165fb32c2e1fb7aee6,67d1559a2096bb6d09b411d0,2025-03-12_04h37.01.473,Tarea de decisión léxica,2024.2.5,MacIntel,59.88023952,,,,,,,,,,,,,,,,,,,,,,,,481.3709,482.4412,a,1,0.4103,1,482.4413,482.9427,,,,,,7,MAS,WORD,AGR,150,hijo,,el,,0.4103,,482.9428,482.9428,0.8171875,0.012452952,0,0,0,,0,167,167,6,1,nivo,,,,
,,,,,,5c9ebf067114700016da2813,676192165fb32c2e1fb7aee6,67d1559a2096bb6d09b411d0,2025-03-12_04h37.01.473,Tarea de decisión léxica,2024.2.5,MacIntel,59.88023952,,,,,,,,,,,,,,,,,,,,,,,,482.9437,484.16,l,1,0.5482,1,484.16,484.6714,,,,,,62,FEM,NOWORD,DIS,150,efla,,el,,0.5482,,484.6714,484.6714,0.8171875,0.012452952,0,0,0,,0,168,168,61,1,obra,,,,
,,,,,,5c9ebf067114700016da2813,676192165fb32c2e1fb7aee6,67d1559a2096bb6d09b411d0,2025-03-12_04h37.01.473,Tarea de decisión léxica,2024.2.5,MacIntel,59.88023952,,,,,,,,,,,,,,,,,,,,,,,,484.6723,486.0959,a,1,0.7545,1,486.096,486.5955,,,,,,347,FEM,WORD,AGR,150,pieza,,la,,0.7545,,486.5955,486.5956,0.8171875,0.012452952,0,0,0,,0,169,169,346,1,mueza,,,,
,,,,,,5c9ebf067114700016da2813,676192165fb32c2e1fb7aee6,67d1559a2096bb6d09b411d0,2025-03-12_04h37.01.473,Tarea de decisión léxica,2024.2.5,MacIntel,59.88023952,,,,,,,,,,,,,,,,,,,,,,,,486.5966,487.8074,a,1,0.5323,1,487.8074,488.2992,,,,,,361,FEM,WORD,DIS,150,torre,,el,,0.5323,,488.3003,488.3011,0.8171875,0.012452952,0,0,0,,0,170,170,360,1,solle,,,,
,,,,,,5c9ebf067114700016da2813,676192165fb32c2e1fb7aee6,67d1559a2096bb6d09b411d0,2025-03-12_04h37.01.473,Tarea de decisión léxica,2024.2.5,MacIntel,59.88023952,,,,,,,,,,,,,,,,,,,,,,,,488.3022,489.6979,a,0,0.7219,0,489.6989,490.1926,,,,,,106,FEM,NOWORD,DIS,150,vina,,el,,0.7219,,490.1927,490.1928,0.8171875,0.012452952,0,0,0,,0,171,171,105,1,sopa,,,,
,,,,,,5c9ebf067114700016da2813,676192165fb32c2e1fb7aee6,67d1559a2096bb6d09b411d0,2025-03-12_04h37.01.473,Tarea de decisión léxica,2024.2.5,MacIntel,59.88023952,,,,,,,,,,,,,,,,,,,,,,,,490.1936,491.6334,l,0,0.7677,0,491.6335,492.1341,,,,,,155,FEM,WORD,AGR,150,fuga,,la,,0.7677,,492.1341,492.1342,0.8171875,0.012452952,0,0,0,,0,172,172,154,1,luma,,,,
,,,,,,5c9ebf067114700016da2813,676192165fb32c2e1fb7aee6,67d1559a2096bb6d09b411d0,2025-03-12_04h37.01.473,Tarea de decisión léxica,2024.2.5,MacIntel,59.88023952,,,,,,,,,,,,,,,,,,,,,,,,492.1356,493.3686,l,1,0.5667,1,493.3693,493.868,,,,,,306,MAS,NOWORD,DIS,150,adiol,,la,,0.5667,,493.8681,493.8682,0.8171875,0.012452952,0,0,0,,0,173,173,305,1,avión,,,,
,,,,,,5c9ebf067114700016da2813,676192165fb32c2e1fb7aee6,67d1559a2096bb6d09b411d0,2025-03-12_04h37.01.473,Tarea de decisión léxica,2024.2.5,MacIntel,59.88023952,,,,,,,,,,,,,,,,,,,,,,,,493.8697,495.1025,l,1,0.5525,1,495.1026,495.6039,,,,,,470,MAS,NOWORD,DIS,150,matia,,la,,0.5525,,495.604,495.6042,0.8171875,0.012452952,0,0,0,,0,174,174,469,1,patio,,,,
,,,,,,5c9ebf067114700016da2813,676192165fb32c2e1fb7aee6,67d1559a2096bb6d09b411d0,2025-03-12_04h37.01.473,Tarea de decisión léxica,2024.2.5,MacIntel,59.88023952,,,,,,,,,,,,,,,,,,,,,,,,495.6057,496.884,l,1,0.6051,1,496.884,497.3805,,,,,,456,MAS,NOWORD,AGR,150,riaso,,el,,0.6051,,497.3814,497.3822,0.8171875,0.012452952,0,0,0,,0,175,175,455,1,reino,,,,
,,,,,,5c9ebf067114700016da2813,676192165fb32c2e1fb7aee6,67d1559a2096bb6d09b411d0,2025-03-12_04h37.01.473,Tarea de decisión léxica,2024.2.5,MacIntel,59.88023952,,,,,,,,,,,,,,,,,,,,,,,,497.383,498.5888,a,0,0.5405,0,498.5904,499.0894,,,,,,234,FEM,NOWORD,DIS,150,fasa,,el,,0.5405,,499.0894,499.0895,0.8171875,0.012452952,0,0,0,,0,176,176,233,1,lana,,,,
,,,,,,5c9ebf067114700016da2813,676192165fb32c2e1fb7aee6,67d1559a2096bb6d09b411d0,2025-03-12_04h37.01.473,Tarea de decisión léxica,2024.2.5,MacIntel,59.88023952,,,,,,,,,,,,,,,,,,,,,,,,499.091,500.2404,a,1,0.4932,1,500.241,500.7412,,,,,,455,MAS,WORD,AGR,150,reino,,el,,0.4932,,500.7412,500.7413,0.8171875,0.012452952,0,0,0,,0,177,177,454,1,riaso,,,,
,,,,,,5c9ebf067114700016da2813,676192165fb32c2e1fb7aee6,67d1559a2096bb6d09b411d0,2025-03-12_04h37.01.473,Tarea de decisión léxica,2024.2.5,MacIntel,59.88023952,,,,,,,,,,,,,,,,,,,,,,,,500.743,501.8395,a,1,0.4343,1,501.8396,502.3419,,,,,,445,MAS,WORD,DIS,150,actor,,la,,0.4343,,502.342,502.342,0.8171875,0.012452952,0,0,0,,0,178,178,444,1,ascor,,,,
,,,,,,5c9ebf067114700016da2813,676192165fb32c2e1fb7aee6,67d1559a2096bb6d09b411d0,2025-03-12_04h37.01.473,Tarea de decisión léxica,2024.2.5,MacIntel,59.88023952,,,,,,,,,,,,,,,,,,,,,,,,502.3429,503.9016,l,1,0.8824,1,503.9017,504.3947,,,,,,340,MAS,NOWORD,AGR,150,plajo,,el,,0.8824,,504.3962,504.3973,0.8171875,0.012452952,0,0,0,,0,179,179,339,1,brazo,,,,
,,,,,,5c9ebf067114700016da2813,676192165fb32c2e1fb7aee6,67d1559a2096bb6d09b411d0,2025-03-12_04h37.01.473,Tarea de decisión léxica,2024.2.5,MacIntel,59.88023952,,,,,,,,,,,,,,,,,,,,,,,,504.3981,505.6448,l,1,0.572,1,505.6449,506.1448,,,,,,388,FEM,NOWORD,AGR,150,bresa,,la,,0.572,,506.1448,506.1449,0.8171875,0.012452952,0,0,0,,0,180,180,387,1,crema,,,,
,,,,,,5c9ebf067114700016da2813,676192165fb32c2e1fb7aee6,67d1559a2096bb6d09b411d0,2025-03-12_04h37.01.473,Tarea de decisión léxica,2024.2.5,MacIntel,59.88023952,,,,,,,,,,,,,,,,,,,,,,,,506.1466,507.2973,l,1,0.4201,1,507.2977,507.7972,,,,,,12,MAS,NOWORD,AGR,150,bapo,,el,,0.4201,,507.7972,507.7973,0.8171875,0.012452952,0,0,0,,0,181,181,11,1,lado,,,,
,,,,,,5c9ebf067114700016da2813,676192165fb32c2e1fb7aee6,67d1559a2096bb6d09b411d0,2025-03-12_04h37.01.473,Tarea de decisión léxica,2024.2.5,MacIntel,59.88023952,,,,,,,,,,,,,,,,,,,,,,,,507.7985,509.2139,l,1,0.7382,1,509.214,509.7145,,,,,,236,FEM,NOWORD,AGR,150,tria,,la,,0.7382,,509.7146,509.7147,0.8171875,0.012452952,0,0,0,,0,182,182,235,1,grúa,,,,
,,,,,,5c9ebf067114700016da2813,676192165fb32c2e1fb7aee6,67d1559a2096bb6d09b411d0,2025-03-12_04h37.01.473,Tarea de decisión léxica,2024.2.5,MacIntel,59.88023952,,,,,,,,,,,,,,,,,,,,,,,,509.7155,510.8325,l,1,0.4531,1,510.8326,511.3335,,,,,,418,FEM,NOWORD,DIS,150,banja,,el,,0.4531,,511.3336,511.3336,0.8171875,0.012452952,0,0,0,,0,183,183,417,1,barba,,,,
,,,,,,5c9ebf067114700016da2813,676192165fb32c2e1fb7aee6,67d1559a2096bb6d09b411d0,2025-03-12_04h37.01.473,Tarea de decisión léxica,2024.2.5,MacIntel,59.88023952,,,,,,,,,,,,,,,,,,,,,,,,511.3346,512.5333,l,1,0.5268,1,512.5334,513.0343,,,,,,394,FEM,NOWORD,DIS,150,ashea,,el,,0.5268,,513.0353,513.0362,0.8171875,0.012452952,0,0,0,,0,184,184,393,1,aldea,,,,
,,,,,,5c9ebf067114700016da2813,676192165fb32c2e1fb7aee6,67d1559a2096bb6d09b411d0,2025-03-12_04h37.01.473,Tarea de decisión léxica,2024.2.5,MacIntel,59.88023952,,,,,,,,,,,,,,,,,,,,,,,,513.0369,514.302,a,1,0.5892,1,514.3021,514.8021,,,,,,135,MAS,WORD,AGR,150,tubo,,el,,0.5892,,514.8022,514.8023,0.8171875,0.012452952,0,0,0,,0,185,185,134,1,geso,,,,
,,,,,,5c9ebf067114700016da2813,676192165fb32c2e1fb7aee6,67d1559a2096bb6d09b411d0,2025-03-12_04h37.01.473,Tarea de decisión léxica,2024.2.5,MacIntel,59.88023952,,,,,,,,,,,,,,,,,,,,,,,,514.8034,516.1367,l,1,0.6656,1,516.1369,516.6372,,,,,,352,MAS,NOWORD,AGR,150,duepo,,el,,0.6656,,516.6373,516.6374,0.8171875,0.012452952,0,0,0,,0,186,186,351,1,vuelo,,,,
,,,,,,5c9ebf067114700016da2813,676192165fb32c2e1fb7aee6,67d1559a2096bb6d09b411d0,2025-03-12_04h37.01.473,Tarea de decisión léxica,2024.2.5,MacIntel,59.88023952,,,,,,,,,,,,,,,,,,,,,,,,516.6382,518.1381,a,1,0.8337,1,518.1382,518.6363,,,,,,327,MAS,WORD,AGR,150,fondo,,el,,0.8337,,518.6363,518.6364,0.8171875,0.012452952,0,0,0,,0,187,187,326,1,lendo,,,,
,,,,,,5c9ebf067114700016da2813,676192165fb32c2e1fb7aee6,67d1559a2096bb6d09b411d0,2025-03-12_04h37.01.473,Tarea de decisión léxica,2024.2.5,MacIntel,59.88023952,,,,,,,,,,,,,,,,,,,,,,,,518.6372,519.8486,a,1,0.5347,1,519.8487,520.3624,,,,,,457,MAS,WORD,DIS,150,plato,,la,,0.5347,,520.3624,520.3626,0.8171875,0.012452952,0,0,0,,0,188,188,456,1,glaco,,,,
,,,,,,5c9ebf067114700016da2813,676192165fb32c2e1fb7aee6,67d1559a2096bb6d09b411d0,2025-03-12_04h37.01.473,Tarea de decisión léxica,2024.2.5,MacIntel,59.88023952,,,,,,,,,,,,,,,,,,,,,,,,520.3635,521.8413,l,1,0.809,1,521.8413,522.3294,,,,,,52,FEM,NOWORD,AGR,150,mava,,la,,0.809,,522.3304,522.3312,0.8171875,0.012452952,0,0,0,,0,189,189,51,1,caja,,,,
,,,,,,5c9ebf067114700016da2813,676192165fb32c2e1fb7aee6,67d1559a2096bb6d09b411d0,2025-03-12_04h37.01.473,Tarea de decisión léxica,2024.2.5,MacIntel,59.88023952,,,,,,,,,,,,,,,,,,,,,,,,522.3322,523.5098,a,1,0.5008,1,523.5099,523.9974,,,,,,51,FEM,WORD,AGR,150,caja,,la,,0.5008,,523.9974,523.9976,0.8171875,0.012452952,0,0,0,,0,190,190,50,1,mava,,,,
,,,,,,5c9ebf067114700016da2813,676192165fb32c2e1fb7aee6,67d1559a2096bb6d09b411d0,2025-03-12_04h37.01.473,Tarea de decisión léxica,2024.2.5,MacIntel,59.88023952,,,,,,,,,,,,,,,,,,,,,,,,523.9984,525.1108,a,1,0.4493,1,525.1109,525.6182,,,,,,281,MAS,WORD,DIS,150,cielo,,la,,0.4493,,525.6182,525.6183,0.8171875,0.012452952,0,0,0,,0,191,191,280,1,cauro,,,,
,,,,,,5c9ebf067114700016da2813,676192165fb32c2e1fb7aee6,67d1559a2096bb6d09b411d0,2025-03-12_04h37.01.473,Tarea de decisión léxica,2024.2.5,MacIntel,59.88023952,,,,,,,,,,,,,,,,,,,,,,,,525.6192,526.6623,a,1,0.3663,1,526.6624,527.1498,,,,,,221,FEM,WORD,DIS,150,mula,,el,,0.3663,,527.1499,527.15,0.8171875,0.012452952,0,0,0,,0,192,192,220,1,puca,,,,
,,,,,,5c9ebf067114700016da2813,676192165fb32c2e1fb7aee6,67d1559a2096bb6d09b411d0,2025-03-12_04h37.01.473,Tarea de decisión léxica,2024.2.5,MacIntel,59.88023952,,,,,,,,,,,,,,,,,,,,,,,,527.1509,528.2465,a,1,0.4212,1,528.2466,528.7476,,,,,,279,FEM,WORD,AGR,150,prisa,,la,,0.4212,,528.7477,528.7477,0.8171875,0.012452952,0,0,0,,0,193,193,278,1,grina,,,,
,,,,,,5c9ebf067114700016da2813,676192165fb32c2e1fb7aee6,67d1559a2096bb6d09b411d0,2025-03-12_04h37.01.473,Tarea de decisión léxica,2024.2.5,MacIntel,59.88023952,,,,,,,,,,,,,,,,,,,,,,,,528.7486,529.9487,a,1,0.5338,1,529.9487,530.4487,,,,,,191,FEM,WORD,AGR,150,pila,,la,,0.5338,,530.45,530.4508,0.8171875,0.012452952,0,0,0,,0,194,194,190,1,bila,,,,
,,,,,,5c9ebf067114700016da2813,676192165fb32c2e1fb7aee6,67d1559a2096bb6d09b411d0,2025-03-12_04h37.01.473,Tarea de decisión léxica,2024.2.5,MacIntel,59.88023952,,,,,,,,,,,,,,,,,,,,,,,,530.4514,532.1169,l,0,0.9843,0,532.1178,532.6174,,,,,,459,MAS,WORD,AGR,150,grado,,el,,0.9843,,532.6174,532.6176,0.8171875,0.012452952,0,0,0,,0,195,195,458,1,fraco,,,,
,,,,,,5c9ebf067114700016da2813,676192165fb32c2e1fb7aee6,67d1559a2096bb6d09b411d0,2025-03-12_04h37.01.473,Tarea de decisión léxica,2024.2.5,MacIntel,59.88023952,,,,,,,,,,,,,,,,,,,,,,,,532.6185,534.0186,l,1,0.7248,1,534.0193,534.5186,,,,,,272,FEM,NOWORD,AGR,150,refal,,la,,0.7248,,534.5186,534.5187,0.8171875,0.012452952,0,0,0,,0,196,196,271,1,señal,,,,
,,,,,,5c9ebf067114700016da2813,676192165fb32c2e1fb7aee6,67d1559a2096bb6d09b411d0,2025-03-12_04h37.01.473,Tarea de decisión léxica,2024.2.5,MacIntel,59.88023952,,,,,,,,,,,,,,,,,,,,,,,,534.5196,535.8026,a,0,0.6094,0,535.8033,536.3032,,,,,,20,MAS,NOWORD,AGR,150,himo,,el,,0.6094,,536.3033,536.3033,0.8171875,0.012452952,0,0,0,,0,197,197,19,1,niño,,,,
,,,,,,5c9ebf067114700016da2813,676192165fb32c2e1fb7aee6,67d1559a2096bb6d09b411d0,2025-03-12_04h37.01.473,Tarea de decisión léxica,2024.2.5,MacIntel,59.88023952,,,,,,,,,,,,,,,,,,,,,,,,536.3042,537.8709,a,0,0.884,0,537.8709,538.3724,,,,,,412,MAS,NOWORD,AGR,150,mobro,,el,,0.884,,538.3725,538.3726,0.8171875,0.012452952,0,0,0,,0,198,198,411,1,pollo,,,,
,,,,,,5c9ebf067114700016da2813,676192165fb32c2e1fb7aee6,67d1559a2096bb6d09b411d0,2025-03-12_04h37.01.473,Tarea de decisión léxica,2024.2.5,MacIntel,59.88023952,,,,,,,,,,,,,,,,,,,,,,,,538.3735,539.8725,a,1,0.8249,1,539.8733,540.373,,,,,,117,MAS,WORD,DIS,150,palo,,la,,0.8249,,540.3739,540.3746,0.8171875,0.012452952,0,0,0,,0,199,199,116,1,movo,,,,
,,,,,,5c9ebf067114700016da2813,676192165fb32c2e1fb7aee6,67d1559a2096bb6d09b411d0,2025-03-12_04h37.01.473,Tarea de decisión léxica,2024.2.5,MacIntel,59.88023952,,,,,,,,,,,,,,,,,,,,,,,,540.3754,541.4744,a,1,0.4237,1,541.4746,541.9748,,,,,,147,FEM,WORD,AGR,150,hoja,,la,,0.4237,,541.9748,541.975,0.8171875,0.012452952,0,0,0,,0,200,200,146,1,pama,,,,
,,,,,,5c9ebf067114700016da2813,676192165fb32c2e1fb7aee6,67d1559a2096bb6d09b411d0,2025-03-12_04h37.01.473,Tarea de decisión léxica,2024.2.5,MacIntel,59.88023952,,,,,,,,,,,,,,,,,,,,,,,,541.9759,543.3593,l,1,0.7003,1,543.3594,543.8595,,,,,,116,FEM,NOWORD,AGR,150,haca,,la,,0.7003,,543.8596,543.8597,0.8171875,0.012452952,0,0,0,,0,201,201,115,1,pata,,,,
,,,,,,5c9ebf067114700016da2813,676192165fb32c2e1fb7aee6,67d1559a2096bb6d09b411d0,2025-03-12_04h37.01.473,Tarea de decisión léxica,2024.2.5,MacIntel,59.88023952,,,,,,,,,,,,,,,,,,,,,,,,543.8605,545.5277,a,1,0.9971,1,545.5277,546.0285,,,,,,65,MAS,WORD,DIS,150,dios,,la,,0.9971,,546.0285,546.0285,0.8171875,0.012452952,0,0,0,,0,202,202,64,1,nios,,,,
,,,,,,5c9ebf067114700016da2813,676192165fb32c2e1fb7aee6,67d1559a2096bb6d09b411d0,2025-03-12_04h37.01.473,Tarea de decisión léxica,2024.2.5,MacIntel,59.88023952,,,,,,,,,,,,,,,,,,,,,,,,546.0293,547.5125,l,1,0.8214,1,547.5126,548.0131,,,,,,118,MAS,NOWORD,DIS,150,movo,,la,,0.8214,,548.0139,548.0145,0.8171875,0.012452952,0,0,0,,0,203,203,117,1,palo,,,,
,,,,,,5c9ebf067114700016da2813,676192165fb32c2e1fb7aee6,67d1559a2096bb6d09b411d0,2025-03-12_04h37.01.473,Tarea de decisión léxica,2024.2.5,MacIntel,59.88023952,,,,,,,,,,,,,,,,,,,,,,,,548.0153,549.4647,l,1,0.7814,1,549.4648,549.9648,,,,,,148,FEM,NOWORD,AGR,150,pama,,la,,0.7814,,549.9648,549.9648,0.8171875,0.012452952,0,0,0,,0,204,204,147,1,hoja,,,,
,,,,,,5c9ebf067114700016da2813,676192165fb32c2e1fb7aee6,67d1559a2096bb6d09b411d0,2025-03-12_04h37.01.473,Tarea de decisión léxica,2024.2.5,MacIntel,59.88023952,,,,,,,,,,,,,,,,,,,,,,,,549.9661,551.1846,l,1,0.5631,1,551.1847,551.684,,,,,,402,MAS,NOWORD,DIS,150,pirvo,,la,,0.5631,,551.684,551.6841,0.8171875,0.012452952,0,0,0,,0,205,205,401,1,polvo,,,,
,,,,,,5c9ebf067114700016da2813,676192165fb32c2e1fb7aee6,67d1559a2096bb6d09b411d0,2025-03-12_04h37.01.473,Tarea de decisión léxica,2024.2.5,MacIntel,59.88023952,,,,,,,,,,,,,,,,,,,,,,,,551.6849,552.8499,l,1,0.4835,1,552.85,553.3507,,,,,,358,FEM,NOWORD,DIS,150,gruba,,el,,0.4835,,553.3508,553.3509,0.8171875,0.012452952,0,0,0,,0,206,206,357,1,bruja,,,,
,,,,,,5c9ebf067114700016da2813,676192165fb32c2e1fb7aee6,67d1559a2096bb6d09b411d0,2025-03-12_04h37.01.473,Tarea de decisión léxica,2024.2.5,MacIntel,59.88023952,,,,,,,,,,,,,,,,,,,,,,,,553.3516,554.7349,l,1,0.7103,1,554.735,555.229,,,,,,138,MAS,NOWORD,DIS,150,pamo,,la,,0.7103,,555.229,555.2291,0.8171875,0.012452952,0,0,0,,0,207,207,137,1,nene,,,,
,,,,,,5c9ebf067114700016da2813,676192165fb32c2e1fb7aee6,67d1559a2096bb6d09b411d0,2025-03-12_04h37.01.473,Tarea de decisión léxica,2024.2.5,MacIntel,59.88023952,,,,,,,,,,,,,,,,,,,,,,,,555.2299,556.3889,l,1,0.4949,1,556.3889,556.8867,,,,,,60,FEM,NOWORD,AGR,150,tafa,,la,,0.4949,,556.8875,556.8883,0.8171875,0.012452952,0,0,0,,0,208,208,59,1,sala,,,,
,,,,,,5c9ebf067114700016da2813,676192165fb32c2e1fb7aee6,67d1559a2096bb6d09b411d0,2025-03-12_04h37.01.473,Tarea de decisión léxica,2024.2.5,MacIntel,59.88023952,,,,,,,,,,,,,,,,,,,,,,,,556.8891,558.2544,a,1,0.6902,1,558.2545,558.7553,,,,,,175,FEM,WORD,AGR,150,goma,,la,,0.6902,,558.7553,558.7554,0.8171875,0.012452952,0,0,0,,0,209,209,174,1,hosa,,,,
,,,,,,5c9ebf067114700016da2813,676192165fb32c2e1fb7aee6,67d1559a2096bb6d09b411d0,2025-03-12_04h37.01.473,Tarea de decisión léxica,2024.2.5,MacIntel,59.88023952,,,,,,,,,,,,,,,,,,,,,,,,558.7563,560.206,l,1,0.7676,1,560.2061,560.7066,,,,,,318,FEM,NOWORD,DIS,150,plaad,,el,,0.7676,,560.7066,560.7066,0.8171875,0.012452952,0,0,0,,0,210,210,317,1,playa,,,,
,,,,,,5c9ebf067114700016da2813,676192165fb32c2e1fb7aee6,67d1559a2096bb6d09b411d0,2025-03-12_04h37.01.473,Tarea de decisión léxica,2024.2.5,MacIntel,59.88023952,,,,,,,,,,,,,,,,,,,,,,,,560.7075,562.1747,a,1,0.8042,1,562.1747,562.6756,,,,,,215,FEM,WORD,AGR,150,raíz,,la,,0.8042,,562.6757,562.6758,0.8171875,0.012452952,0,0,0,,0,211,211,214,1,raua,,,,
,,,,,,5c9ebf067114700016da2813,676192165fb32c2e1fb7aee6,67d1559a2096bb6d09b411d0,2025-03-12_04h37.01.473,Tarea de decisión léxica,2024.2.5,MacIntel,59.88023952,,,,,,,,,,,,,,,,,,,,,,,,562.6766,563.8957,a,0,0.4447,0,563.8965,564.3879,,,,,,180,MAS,NOWORD,AGR,150,sono,,el,,0.4447,,564.388,564.388,0.8171875,0.012452952,0,0,0,,0,212,212,179,1,toro,,,,
,,,,,,5c9ebf067114700016da2813,676192165fb32c2e1fb7aee6,67d1559a2096bb6d09b411d0,2025-03-12_04h37.01.473,Tarea de decisión léxica,2024.2.5,MacIntel,59.88023952,,,,,,,,,,,,,,,,,,,,,,,,564.389,565.4729,a,1,0.4174,1,565.4736,565.9609,,,,,,341,MAS,WORD,DIS,150,valor,,la,,0.4174,,565.9623,565.9632,0.8171875,0.012452952,0,0,0,,0,213,213,340,1,daror,,,,
,,,,,,5c9ebf067114700016da2813,676192165fb32c2e1fb7aee6,67d1559a2096bb6d09b411d0,2025-03-12_04h37.01.473,Tarea de decisión léxica,2024.2.5,MacIntel,59.88023952,,,,,,,,,,,,,,,,,,,,,,,,565.964,567.0119,a,0,0.3681,0,567.0127,567.513,,,,,,190,MAS,NOWORD,DIS,150,muvo,,la,,0.3681,,567.5131,567.5133,0.8171875,0.012452952,0,0,0,,0,214,214,189,1,puño,,,,
,,,,,,5c9ebf067114700016da2813,676192165fb32c2e1fb7aee6,67d1559a2096bb6d09b411d0,2025-03-12_04h37.01.473,Tarea de decisión léxica,2024.2.5,MacIntel,59.88023952,,,,,,,,,,,,,,,,,,,,,,,,567.5143,568.6328,a,0,0.4449,0,568.6328,569.1301,,,,,,80,FEM,NOWORD,AGR,150,ciel,,la,,0.4449,,569.1301,569.1302,0.8171875,0.012452952,0,0,0,,0,215,215,79,1,piel,,,,
,,,,,,5c9ebf067114700016da2813,676192165fb32c2e1fb7aee6,67d1559a2096bb6d09b411d0,2025-03-12_04h37.01.473,Tarea de decisión léxica,2024.2.5,MacIntel,59.88023952,,,,,,,,,,,,,,,,,,,,,,,,569.131,570.6313,l,1,0.8327,1,570.6323,571.1196,,,,,,56,MAS,NOWORD,AGR,150,jado,,el,,0.8327,,571.1196,571.1197,0.8171875,0.012452952,0,0,0,,0,216,216,55,1,gato,,,,
,,,,,,5c9ebf067114700016da2813,676192165fb32c2e1fb7aee6,67d1559a2096bb6d09b411d0,2025-03-12_04h37.01.473,Tarea de decisión léxica,2024.2.5,MacIntel,59.88023952,,,,,,,,,,,,,,,,,,,,,,,,571.1208,572.3864,l,1,0.588,1,572.3865,572.8673,,,,,,334,FEM,NOWORD,DIS,150,dalea,,el,,0.588,,572.8673,572.8674,0.8171875,0.012452952,0,0,0,,0,217,217,333,1,tarea,,,,
,,,,,,5c9ebf067114700016da2813,676192165fb32c2e1fb7aee6,67d1559a2096bb6d09b411d0,2025-03-12_04h37.01.473,Tarea de decisión léxica,2024.2.5,MacIntel,59.88023952,,,,,,,,,,,,,,,,,,,,,,,,572.8683,574.0217,l,1,0.4945,1,574.0218,574.5185,,,,,,24,FEM,NOWORD,AGR,150,giva,,la,,0.4945,,574.5195,574.5207,0.8171875,0.012452952,0,0,0,,0,218,218,23,1,hija,,,,
,,,,,,5c9ebf067114700016da2813,676192165fb32c2e1fb7aee6,67d1559a2096bb6d09b411d0,2025-03-12_04h37.01.473,Tarea de decisión léxica,2024.2.5,MacIntel,59.88023952,,,,,,,,,,,,,,,,,,,,,,,,574.5218,575.7693,l,1,0.5711,1,575.7694,576.2707,,,,,,58,MAS,NOWORD,DIS,150,heco,,la,,0.5711,,576.2707,576.2708,0.8171875,0.012452952,0,0,0,,0,219,219,57,1,dedo,,,,
,,,,,,5c9ebf067114700016da2813,676192165fb32c2e1fb7aee6,67d1559a2096bb6d09b411d0,2025-03-12_04h37.01.473,Tarea de decisión léxica,2024.2.5,MacIntel,59.88023952,,,,,,,,,,,,,,,,,,,,,,,,576.2717,577.4556,l,1,0.5046,1,577.4556,577.953,,,,,,74,MAS,NOWORD,DIS,150,omio,,la,,0.5046,,577.953,577.953,0.8171875,0.012452952,0,0,0,,0,220,220,73,1,odio,,,,
,,,,,,5c9ebf067114700016da2813,676192165fb32c2e1fb7aee6,67d1559a2096bb6d09b411d0,2025-03-12_04h37.01.473,Tarea de decisión léxica,2024.2.5,MacIntel,59.88023952,,,,,,,,,,,,,,,,,,,,,,,,577.9542,579.8393,a,1,1.2181,1,579.8394,580.3391,,,,,,47,MAS,WORD,AGR,150,club,,el,,1.2181,,580.3392,580.3392,0.8171875,0.012452952,0,0,0,,0,221,221,46,1,chub,,,,
,,,,,,5c9ebf067114700016da2813,676192165fb32c2e1fb7aee6,67d1559a2096bb6d09b411d0,2025-03-12_04h37.01.473,Tarea de decisión léxica,2024.2.5,MacIntel,59.88023952,,,,,,,,,,,,,,,,,,,,,,,,580.3403,581.7244,a,1,0.7178,1,581.7244,582.2249,,,,,,265,FEM,WORD,DIS,150,mitad,,el,,0.7178,,582.2249,582.2249,0.8171875,0.012452952,0,0,0,,0,222,222,264,1,pitat,,,,
,,,,,,5c9ebf067114700016da2813,676192165fb32c2e1fb7aee6,67d1559a2096bb6d09b411d0,2025-03-12_04h37.01.473,Tarea de decisión léxica,2024.2.5,MacIntel,59.88023952,,,,,,,,,,,,,,,,,,,,,,,,582.2258,583.7789,l,1,0.8909,1,583.7791,584.2772,,,,,,182,FEM,NOWORD,DIS,150,teda,,el,,0.8909,,584.2781,584.2788,0.8171875,0.012452952,0,0,0,,0,223,223,181,1,seda,,,,
,,,,,,5c9ebf067114700016da2813,676192165fb32c2e1fb7aee6,67d1559a2096bb6d09b411d0,2025-03-12_04h37.01.473,Tarea de decisión léxica,2024.2.5,MacIntel,59.88023952,,,,,,,,,,,,,,,,,,,,,,,,584.2794,585.6101,a,1,0.6518,1,585.6102,586.1113,,,,,,33,FEM,WORD,DIS,150,boca,,el,,0.6518,,586.1114,586.1114,0.8171875,0.012452952,0,0,0,,0,224,224,32,1,loda,,,,
,,,,,,5c9ebf067114700016da2813,676192165fb32c2e1fb7aee6,67d1559a2096bb6d09b411d0,2025-03-12_04h37.01.473,Tarea de decisión léxica,2024.2.5,MacIntel,59.88023952,,,,,,,,,,,,,,,,,,,,,,,,586.1125,587.612,a,1,0.8334,1,587.6121,588.1135,,,,,,73,MAS,WORD,DIS,150,odio,,la,,0.8334,,588.1136,588.1137,0.8171875,0.012452952,0,0,0,,0,225,225,72,1,omio,,,,
,,,,,,5c9ebf067114700016da2813,676192165fb32c2e1fb7aee6,67d1559a2096bb6d09b411d0,2025-03-12_04h37.01.473,Tarea de decisión léxica,2024.2.5,MacIntel,59.88023952,,,,,,,,,,,,,,,,,,,,,,,,588.1146,589.2633,a,1,0.4676,1,589.2634,589.7637,,,,,,313,MAS,WORD,DIS,150,novio,,la,,0.4676,,589.7637,589.7637,0.8171875,0.012452952,0,0,0,,0,226,226,312,1,govio,,,,
,,,,,,5c9ebf067114700016da2813,676192165fb32c2e1fb7aee6,67d1559a2096bb6d09b411d0,2025-03-12_04h37.01.473,Tarea de decisión léxica,2024.2.5,MacIntel,59.88023952,,,,,,,,,,,,,,,,,,,,,,,,589.7649,591.2661,l,1,0.8326,1,591.2663,591.7662,,,,,,326,FEM,NOWORD,DIS,150,mabia,,el,,0.8326,,591.7674,591.7682,0.8171875,0.012452952,0,0,0,,0,227,227,325,1,magia,,,,
,,,,,,5c9ebf067114700016da2813,676192165fb32c2e1fb7aee6,67d1559a2096bb6d09b411d0,2025-03-12_04h37.01.473,Tarea de decisión léxica,2024.2.5,MacIntel,59.88023952,,,,,,,,,,,,,,,,,,,,,,,,591.7689,593.2842,a,0,0.8331,0,593.2854,593.7838,,,,,,156,FEM,NOWORD,AGR,150,luma,,la,,0.8331,,593.7839,593.7841,0.8171875,0.012452952,0,0,0,,0,228,228,155,1,fuga,,,,
,,,,,,5c9ebf067114700016da2813,676192165fb32c2e1fb7aee6,67d1559a2096bb6d09b411d0,2025-03-12_04h37.01.473,Tarea de decisión léxica,2024.2.5,MacIntel,59.88023952,,,,,,,,,,,,,,,,,,,,,,,,593.7853,595.1852,l,1,0.7283,1,595.1864,595.6864,,,,,,48,MAS,NOWORD,AGR,150,chub,,el,,0.7283,,595.6865,595.6866,0.8171875,0.012452952,0,0,0,,0,229,229,47,1,club,,,,
,,,,,,5c9ebf067114700016da2813,676192165fb32c2e1fb7aee6,67d1559a2096bb6d09b411d0,2025-03-12_04h37.01.473,Tarea de decisión léxica,2024.2.5,MacIntel,59.88023952,,,,,,,,,,,,,,,,,,,,,,,,595.6874,596.8707,l,1,0.4984,1,596.8707,597.3702,,,,,,178,MAS,NOWORD,DIS,150,bito,,la,,0.4984,,597.3702,597.3704,0.8171875,0.012452952,0,0,0,,0,230,230,177,1,reto,,,,
,,,,,,5c9ebf067114700016da2813,676192165fb32c2e1fb7aee6,67d1559a2096bb6d09b411d0,2025-03-12_04h37.01.473,Tarea de decisión léxica,2024.2.5,MacIntel,59.88023952,,,,,,,,,,,,,,,,,,,,,,,,597.3714,598.571,l,1,0.538,1,598.571,599.0719,,,,,,158,MAS,NOWORD,DIS,150,hico,,la,,0.538,,599.0719,599.072,0.8171875,0.012452952,0,0,0,,0,231,231,157,1,nido,,,,
,,,,,,5c9ebf067114700016da2813,676192165fb32c2e1fb7aee6,67d1559a2096bb6d09b411d0,2025-03-12_04h37.01.473,Tarea de decisión léxica,2024.2.5,MacIntel,59.88023952,,,,,,,,,,,,,,,,,,,,,,,,599.0728,600.3899,a,1,0.6485,1,600.39,600.8903,,,,,,141,FEM,WORD,DIS,150,cruz,,el,,0.6485,,600.8911,600.8919,0.8171875,0.012452952,0,0,0,,0,232,232,140,1,sina,,,,
,,,,,,5c9ebf067114700016da2813,676192165fb32c2e1fb7aee6,67d1559a2096bb6d09b411d0,2025-03-12_04h37.01.473,Tarea de decisión léxica,2024.2.5,MacIntel,59.88023952,,,,,,,,,,,,,,,,,,,,,,,,600.8927,602.5437,a,1,0.9665,1,602.5437,603.0361,,,,,,471,FEM,WORD,AGR,150,grasa,,la,,0.9665,,603.0362,603.0363,0.8171875,0.012452952,0,0,0,,0,233,233,470,1,prana,,,,
,,,,,,5c9ebf067114700016da2813,676192165fb32c2e1fb7aee6,67d1559a2096bb6d09b411d0,2025-03-12_04h37.01.473,Tarea de decisión léxica,2024.2.5,MacIntel,59.88023952,,,,,,,,,,,,,,,,,,,,,,,,603.0372,604.4258,l,1,0.711,1,604.4259,604.9271,,,,,,370,MAS,NOWORD,DIS,150,rioco,,la,,0.711,,604.9272,604.9273,0.8171875,0.012452952,0,0,0,,0,234,234,369,1,ruido,,,,
,,,,,,5c9ebf067114700016da2813,676192165fb32c2e1fb7aee6,67d1559a2096bb6d09b411d0,2025-03-12_04h37.01.473,Tarea de decisión léxica,2024.2.5,MacIntel,59.88023952,,,,,,,,,,,,,,,,,,,,,,,,604.9282,606.1551,a,1,0.5402,1,606.1551,606.6449,,,,,,421,MAS,WORD,DIS,150,primo,,la,,0.5402,,606.6449,606.645,0.8171875,0.012452952,0,0,0,,0,235,235,420,1,griso,,,,
,,,,,,5c9ebf067114700016da2813,676192165fb32c2e1fb7aee6,67d1559a2096bb6d09b411d0,2025-03-12_04h37.01.473,Tarea de decisión léxica,2024.2.5,MacIntel,59.88023952,,,,,,,,,,,,,,,,,,,,,,,,606.6463,607.9963,l,1,0.6902,1,607.9963,608.4966,,,,,,276,MAS,NOWORD,AGR,150,musto,,el,,0.6902,,608.4966,608.4967,0.8171875,0.012452952,0,0,0,,0,236,236,275,1,punto,,,,
,,,,,,5c9ebf067114700016da2813,676192165fb32c2e1fb7aee6,67d1559a2096bb6d09b411d0,2025-03-12_04h37.01.473,Tarea de decisión léxica,2024.2.5,MacIntel,59.88023952,,,,,,,,,,,,,,,,,,,,,,,,608.4975,609.7651,a,1,0.5904,1,609.7652,610.2641,,,,,,351,MAS,WORD,AGR,150,vuelo,,el,,0.5904,,610.265,610.2658,0.8171875,0.012452952,0,0,0,,0,237,237,350,1,duepo,,,,
,,,,,,5c9ebf067114700016da2813,676192165fb32c2e1fb7aee6,67d1559a2096bb6d09b411d0,2025-03-12_04h37.01.473,Tarea de decisión léxica,2024.2.5,MacIntel,59.88023952,,,,,,,,,,,,,,,,,,,,,,,,610.2664,611.3483,a,1,0.4012,1,611.3484,611.8487,,,,,,109,MAS,WORD,DIS,150,rayo,,la,,0.4012,,611.8487,611.8489,0.8171875,0.012452952,0,0,0,,0,238,238,108,1,suno,,,,
,,,,,,5c9ebf067114700016da2813,676192165fb32c2e1fb7aee6,67d1559a2096bb6d09b411d0,2025-03-12_04h37.01.473,Tarea de decisión léxica,2024.2.5,MacIntel,59.88023952,,,,,,,,,,,,,,,,,,,,,,,,611.8497,613.3002,l,1,0.7695,1,613.3003,613.8007,,,,,,480,MAS,NOWORD,AGR,150,rimpo,,el,,0.7695,,613.8008,613.8009,0.8171875,0.012452952,0,0,0,,0,239,239,479,1,rumbo,,,,
,,,,,,5c9ebf067114700016da2813,676192165fb32c2e1fb7aee6,67d1559a2096bb6d09b411d0,2025-03-12_04h37.01.473,Tarea de decisión léxica,2024.2.5,MacIntel,59.88023952,,,,,,,,,,,,,,,,,,,,,,,,613.8017,615.0344,a,1,0.5511,1,615.0345,615.535,,,,,,71,FEM,WORD,AGR,150,isla,,la,,0.5511,,615.535,615.5351,0.8171875,0.012452952,0,0,0,,0,240,240,70,1,urla,,,,
,,,,,,5c9ebf067114700016da2813,676192165fb32c2e1fb7aee6,67d1559a2096bb6d09b411d0,2025-03-12_04h37.01.473,Tarea de decisión léxica,2024.2.5,MacIntel,59.88023952,,,,,,,,,,,,,,,,,,,,,,,,615.5358,617.1529,a,1,0.9321,1,617.1529,617.6539,,,,,,267,MAS,WORD,AGR,150,libro,,el,,0.9321,,617.6539,617.6539,0.8171875,0.012452952,0,0,0,,0,241,241,266,1,figro,,,,
,,,,,,5c9ebf067114700016da2813,676192165fb32c2e1fb7aee6,67d1559a2096bb6d09b411d0,2025-03-12_04h37.01.473,Tarea de decisión léxica,2024.2.5,MacIntel,59.88023952,,,,,,,,,,,,,,,,,,,,,,,,617.6548,619.2047,a,1,0.8681,1,619.2047,619.6987,,,,,,61,FEM,WORD,DIS,150,obra,,el,,0.8681,,619.6995,619.7004,0.8171875,0.012452952,0,0,0,,0,242,242,60,1,efla,,,,
,,,,,,5c9ebf067114700016da2813,676192165fb32c2e1fb7aee6,67d1559a2096bb6d09b411d0,2025-03-12_04h37.01.473,Tarea de decisión léxica,2024.2.5,MacIntel,59.88023952,,,,,,,,,,,,,,,,,,,,,,,,619.7011,621.1234,a,1,0.751,1,621.1235,621.6233,,,,,,441,FEM,WORD,DIS,150,selva,,el,,0.751,,621.6234,621.6234,0.8171875,0.012452952,0,0,0,,0,243,243,440,1,telza,,,,
,,,,,,5c9ebf067114700016da2813,676192165fb32c2e1fb7aee6,67d1559a2096bb6d09b411d0,2025-03-12_04h37.01.473,Tarea de decisión léxica,2024.2.5,MacIntel,59.88023952,,,,,,,,,,,,,,,,,,,,,,,,621.6242,622.9753,l,1,0.6692,1,622.9754,623.4748,,,,,,420,MAS,NOWORD,AGR,150,chudo,,el,,0.6692,,623.4748,623.4749,0.8171875,0.012452952,0,0,0,,0,244,244,419,1,truco,,,,
,,,,,,5c9ebf067114700016da2813,676192165fb32c2e1fb7aee6,67d1559a2096bb6d09b411d0,2025-03-12_04h37.01.473,Tarea de decisión léxica,2024.2.5,MacIntel,59.88023952,,,,,,,,,,,,,,,,,,,,,,,,623.4758,625.1268,a,1,0.9885,1,625.127,625.6269,,,,,,397,FEM,WORD,DIS,150,tribu,,el,,0.9885,,625.627,625.6271,0.8171875,0.012452952,0,0,0,,0,245,245,396,1,trigi,,,,
,,,,,,5c9ebf067114700016da2813,676192165fb32c2e1fb7aee6,67d1559a2096bb6d09b411d0,2025-03-12_04h37.01.473,Tarea de decisión léxica,2024.2.5,MacIntel,59.88023952,,,,,,,,,,,,,,,,,,,,,,,,625.6279,627.1611,a,1,0.8525,1,627.1612,627.6615,,,,,,417,FEM,WORD,DIS,150,barba,,el,,0.8525,,627.6616,627.6616,0.8171875,0.012452952,0,0,0,,0,246,246,416,1,banja,,,,
,,,,,,5c9ebf067114700016da2813,676192165fb32c2e1fb7aee6,67d1559a2096bb6d09b411d0,2025-03-12_04h37.01.473,Tarea de decisión léxica,2024.2.5,MacIntel,59.88023952,,,,,,,,,,,,,,,,,,,,,,,,627.6625,629.1794,l,1,0.8529,1,629.1794,629.6801,,,,,,282,MAS,NOWORD,DIS,150,cauro,,la,,0.8529,,629.6811,629.6822,0.8171875,0.012452952,0,0,0,,0,247,247,281,1,cielo,,,,
,,,,,,5c9ebf067114700016da2813,676192165fb32c2e1fb7aee6,67d1559a2096bb6d09b411d0,2025-03-12_04h37.01.473,Tarea de decisión léxica,2024.2.5,MacIntel,59.88023952,,,,,,,,,,,,,,,,,,,,,,,,629.6836,631.0486,l,1,0.6828,1,631.0487,631.548,,,,,,422,MAS,NOWORD,DIS,150,griso,,la,,0.6828,,631.548,631.5481,0.8171875,0.012452952,0,0,0,,0,248,248,421,1,primo,,,,
,,,,,,5c9ebf067114700016da2813,676192165fb32c2e1fb7aee6,67d1559a2096bb6d09b411d0,2025-03-12_04h37.01.473,Tarea de decisión léxica,2024.2.5,MacIntel,59.88023952,,,,,,,,,,,,,,,,,,,,,,,,631.5489,633.0004,a,1,0.7848,1,633.0005,633.5004,,,,,,383,FEM,WORD,AGR,150,frase,,la,,0.7848,,633.5004,633.5006,0.8171875,0.012452952,0,0,0,,0,249,249,382,1,brame,,,,
,,,,,,5c9ebf067114700016da2813,676192165fb32c2e1fb7aee6,67d1559a2096bb6d09b411d0,2025-03-12_04h37.01.473,Tarea de decisión léxica,2024.2.5,MacIntel,59.88023952,,,,,,,,,,,,,,,,,,,,,,,,633.5024,635.0347,l,1,0.8684,1,635.0347,635.5361,,,,,,72,FEM,NOWORD,AGR,150,urla,,la,,0.8684,,635.5362,635.5365,0.8171875,0.012452952,0,0,0,,0,250,250,71,1,isla,,,,
,,,,,,5c9ebf067114700016da2813,676192165fb32c2e1fb7aee6,67d1559a2096bb6d09b411d0,2025-03-12_04h37.01.473,Tarea de decisión léxica,2024.2.5,MacIntel,59.88023952,,,,,,,,,,,,,,,,,,,,,,,,635.5375,636.9617,a,1,0.7523,1,636.9618,637.4541,,,,,,447,MAS,WORD,AGR,150,bolso,,el,,0.7523,,637.4552,637.4568,0.8171875,0.012452952,0,0,0,,0,251,251,446,1,buaso,,,,
,,,,,,5c9ebf067114700016da2813,676192165fb32c2e1fb7aee6,67d1559a2096bb6d09b411d0,2025-03-12_04h37.01.473,Tarea de decisión léxica,2024.2.5,MacIntel,59.88023952,,,,,,,,,,,,,,,,,,,,,,,,637.4577,638.8045,l,1,0.6728,1,638.8045,639.3053,,,,,,478,MAS,NOWORD,DIS,150,hocon,,la,,0.6728,,639.3053,639.3054,0.8171875,0.012452952,0,0,0,,0,252,252,477,1,botón,,,,
,,,,,,5c9ebf067114700016da2813,676192165fb32c2e1fb7aee6,67d1559a2096bb6d09b411d0,2025-03-12_04h37.01.473,Tarea de decisión léxica,2024.2.5,MacIntel,59.88023952,,,,,,,,,,,,,,,,,,,,,,,,639.3061,640.5722,l,1,0.5798,1,640.5723,641.0727,,,,,,70,FEM,NOWORD,DIS,150,ñola,,el,,0.5798,,641.0727,641.0728,0.8171875,0.012452952,0,0,0,,0,253,253,69,1,zona,,,,
,,,,,,5c9ebf067114700016da2813,676192165fb32c2e1fb7aee6,67d1559a2096bb6d09b411d0,2025-03-12_04h37.01.473,Tarea de decisión léxica,2024.2.5,MacIntel,59.88023952,,,,,,,,,,,,,,,,,,,,,,,,641.0742,642.3403,a,1,0.5913,1,642.3403,642.8408,,,,,,469,MAS,WORD,DIS,150,patio,,la,,0.5913,,642.8408,642.8409,0.8171875,0.012452952,0,0,0,,0,254,254,468,1,matia,,,,
,,,,,,5c9ebf067114700016da2813,676192165fb32c2e1fb7aee6,67d1559a2096bb6d09b411d0,2025-03-12_04h37.01.473,Tarea de decisión léxica,2024.2.5,MacIntel,59.88023952,,,,,,,,,,,,,,,,,,,,,,,,642.8424,644.3662,l,1,0.8485,1,644.3663,644.8593,,,,,,258,FEM,NOWORD,DIS,150,asama,,el,,0.8485,,644.8593,644.8594,0.8171875,0.012452952,0,0,0,,0,255,255,257,1,amiga,,,,
,,,,,,5c9ebf067114700016da2813,676192165fb32c2e1fb7aee6,67d1559a2096bb6d09b411d0,2025-03-12_04h37.01.473,Tarea de decisión léxica,2024.2.5,MacIntel,59.88023952,,,,,,,,,,,,,,,,,,,,,,,,644.8603,646.0939,l,1,0.5601,1,646.0941,646.5937,,,,,,410,MAS,NOWORD,DIS,150,pafro,,la,,0.5601,,646.5947,646.5958,0.8171875,0.012452952,0,0,0,,0,256,256,409,1,carro,,,,
,,,,,,5c9ebf067114700016da2813,676192165fb32c2e1fb7aee6,67d1559a2096bb6d09b411d0,2025-03-12_04h37.01.473,Tarea de decisión léxica,2024.2.5,MacIntel,59.88023952,,,,,,,,,,,,,,,,,,,,,,,,646.5967,647.8616,l,1,0.5832,1,647.8617,648.3419,,,,,,84,FEM,NOWORD,AGR,150,taga,,la,,0.5832,,648.3419,648.342,0.8171875,0.012452952,0,0,0,,0,257,257,83,1,bala,,,,
,,,,,,5c9ebf067114700016da2813,676192165fb32c2e1fb7aee6,67d1559a2096bb6d09b411d0,2025-03-12_04h37.01.473,Tarea de decisión léxica,2024.2.5,MacIntel,59.88023952,,,,,,,,,,,,,,,,,,,,,,,,648.343,649.5928,l,1,0.5871,1,649.5929,650.1068,,,,,,274,FEM,NOWORD,DIS,150,frosa,,el,,0.5871,,650.1068,650.1069,0.8171875,0.012452952,0,0,0,,0,258,258,273,1,broma,,,,
,,,,,,5c9ebf067114700016da2813,676192165fb32c2e1fb7aee6,67d1559a2096bb6d09b411d0,2025-03-12_04h37.01.473,Tarea de decisión léxica,2024.2.5,MacIntel,59.88023952,,,,,,,,,,,,,,,,,,,,,,,,650.1077,651.5761,a,0,0.8041,0,651.5769,652.0722,,,,,,134,FEM,NOWORD,DIS,150,vesa,,el,,0.8041,,652.0722,652.0723,0.8171875,0.012452952,0,0,0,,0,259,259,133,1,vaca,,,,
,,,,,,5c9ebf067114700016da2813,676192165fb32c2e1fb7aee6,67d1559a2096bb6d09b411d0,2025-03-12_04h37.01.473,Tarea de decisión léxica,2024.2.5,MacIntel,59.88023952,,,,,,,,,,,,,,,,,,,,,,,,652.0733,653.6168,l,1,0.8752,1,653.6177,654.1169,,,,,,292,FEM,NOWORD,AGR,150,mesta,,la,,0.8752,,654.117,654.1171,0.8171875,0.012452952,0,0,0,,0,260,260,291,1,pista,,,,
,,,,,,5c9ebf067114700016da2813,676192165fb32c2e1fb7aee6,67d1559a2096bb6d09b411d0,2025-03-12_04h37.01.473,Tarea de decisión léxica,2024.2.5,MacIntel,59.88023952,,,,,,,,,,,,,,,,,,,,,,,,654.119,655.351,a,1,0.566,1,655.3512,655.8522,,,,,,229,MAS,WORD,DIS,150,amor,,la,,0.566,,655.8532,655.8542,0.8171875,0.012452952,0,0,0,,0,261,261,228,1,ador,,,,
,,,,,,5c9ebf067114700016da2813,676192165fb32c2e1fb7aee6,67d1559a2096bb6d09b411d0,2025-03-12_04h37.01.473,Tarea de decisión léxica,2024.2.5,MacIntel,59.88023952,,,,,,,,,,,,,,,,,,,,,,,,655.855,657.287,l,1,0.7591,1,657.2871,657.7872,,,,,,368,MAS,NOWORD,AGR,150,rerob,,el,,0.7591,,657.7872,657.7873,0.8171875,0.012452952,0,0,0,,0,262,262,367,1,reloj,,,,
,,,,,,5c9ebf067114700016da2813,676192165fb32c2e1fb7aee6,67d1559a2096bb6d09b411d0,2025-03-12_04h37.01.473,Tarea de decisión léxica,2024.2.5,MacIntel,59.88023952,,,,,,,,,,,,,,,,,,,,,,,,657.7881,658.9543,l,1,0.4913,1,658.9543,659.4546,,,,,,200,MAS,NOWORD,AGR,150,fano,,el,,0.4913,,659.4547,659.4548,0.8171875,0.012452952,0,0,0,,0,263,263,199,1,lazo,,,,
