counterbalancing_condition,consent_prescreening.block_1/declare_consent,consent_prescreening.block_1/age_years,consent_prescreening.block_1/gender,consent_prescreening.block_1/language_disorder,consent_prescreening.block_1/first_language,PROLIFIC_PID,STUDY_ID,SESSION_ID,date,expName,psychopyVersion,OS,frameRate,check_prescreening_answers.started,check_prescreening_answers.stopped,Instructions.started,Instructions.stopped,instr_done_keyboard.keys,instr_done_touch.x,instr_done_touch.y,instr_done_touch.leftButton,instr_done_touch.midButton,instr_done_touch.rightButton,instr_done_touch.clicked_name,instruction_pages.thisRepN,instruction_pages.thisTrialN,instruction_pages.thisN,instruction_pages.thisIndex,instruction_pages.ran,pageN,phase,instruct_text,has_image,instruct_image,presentTrial.started,presentTrial.stopped,response.keys,response.corr,rt,corr,feedback.started,feedback.stopped,practice_trials.thisRepN,practice_trials.thisTrialN,practice_trials.thisN,practice_trials.thisIndex,practice_trials.ran,TrialID,Gender,StimulusType,Condition,PrimeDuration,Prime,len,Flanker,corrAns,response.rt,response.duration,Break.started,Break.stopped,break_done_touch.x,break_done_touch.y,break_done_touch.leftButton,break_done_touch.midButton,break_done_touch.rightButton,break_done_keyboard.keys,experiment_trials.thisRepN,experiment_trials.thisTrialN,experiment_trials.thisN,experiment_trials.thisIndex,experiment_trials.ran,PairedWith,break_done_touch.clicked_name,End.started,End.stopped
1,"[""over_18"",""comfortable"",""read_info"",""consent_given""]",36,M,"[""none""]","[""spanish""]",5d4652aa36bf400018d400bf,676192165fb32c2e1fb7aee6,67d1ab78aa296973d7e6813f,2025-03-12_09h43.16.291,Tarea de decisión léxica,2024.2.5,Win32,60.60606061,,,,,,,,,,,,,,,,,,,,,,,,,,,,,,,,,,,,,,,,,,,,,,,,,,,,,,,,,,,,,,
,,,,,,5d4652aa36bf400018d400bf,676192165fb32c2e1fb7aee6,67d1ab78aa296973d7e6813f,2025-03-12_09h43.16.291,Tarea de decisión léxica,2024.2.5,Win32,60.60606061,36.0019,36.0021,,,,,,,,,,,,,,,,,,,,,,,,,,,,,,,,,,,,,,,,,,,,,,,,,,,,,,,,,,,,
,,,,,,5d4652aa36bf400018d400bf,676192165fb32c2e1fb7aee6,67d1ab78aa296973d7e6813f,2025-03-12_09h43.16.291,Tarea de decisión léxica,2024.2.5,Win32,60.60606061,,,36.0182,47.0972,,0.067592593,-0.39537037,1,0,0,instr_done_button,0,0,0,0,1,1,instructions,"INSTRUCCIONES
Va a realizar una prueba de decisión léxica. Desde el comienzo de la prueba mire siempre al centro de la pantalla. Se presentará una serie de cadenas de letras, una a la vez, en la pantalla. Su tarea consiste en determinar si cada cadena de letras constituye una palabra real en español o una no-palabra (una secuencia de letras que no constituye una palabra real). 

Pulse la tecla ESPACIO para continuar.",0,keyboardresponseNW.png,,,,,,,,,,,,,,,,,,,,,,,,,,,,,,,,,,,,,,,,,
,,,,,,5d4652aa36bf400018d400bf,676192165fb32c2e1fb7aee6,67d1ab78aa296973d7e6813f,2025-03-12_09h43.16.291,Tarea de decisión léxica,2024.2.5,Win32,60.60606061,,,47.099,57.8603,,-0.037962963,-0.362962963,1,0,0,instr_done_button,0,1,1,1,1,2,instructions,"El procedimiento es el siguiente: Aparecerán dos barras verticales posicionadas en el centro de la pantalla, separadas por un pequeño espacio.Por favor, enfoque su atención en el espacio entre las barras. Esto preparará sus ojos para la siguiente cadena de letras, que aparecerá entre las dos barras durante un instante.

Pulse la tecla ESPACIO para continuar.",0,keyboardresponseNW.png,,,,,,,,,,,,,,,,,,,,,,,,,,,,,,,,,,,,,,,,,
,,,,,,5d4652aa36bf400018d400bf,676192165fb32c2e1fb7aee6,67d1ab78aa296973d7e6813f,2025-03-12_09h43.16.291,Tarea de decisión léxica,2024.2.5,Win32,60.60606061,,,57.8644,62.6744,,-0.037962963,-0.363888889,1,0,0,instr_done_button,0,2,2,2,1,3,instructions,"En el teclado de su dispositivo, pulse la tecla ""L"" si la cadena de letras es una palabra real en español (por ejemplo: ""mano"") y la tecla ""A"" si la cadena de letras es una no-palabra (por ejemplo: ""minu"").
Pulse la tecla ESPACIO para continuar.",1,keyboardresponseNW.png,,,,,,,,,,,,,,,,,,,,,,,,,,,,,,,,,,,,,,,,,
,,,,,,5d4652aa36bf400018d400bf,676192165fb32c2e1fb7aee6,67d1ab78aa296973d7e6813f,2025-03-12_09h43.16.291,Tarea de decisión léxica,2024.2.5,Win32,60.60606061,,,62.6772,63.9404,,-0.037962963,-0.363888889,1,0,0,instr_done_button,0,3,3,3,1,4,instructions,"Es muy importante que responda con la mayor rapidez y precisión posibles. Si no responde dentro de 2 segundos, aparecerá el mensaje ""Muy lento"" y el experimento pasará a la siguiente palabra. Inmediatamente después de su respuesta se indicará si fue correcta o no. Los primeros 15 intentos serán de práctica y habrá dos descansos durante la prueba.

Pulse la tecla ESPACIO  para iniciar la parte de práctica.",0,keyboardresponseNW.png,,,,,,,,,,,,,,,,,,,,,,,,,,,,,,,,,,,,,,,,,
,,,,,,5d4652aa36bf400018d400bf,676192165fb32c2e1fb7aee6,67d1ab78aa296973d7e6813f,2025-03-12_09h43.16.291,Tarea de decisión léxica,2024.2.5,Win32,60.60606061,,,,,,,,,,,,,,,,,,,,,,63.9495,66.5907,,0,,-1,66.591,67.0904,0,0,0,8,1,1009,FEM,WORD,AGR,150,viejo,5,la,l,,,,,,,,,,,,,,,,,,,
,,,,,,5d4652aa36bf400018d400bf,676192165fb32c2e1fb7aee6,67d1ab78aa296973d7e6813f,2025-03-12_09h43.16.291,Tarea de decisión léxica,2024.2.5,Win32,60.60606061,,,,,,,,,,,,,,,,,,,,,,67.0915,69.7282,,0,,-1,69.7282,70.2228,0,1,1,2,1,1003,FEM,NOWORD,DIS,150,muvor,5,el,a,,,,,,,,,,,,,,,,,,,
,,,,,,5d4652aa36bf400018d400bf,676192165fb32c2e1fb7aee6,67d1ab78aa296973d7e6813f,2025-03-12_09h43.16.291,Tarea de decisión léxica,2024.2.5,Win32,60.60606061,,,,,,,,,,,,,,,,,,,,,,70.2249,72.8714,,0,,-1,72.8719,73.3708,0,2,2,5,1,1006,FEM,WORD,AGR,150,cara,4,la,l,,,,,,,,,,,,,,,,,,,
,,,,,,5d4652aa36bf400018d400bf,676192165fb32c2e1fb7aee6,67d1ab78aa296973d7e6813f,2025-03-12_09h43.16.291,Tarea de decisión léxica,2024.2.5,Win32,60.60606061,,,,,,,,,,,,,,,,,,,,,,73.3746,75.1704,a,1,1.1194,1,75.1959,75.67,0,3,3,1,1,1002,FEM,NOWORD,DIS,150,mabo,4,el,a,1.1194,,,,,,,,,,,,,,,,,,
,,,,,,5d4652aa36bf400018d400bf,676192165fb32c2e1fb7aee6,67d1ab78aa296973d7e6813f,2025-03-12_09h43.16.291,Tarea de decisión léxica,2024.2.5,Win32,60.60606061,,,,,,,,,,,,,,,,,,,,,,75.6718,78.3191,,0,1.1194,-1,78.3197,78.8189,0,4,4,7,1,1008,MAS,WORD,DIS,150,frío,4,la,l,,,,,,,,,,,,,,,,,,,
,,,,,,5d4652aa36bf400018d400bf,676192165fb32c2e1fb7aee6,67d1ab78aa296973d7e6813f,2025-03-12_09h43.16.291,Tarea de decisión léxica,2024.2.5,Win32,60.60606061,,,,,,,,,,,,,,,,,,,,,,78.8196,80.485,a,1,0.9845,1,80.4857,80.9847,0,5,5,3,1,1004,FEM,NOWORD,AGR,150,bireo,5,la,a,0.9845,,,,,,,,,,,,,,,,,,
,,,,,,5d4652aa36bf400018d400bf,676192165fb32c2e1fb7aee6,67d1ab78aa296973d7e6813f,2025-03-12_09h43.16.291,Tarea de decisión léxica,2024.2.5,Win32,60.60606061,,,,,,,,,,,,,,,,,,,,,,80.986,82.901,a,1,1.2348,1,82.901,83.4006,0,6,6,4,1,1005,MAS,NOWORD,DIS,150,nobad,5,la,a,1.2348,,,,,,,,,,,,,,,,,,
,,,,,,5d4652aa36bf400018d400bf,676192165fb32c2e1fb7aee6,67d1ab78aa296973d7e6813f,2025-03-12_09h43.16.291,Tarea de decisión léxica,2024.2.5,Win32,60.60606061,,,,,,,,,,,,,,,,,,,,,,83.4016,84.7834,l,1,0.7064,1,84.7836,85.2833,0,7,7,9,1,1010,MAS,WORD,DIS,150,video,5,la,l,0.7064,,,,,,,,,,,,,,,,,,
,,,,,,5d4652aa36bf400018d400bf,676192165fb32c2e1fb7aee6,67d1ab78aa296973d7e6813f,2025-03-12_09h43.16.291,Tarea de decisión léxica,2024.2.5,Win32,60.60606061,,,,,,,,,,,,,,,,,,,,,,85.2845,87.0824,l,1,1.123,1,87.0825,87.5829,0,8,8,6,1,1007,MAS,WORD,DIS,150,masa,4,la,l,1.123,,,,,,,,,,,,,,,,,,
,,,,,,5d4652aa36bf400018d400bf,676192165fb32c2e1fb7aee6,67d1ab78aa296973d7e6813f,2025-03-12_09h43.16.291,Tarea de decisión léxica,2024.2.5,Win32,60.60606061,,,,,,,,,,,,,,,,,,,,,,87.5842,89.0318,a,1,0.7756,1,89.0318,89.5323,0,9,9,0,1,1001,FEM,NOWORD,AGR,150,croz,4,la,a,0.7756,,,,,,,,,,,,,,,,,,
,,,,,,5d4652aa36bf400018d400bf,676192165fb32c2e1fb7aee6,67d1ab78aa296973d7e6813f,2025-03-12_09h43.16.291,Tarea de decisión léxica,2024.2.5,Win32,60.60606061,,,93.0656,94.2967,,0.062962963,-0.4,1,0,0,instr_done_button,,,,,,,,,,,94.3198,96.213,l,1,1.217,1,96.2131,96.7127,,,,,,21,MAS,WORD,DIS,150,plan,,la,,1.217,,96.7129,96.7156,0.062962963,-0.4,0,0,0,,0,0,0,20,1,blan,,,
,,,,,,5d4652aa36bf400018d400bf,676192165fb32c2e1fb7aee6,67d1ab78aa296973d7e6813f,2025-03-12_09h43.16.291,Tarea de decisión léxica,2024.2.5,Win32,60.60606061,,,,,,,,,,,,,,,,,,,,,,96.716,97.9459,l,1,0.5519,1,97.946,98.4456,,,,,,95,FEM,WORD,AGR,151,moda,,la,,0.5519,,98.4456,98.4458,0.062962963,-0.4,0,0,0,,0,1,1,94,1,neda,,,
,,,,,,5d4652aa36bf400018d400bf,676192165fb32c2e1fb7aee6,67d1ab78aa296973d7e6813f,2025-03-12_09h43.16.291,Tarea de decisión léxica,2024.2.5,Win32,60.60606061,,,,,,,,,,,,,,,,,,,,,,98.4473,99.745,l,1,0.6253,1,99.745,100.2447,,,,,,391,MAS,WORD,AGR,150,dueño,,el,,0.6253,,100.246,100.2467,0.062962963,-0.4,0,0,0,,0,2,2,390,1,dievo,,,
,,,,,,5d4652aa36bf400018d400bf,676192165fb32c2e1fb7aee6,67d1ab78aa296973d7e6813f,2025-03-12_09h43.16.291,Tarea de decisión léxica,2024.2.5,Win32,60.60606061,,,,,,,,,,,,,,,,,,,,,,100.2473,101.5945,a,1,0.6746,1,101.5945,102.0942,,,,,,284,MAS,NOWORD,DIS,150,tuevo,,la,,0.6746,,102.0942,102.0942,0.062962963,-0.4,0,0,0,,0,3,3,283,1,sueño,,,
,,,,,,5d4652aa36bf400018d400bf,676192165fb32c2e1fb7aee6,67d1ab78aa296973d7e6813f,2025-03-12_09h43.16.291,Tarea de decisión léxica,2024.2.5,Win32,60.60606061,,,,,,,,,,,,,,,,,,,,,,102.095,103.6437,l,1,0.8765,1,103.6438,104.1435,,,,,,3,FEM,WORD,AGR,150,vida,,la,,0.8765,,104.1436,104.1436,0.062962963,-0.4,0,0,0,,0,4,4,2,1,dica,,,
,,,,,,5d4652aa36bf400018d400bf,676192165fb32c2e1fb7aee6,67d1ab78aa296973d7e6813f,2025-03-12_09h43.16.291,Tarea de decisión léxica,2024.2.5,Win32,60.60606061,,,,,,,,,,,,,,,,,,,,,,104.1443,105.5597,a,1,0.7325,1,105.5597,106.0598,,,,,,108,MAS,NOWORD,DIS,150,raot,,la,,0.7325,,106.0598,106.0599,0.062962963,-0.4,0,0,0,,0,5,5,107,1,saco,,,
,,,,,,5d4652aa36bf400018d400bf,676192165fb32c2e1fb7aee6,67d1ab78aa296973d7e6813f,2025-03-12_09h43.16.291,Tarea de decisión léxica,2024.2.5,Win32,60.60606061,,,,,,,,,,,,,,,,,,,,,,106.0606,107.6255,l,1,0.8827,1,107.6255,108.1256,,,,,,447,MAS,WORD,DIS,150,bolso,,la,,0.8827,,108.1257,108.1258,0.062962963,-0.4,0,0,0,,0,6,6,446,1,buaso,,,
,,,,,,5d4652aa36bf400018d400bf,676192165fb32c2e1fb7aee6,67d1ab78aa296973d7e6813f,2025-03-12_09h43.16.291,Tarea de decisión léxica,2024.2.5,Win32,60.60606061,,,,,,,,,,,,,,,,,,,,,,108.1266,109.5417,l,1,0.7346,1,109.5418,110.0415,,,,,,117,MAS,WORD,DIS,150,palo,,la,,0.7346,,110.0425,110.0432,0.062962963,-0.4,0,0,0,,0,7,7,116,1,movo,,,
,,,,,,5d4652aa36bf400018d400bf,676192165fb32c2e1fb7aee6,67d1ab78aa296973d7e6813f,2025-03-12_09h43.16.291,Tarea de decisión léxica,2024.2.5,Win32,60.60606061,,,,,,,,,,,,,,,,,,,,,,110.0437,111.3244,l,1,0.603,1,111.3245,111.8241,,,,,,135,MAS,WORD,DIS,150,tubo,,la,,0.603,,111.8241,111.8241,0.062962963,-0.4,0,0,0,,0,8,8,134,1,geso,,,
,,,,,,5d4652aa36bf400018d400bf,676192165fb32c2e1fb7aee6,67d1ab78aa296973d7e6813f,2025-03-12_09h43.16.291,Tarea de decisión léxica,2024.2.5,Win32,60.60606061,,,,,,,,,,,,,,,,,,,,,,111.8248,113.5572,a,1,1.0748,1,113.5572,114.0571,,,,,,20,MAS,NOWORD,DIS,150,himo,,la,,1.0748,,114.0572,114.0573,0.062962963,-0.4,0,0,0,,0,9,9,19,1,niño,,,
,,,,,,5d4652aa36bf400018d400bf,676192165fb32c2e1fb7aee6,67d1ab78aa296973d7e6813f,2025-03-12_09h43.16.291,Tarea de decisión léxica,2024.2.5,Win32,60.60606061,,,,,,,,,,,,,,,,,,,,,,114.0584,115.6402,l,1,0.905,1,115.6403,116.1403,,,,,,327,MAS,WORD,DIS,150,fondo,,la,,0.905,,116.1404,116.1404,0.062962963,-0.4,0,0,0,,0,10,10,326,1,lendo,,,
,,,,,,5d4652aa36bf400018d400bf,676192165fb32c2e1fb7aee6,67d1ab78aa296973d7e6813f,2025-03-12_09h43.16.291,Tarea de decisión léxica,2024.2.5,Win32,60.60606061,,,,,,,,,,,,,,,,,,,,,,116.1412,117.5402,a,1,0.7187,1,117.5403,118.0284,,,,,,358,FEM,NOWORD,AGR,150,gruba,,la,,0.7187,,118.0298,118.0303,0.062962963,-0.4,0,0,0,,0,11,11,357,1,bruja,,,
,,,,,,5d4652aa36bf400018d400bf,676192165fb32c2e1fb7aee6,67d1ab78aa296973d7e6813f,2025-03-12_09h43.16.291,Tarea de decisión léxica,2024.2.5,Win32,60.60606061,,,,,,,,,,,,,,,,,,,,,,118.0309,119.4394,l,1,0.7379,1,119.4398,119.939,,,,,,205,FEM,WORD,DIS,150,rana,,el,,0.7379,,119.9392,119.9395,0.062962963,-0.4,0,0,0,,0,12,12,204,1,bara,,,
,,,,,,5d4652aa36bf400018d400bf,676192165fb32c2e1fb7aee6,67d1ab78aa296973d7e6813f,2025-03-12_09h43.16.291,Tarea de decisión léxica,2024.2.5,Win32,60.60606061,,,,,,,,,,,,,,,,,,,,,,119.9407,121.4886,a,1,0.8683,1,121.4889,121.9875,,,,,,406,FEM,NOWORD,AGR,150,rarra,,la,,0.8683,,121.9875,121.9876,0.062962963,-0.4,0,0,0,,0,13,13,405,1,barra,,,
,,,,,,5d4652aa36bf400018d400bf,676192165fb32c2e1fb7aee6,67d1ab78aa296973d7e6813f,2025-03-12_09h43.16.291,Tarea de decisión léxica,2024.2.5,Win32,60.60606061,,,,,,,,,,,,,,,,,,,,,,121.9901,123.5204,a,1,0.8512,1,123.5205,124.0203,,,,,,460,MAS,NOWORD,DIS,150,fraco,,la,,0.8512,,124.0204,124.0205,0.062962963,-0.4,0,0,0,,0,14,14,459,1,grado,,,
,,,,,,5d4652aa36bf400018d400bf,676192165fb32c2e1fb7aee6,67d1ab78aa296973d7e6813f,2025-03-12_09h43.16.291,Tarea de decisión léxica,2024.2.5,Win32,60.60606061,,,,,,,,,,,,,,,,,,,,,,124.0221,125.3864,l,1,0.6846,1,125.3864,125.8862,,,,,,193,FEM,WORD,DIS,150,loca,,el,,0.6846,,125.8862,125.8863,0.062962963,-0.4,0,0,0,,0,15,15,192,1,foda,,,
,,,,,,5d4652aa36bf400018d400bf,676192165fb32c2e1fb7aee6,67d1ab78aa296973d7e6813f,2025-03-12_09h43.16.291,Tarea de decisión léxica,2024.2.5,Win32,60.60606061,,,,,,,,,,,,,,,,,,,,,,125.8869,127.6691,l,1,1.1016,1,127.6691,128.1692,,,,,,71,FEM,WORD,AGR,150,isla,,la,,1.1016,,128.1706,128.1727,0.062962963,-0.4,0,0,0,,0,16,16,70,1,urla,,,
,,,,,,5d4652aa36bf400018d400bf,676192165fb32c2e1fb7aee6,67d1ab78aa296973d7e6813f,2025-03-12_09h43.16.291,Tarea de decisión léxica,2024.2.5,Win32,60.60606061,,,,,,,,,,,,,,,,,,,,,,128.1738,129.6349,l,1,0.7858,1,129.6349,130.135,,,,,,69,FEM,WORD,DIS,150,zona,,el,,0.7858,,130.1351,130.1352,0.062962963,-0.4,0,0,0,,0,17,17,68,1,ñola,,,
,,,,,,5d4652aa36bf400018d400bf,676192165fb32c2e1fb7aee6,67d1ab78aa296973d7e6813f,2025-03-12_09h43.16.291,Tarea de decisión léxica,2024.2.5,Win32,60.60606061,,,,,,,,,,,,,,,,,,,,,,130.1362,131.5676,l,1,0.7507,1,131.5676,132.0673,,,,,,339,MAS,WORD,DIS,150,brazo,,la,,0.7507,,132.0674,132.0674,0.062962963,-0.4,0,0,0,,0,18,18,338,1,plajo,,,
,,,,,,5d4652aa36bf400018d400bf,676192165fb32c2e1fb7aee6,67d1ab78aa296973d7e6813f,2025-03-12_09h43.16.291,Tarea de decisión léxica,2024.2.5,Win32,60.60606061,,,,,,,,,,,,,,,,,,,,,,132.0679,133.2671,a,1,0.5169,1,133.2672,133.767,,,,,,98,MAS,NOWORD,AGR,150,fopo,,el,,0.5169,,133.767,133.767,0.062962963,-0.4,0,0,0,,0,19,19,97,1,mono,,,
,,,,,,5d4652aa36bf400018d400bf,676192165fb32c2e1fb7aee6,67d1ab78aa296973d7e6813f,2025-03-12_09h43.16.291,Tarea de decisión léxica,2024.2.5,Win32,60.60606061,,,,,,,,,,,,,,,,,,,,,,133.7681,135.1499,a,1,0.6998,1,135.1499,135.6496,,,,,,456,MAS,NOWORD,DIS,150,riaso,,la,,0.6998,,135.6497,135.6498,0.062962963,-0.4,0,0,0,,0,20,20,455,1,reino,,,
,,,,,,5d4652aa36bf400018d400bf,676192165fb32c2e1fb7aee6,67d1ab78aa296973d7e6813f,2025-03-12_09h43.16.291,Tarea de decisión léxica,2024.2.5,Win32,60.60606061,,,,,,,,,,,,,,,,,,,,,,135.6507,137.0324,l,1,0.7001,1,137.0325,137.5321,,,,,,295,MAS,WORD,AGR,150,dolor,,el,,0.7001,,137.533,137.5336,0.062962963,-0.4,0,0,0,,0,21,21,294,1,goler,,,
,,,,,,5d4652aa36bf400018d400bf,676192165fb32c2e1fb7aee6,67d1ab78aa296973d7e6813f,2025-03-12_09h43.16.291,Tarea de decisión léxica,2024.2.5,Win32,60.60606061,,,,,,,,,,,,,,,,,,,,,,137.534,138.8316,l,1,0.6165,1,138.8317,139.3317,,,,,,159,MAS,WORD,AGR,150,giro,,el,,0.6165,,139.3317,139.3317,0.062962963,-0.4,0,0,0,,0,22,22,158,1,bilo,,,
,,,,,,5d4652aa36bf400018d400bf,676192165fb32c2e1fb7aee6,67d1ab78aa296973d7e6813f,2025-03-12_09h43.16.291,Tarea de decisión léxica,2024.2.5,Win32,60.60606061,,,,,,,,,,,,,,,,,,,,,,139.3326,140.648,l,1,0.6357,1,140.648,141.1474,,,,,,107,MAS,WORD,AGR,150,saco,,el,,0.6357,,141.1475,141.1476,0.062962963,-0.4,0,0,0,,0,23,23,106,1,raot,,,
,,,,,,5d4652aa36bf400018d400bf,676192165fb32c2e1fb7aee6,67d1ab78aa296973d7e6813f,2025-03-12_09h43.16.291,Tarea de decisión léxica,2024.2.5,Win32,60.60606061,,,,,,,,,,,,,,,,,,,,,,141.1482,142.647,l,1,0.8181,1,142.6471,143.1472,,,,,,397,FEM,WORD,DIS,150,tribu,,el,,0.8181,,143.1472,143.1473,0.062962963,-0.4,0,0,0,,0,24,24,396,1,trigi,,,
,,,,,,5d4652aa36bf400018d400bf,676192165fb32c2e1fb7aee6,67d1ab78aa296973d7e6813f,2025-03-12_09h43.16.291,Tarea de decisión léxica,2024.2.5,Win32,60.60606061,,,,,,,,,,,,,,,,,,,,,,143.1481,144.3966,l,1,0.5654,1,144.3967,144.8965,,,,,,91,FEM,WORD,AGR,150,taza,,la,,0.5654,,144.8966,144.8967,0.062962963,-0.4,0,0,0,,0,25,25,90,1,sava,,,
,,,,,,5d4652aa36bf400018d400bf,676192165fb32c2e1fb7aee6,67d1ab78aa296973d7e6813f,2025-03-12_09h43.16.291,Tarea de decisión léxica,2024.2.5,Win32,60.60606061,,,,,,,,,,,,,,,,,,,,,,144.8973,146.1623,l,1,0.5842,1,146.1625,146.6629,,,,,,199,MAS,WORD,AGR,150,lazo,,el,,0.5842,,146.6641,146.6646,0.062962963,-0.4,0,0,0,,0,26,26,198,1,fano,,,
,,,,,,5d4652aa36bf400018d400bf,676192165fb32c2e1fb7aee6,67d1ab78aa296973d7e6813f,2025-03-12_09h43.16.291,Tarea de decisión léxica,2024.2.5,Win32,60.60606061,,,,,,,,,,,,,,,,,,,,,,146.6651,147.9621,l,1,0.6169,1,147.9623,148.4618,,,,,,55,MAS,WORD,AGR,150,gato,,el,,0.6169,,148.462,148.462,0.062962963,-0.4,0,0,0,,0,27,27,54,1,jado,,,
,,,,,,5d4652aa36bf400018d400bf,676192165fb32c2e1fb7aee6,67d1ab78aa296973d7e6813f,2025-03-12_09h43.16.291,Tarea de decisión léxica,2024.2.5,Win32,60.60606061,,,,,,,,,,,,,,,,,,,,,,148.4626,149.8784,a,1,0.7338,1,149.8784,150.3781,,,,,,226,MAS,NOWORD,AGR,150,boco,,el,,0.7338,,150.3781,150.3782,0.062962963,-0.4,0,0,0,,0,28,28,225,1,lodo,,,
,,,,,,5d4652aa36bf400018d400bf,676192165fb32c2e1fb7aee6,67d1ab78aa296973d7e6813f,2025-03-12_09h43.16.291,Tarea de decisión léxica,2024.2.5,Win32,60.60606061,,,,,,,,,,,,,,,,,,,,,,150.379,151.845,l,1,0.7836,1,151.845,152.3449,,,,,,365,FEM,WORD,AGR,150,ducha,,la,,0.7836,,152.3449,152.345,0.062962963,-0.4,0,0,0,,0,29,29,364,1,gulla,,,
,,,,,,5d4652aa36bf400018d400bf,676192165fb32c2e1fb7aee6,67d1ab78aa296973d7e6813f,2025-03-12_09h43.16.291,Tarea de decisión léxica,2024.2.5,Win32,60.60606061,,,,,,,,,,,,,,,,,,,,,,152.3461,153.8781,a,1,0.8497,1,153.8781,154.3784,,,,,,340,MAS,NOWORD,DIS,150,plajo,,la,,0.8497,,154.3785,154.3786,0.062962963,-0.4,0,0,0,,0,30,30,339,1,brazo,,,
,,,,,,5d4652aa36bf400018d400bf,676192165fb32c2e1fb7aee6,67d1ab78aa296973d7e6813f,2025-03-12_09h43.16.291,Tarea de decisión léxica,2024.2.5,Win32,60.60606061,,,,,,,,,,,,,,,,,,,,,,154.3791,156.0772,l,1,1.0316,1,156.0773,156.5776,,,,,,29,MAS,WORD,DIS,150,modo,,la,,1.0316,,156.5787,156.5792,0.062962963,-0.4,0,0,0,,0,31,31,28,1,pono,,,
,,,,,,5d4652aa36bf400018d400bf,676192165fb32c2e1fb7aee6,67d1ab78aa296973d7e6813f,2025-03-12_09h43.16.291,Tarea de decisión léxica,2024.2.5,Win32,60.60606061,,,,,,,,,,,,,,,,,,,,,,156.5796,157.9453,a,1,0.685,1,157.9455,158.4446,,,,,,296,MAS,NOWORD,DIS,150,goler,,la,,0.685,,158.4447,158.4447,0.062962963,-0.4,0,0,0,,0,32,32,295,1,dolor,,,
,,,,,,5d4652aa36bf400018d400bf,676192165fb32c2e1fb7aee6,67d1ab78aa296973d7e6813f,2025-03-12_09h43.16.291,Tarea de decisión léxica,2024.2.5,Win32,60.60606061,,,,,,,,,,,,,,,,,,,,,,158.4456,159.93,a,1,0.802,1,159.9301,160.4287,,,,,,276,MAS,NOWORD,DIS,150,musto,,la,,0.802,,160.4288,160.4289,0.062962963,-0.4,0,0,0,,0,33,33,275,1,punto,,,
,,,,,,5d4652aa36bf400018d400bf,676192165fb32c2e1fb7aee6,67d1ab78aa296973d7e6813f,2025-03-12_09h43.16.291,Tarea de decisión léxica,2024.2.5,Win32,60.60606061,,,,,,,,,,,,,,,,,,,,,,160.4296,162.0946,a,1,0.9837,1,162.0946,162.5952,,,,,,178,MAS,NOWORD,AGR,150,bito,,el,,0.9837,,162.5952,162.5952,0.062962963,-0.4,0,0,0,,0,34,34,177,1,reto,,,
,,,,,,5d4652aa36bf400018d400bf,676192165fb32c2e1fb7aee6,67d1ab78aa296973d7e6813f,2025-03-12_09h43.16.291,Tarea de decisión léxica,2024.2.5,Win32,60.60606061,,,,,,,,,,,,,,,,,,,,,,162.5959,163.9135,l,1,0.6351,1,163.9137,164.4115,,,,,,355,FEM,WORD,AGR,150,regla,,la,,0.6351,,164.4125,164.4129,0.062962963,-0.4,0,0,0,,0,35,35,354,1,bepla,,,
,,,,,,5d4652aa36bf400018d400bf,676192165fb32c2e1fb7aee6,67d1ab78aa296973d7e6813f,2025-03-12_09h43.16.291,Tarea de decisión léxica,2024.2.5,Win32,60.60606061,,,,,,,,,,,,,,,,,,,,,,164.4133,165.9286,a,1,0.8339,1,165.9288,166.4279,,,,,,94,FEM,NOWORD,AGR,150,rona,,la,,0.8339,,166.4279,166.4279,0.062962963,-0.4,0,0,0,,0,36,36,93,1,bola,,,
,,,,,,5d4652aa36bf400018d400bf,676192165fb32c2e1fb7aee6,67d1ab78aa296973d7e6813f,2025-03-12_09h43.16.291,Tarea de decisión léxica,2024.2.5,Win32,60.60606061,,,,,,,,,,,,,,,,,,,,,,166.4285,168.2609,l,1,1.1502,1,168.2609,168.7612,,,,,,299,FEM,WORD,DIS,150,bolsa,,el,,1.1502,,168.7612,168.7613,0.062962963,-0.4,0,0,0,,0,37,37,298,1,bosga,,,
,,,,,,5d4652aa36bf400018d400bf,676192165fb32c2e1fb7aee6,67d1ab78aa296973d7e6813f,2025-03-12_09h43.16.291,Tarea de decisión léxica,2024.2.5,Win32,60.60606061,,,,,,,,,,,,,,,,,,,,,,168.7627,170.0626,l,1,0.6184,1,170.0627,170.5632,,,,,,61,FEM,WORD,AGR,150,obra,,la,,0.6184,,170.5633,170.5633,0.062962963,-0.4,0,0,0,,0,38,38,60,1,efla,,,
,,,,,,5d4652aa36bf400018d400bf,676192165fb32c2e1fb7aee6,67d1ab78aa296973d7e6813f,2025-03-12_09h43.16.291,Tarea de decisión léxica,2024.2.5,Win32,60.60606061,,,,,,,,,,,,,,,,,,,,,,170.5638,171.9612,l,1,0.7171,1,171.9613,172.4614,,,,,,171,MAS,WORD,DIS,150,hilo,,la,,0.7171,,172.4614,172.4615,0.062962963,-0.4,0,0,0,,0,39,39,170,1,niro,,,
,,,,,,5d4652aa36bf400018d400bf,676192165fb32c2e1fb7aee6,67d1ab78aa296973d7e6813f,2025-03-12_09h43.16.291,Tarea de decisión léxica,2024.2.5,Win32,60.60606061,,,,,,,,,,,,,,,,,,,,,,172.4623,173.9113,a,1,0.7671,1,173.9113,174.4113,,,,,,190,MAS,NOWORD,AGR,150,muvo,,el,,0.7671,,174.4123,174.4127,0.062962963,-0.4,0,0,0,,0,40,40,189,1,puño,,,
,,,,,,5d4652aa36bf400018d400bf,676192165fb32c2e1fb7aee6,67d1ab78aa296973d7e6813f,2025-03-12_09h43.16.291,Tarea de decisión léxica,2024.2.5,Win32,60.60606061,,,,,,,,,,,,,,,,,,,,,,174.4133,175.8949,a,1,0.8009,1,175.8949,176.3949,,,,,,66,MAS,NOWORD,AGR,150,nios,,el,,0.8009,,176.3949,176.395,0.062962963,-0.4,0,0,0,,0,41,41,65,1,dios,,,
,,,,,,5d4652aa36bf400018d400bf,676192165fb32c2e1fb7aee6,67d1ab78aa296973d7e6813f,2025-03-12_09h43.16.291,Tarea de decisión léxica,2024.2.5,Win32,60.60606061,,,,,,,,,,,,,,,,,,,,,,176.3959,177.9614,l,1,0.8841,1,177.9614,178.4609,,,,,,375,FEM,WORD,DIS,150,salsa,,el,,0.8841,,178.461,178.4611,0.062962963,-0.4,0,0,0,,0,42,42,374,1,sasna,,,
,,,,,,5d4652aa36bf400018d400bf,676192165fb32c2e1fb7aee6,67d1ab78aa296973d7e6813f,2025-03-12_09h43.16.291,Tarea de decisión léxica,2024.2.5,Win32,60.60606061,,,,,,,,,,,,,,,,,,,,,,178.4624,179.8605,a,1,0.7331,1,179.8606,180.361,,,,,,324,FEM,NOWORD,DIS,150,certa,,el,,0.7331,,180.361,180.361,0.062962963,-0.4,0,0,0,,0,43,43,323,1,cinta,,,
,,,,,,5d4652aa36bf400018d400bf,676192165fb32c2e1fb7aee6,67d1ab78aa296973d7e6813f,2025-03-12_09h43.16.291,Tarea de decisión léxica,2024.2.5,Win32,60.60606061,,,,,,,,,,,,,,,,,,,,,,180.3616,181.761,a,1,0.7331,1,181.761,182.2617,,,,,,220,FEM,NOWORD,DIS,150,miva,,el,,0.7331,,182.2618,182.2619,0.062962963,-0.4,0,0,0,,0,44,44,219,1,pipa,,,
,,,,,,5d4652aa36bf400018d400bf,676192165fb32c2e1fb7aee6,67d1ab78aa296973d7e6813f,2025-03-12_09h43.16.291,Tarea de decisión léxica,2024.2.5,Win32,60.60606061,,,,,,,,,,,,,,,,,,,,,,182.2626,183.728,l,1,0.7837,1,183.7281,184.2288,,,,,,57,MAS,WORD,DIS,150,dedo,,la,,0.7837,,184.2297,184.2304,0.062962963,-0.4,0,0,0,,0,45,45,56,1,heco,,,
,,,,,,5d4652aa36bf400018d400bf,676192165fb32c2e1fb7aee6,67d1ab78aa296973d7e6813f,2025-03-12_09h43.16.291,Tarea de decisión léxica,2024.2.5,Win32,60.60606061,,,,,,,,,,,,,,,,,,,,,,184.231,185.5627,a,1,0.6513,1,185.5627,186.0621,,,,,,314,MAS,NOWORD,AGR,150,govio,,el,,0.6513,,186.0622,186.0623,0.062962963,-0.4,0,0,0,,0,46,46,313,1,novio,,,
,,,,,,5d4652aa36bf400018d400bf,676192165fb32c2e1fb7aee6,67d1ab78aa296973d7e6813f,2025-03-12_09h43.16.291,Tarea de decisión léxica,2024.2.5,Win32,60.60606061,,,,,,,,,,,,,,,,,,,,,,186.063,187.3776,l,1,0.6339,1,187.3776,187.8786,,,,,,323,FEM,WORD,AGR,150,cinta,,la,,0.6339,,187.8786,187.8787,0.062962963,-0.4,0,0,0,,0,47,47,322,1,certa,,,
,,,,,,5d4652aa36bf400018d400bf,676192165fb32c2e1fb7aee6,67d1ab78aa296973d7e6813f,2025-03-12_09h43.16.291,Tarea de decisión léxica,2024.2.5,Win32,60.60606061,,,,,,,,,,,,,,,,,,,,,,187.8795,189.3282,a,1,0.7661,1,189.3283,189.8278,,,,,,300,FEM,NOWORD,DIS,150,bosga,,el,,0.7661,,189.8279,189.8279,0.062962963,-0.4,0,0,0,,0,48,48,299,1,bolsa,,,
,,,,,,5d4652aa36bf400018d400bf,676192165fb32c2e1fb7aee6,67d1ab78aa296973d7e6813f,2025-03-12_09h43.16.291,Tarea de decisión léxica,2024.2.5,Win32,60.60606061,,,,,,,,,,,,,,,,,,,,,,189.8285,191.0954,l,1,0.5847,1,191.0954,191.5945,,,,,,437,FEM,WORD,DIS,150,plaza,,el,,0.5847,,191.5945,191.5946,0.062962963,-0.4,0,0,0,,0,49,49,436,1,glava,,,
,,,,,,5d4652aa36bf400018d400bf,676192165fb32c2e1fb7aee6,67d1ab78aa296973d7e6813f,2025-03-12_09h43.16.291,Tarea de decisión léxica,2024.2.5,Win32,60.60606061,,,,,,,,,,,,,,,,,,,,,,191.5955,192.9612,l,1,0.6832,1,192.9613,193.4612,,,,,,389,MAS,WORD,DIS,150,cerdo,,la,,0.6832,,193.4619,193.4623,0.062962963,-0.4,0,0,0,,0,50,50,388,1,cenco,,,
,,,,,,5d4652aa36bf400018d400bf,676192165fb32c2e1fb7aee6,67d1ab78aa296973d7e6813f,2025-03-12_09h43.16.291,Tarea de decisión léxica,2024.2.5,Win32,60.60606061,,,,,,,,,,,,,,,,,,,,,,193.4628,194.7471,a,1,0.6185,1,194.7473,195.246,,,,,,84,FEM,NOWORD,DIS,150,taga,,el,,0.6185,,195.2461,195.2462,0.062962963,-0.4,0,0,0,,0,51,51,83,1,bala,,,
,,,,,,5d4652aa36bf400018d400bf,676192165fb32c2e1fb7aee6,67d1ab78aa296973d7e6813f,2025-03-12_09h43.16.291,Tarea de decisión léxica,2024.2.5,Win32,60.60606061,,,,,,,,,,,,,,,,,,,,,,195.2472,196.612,a,1,0.6835,1,196.612,197.1131,,,,,,330,MAS,NOWORD,AGR,150,nueno,,el,,0.6835,,197.1131,197.1132,0.062962963,-0.4,0,0,0,,0,52,52,329,1,hueso,,,
,,,,,,5d4652aa36bf400018d400bf,676192165fb32c2e1fb7aee6,67d1ab78aa296973d7e6813f,2025-03-12_09h43.16.291,Tarea de decisión léxica,2024.2.5,Win32,60.60606061,,,,,,,,,,,,,,,,,,,,,,197.1142,198.3449,l,1,0.5588,1,198.345,198.8447,,,,,,411,MAS,WORD,AGR,150,pollo,,el,,0.5588,,198.8448,198.8449,0.062962963,-0.4,0,0,0,,0,53,53,410,1,mobro,,,
,,,,,,5d4652aa36bf400018d400bf,676192165fb32c2e1fb7aee6,67d1ab78aa296973d7e6813f,2025-03-12_09h43.16.291,Tarea de decisión léxica,2024.2.5,Win32,60.60606061,,,,,,,,,,,,,,,,,,,,,,198.8456,200.1109,l,0,0.5923,0,200.1116,200.611,,,,,,64,FEM,NOWORD,DIS,150,funa,,el,,0.5923,,200.611,200.611,0.062962963,-0.4,0,0,0,,0,54,54,63,1,luna,,,
,,,,,,5d4652aa36bf400018d400bf,676192165fb32c2e1fb7aee6,67d1ab78aa296973d7e6813f,2025-03-12_09h43.16.291,Tarea de decisión léxica,2024.2.5,Win32,60.60606061,,,,,,,,,,,,,,,,,,,,,,200.6118,202.2103,l,1,0.9252,1,202.2108,202.7104,,,,,,109,MAS,WORD,DIS,150,rayo,,la,,0.9252,,202.7121,202.7131,0.062962963,-0.4,0,0,0,,0,55,55,108,1,suno,,,
,,,,,,5d4652aa36bf400018d400bf,676192165fb32c2e1fb7aee6,67d1ab78aa296973d7e6813f,2025-03-12_09h43.16.291,Tarea de decisión léxica,2024.2.5,Win32,60.60606061,,,,,,,,,,,,,,,,,,,,,,202.7137,204.1429,a,1,0.7499,1,204.143,204.643,,,,,,466,FEM,NOWORD,AGR,150,asuba,,la,,0.7499,,204.643,204.6431,0.062962963,-0.4,0,0,0,,0,56,56,465,1,aguja,,,
,,,,,,5d4652aa36bf400018d400bf,676192165fb32c2e1fb7aee6,67d1ab78aa296973d7e6813f,2025-03-12_09h43.16.291,Tarea de decisión léxica,2024.2.5,Win32,60.60606061,,,,,,,,,,,,,,,,,,,,,,204.6438,206.1093,l,1,0.7846,1,206.1093,206.6087,,,,,,399,MAS,WORD,DIS,150,techo,,la,,0.7846,,206.6088,206.6088,0.062962963,-0.4,0,0,0,,0,57,57,398,1,serro,,,
,,,,,,5d4652aa36bf400018d400bf,676192165fb32c2e1fb7aee6,67d1ab78aa296973d7e6813f,2025-03-12_09h43.16.291,Tarea de decisión léxica,2024.2.5,Win32,60.60606061,,,,,,,,,,,,,,,,,,,,,,206.6094,207.9419,l,1,0.651,1,207.942,208.4417,,,,,,307,MAS,WORD,AGR,150,hotel,,el,,0.651,,208.4418,208.4419,0.062962963,-0.4,0,0,0,,0,58,58,306,1,holol,,,
,,,,,,5d4652aa36bf400018d400bf,676192165fb32c2e1fb7aee6,67d1ab78aa296973d7e6813f,2025-03-12_09h43.16.291,Tarea de decisión léxica,2024.2.5,Win32,60.60606061,,,,,,,,,,,,,,,,,,,,,,208.4427,209.6915,a,1,0.5779,1,209.6915,210.191,,,,,,116,FEM,NOWORD,DIS,150,haca,,el,,0.5779,,210.1916,210.1927,0.062962963,-0.4,0,0,0,,0,59,59,115,1,pata,,,
,,,,,,5d4652aa36bf400018d400bf,676192165fb32c2e1fb7aee6,67d1ab78aa296973d7e6813f,2025-03-12_09h43.16.291,Tarea de decisión léxica,2024.2.5,Win32,60.60606061,,,,,,,,,,,,,,,,,,,,,,210.1938,211.5742,a,1,0.7054,1,211.5743,212.0741,,,,,,272,FEM,NOWORD,DIS,150,refal,,el,,0.7054,,212.0741,212.0741,0.062962963,-0.4,0,0,0,,0,60,60,271,1,señal,,,
,,,,,,5d4652aa36bf400018d400bf,676192165fb32c2e1fb7aee6,67d1ab78aa296973d7e6813f,2025-03-12_09h43.16.291,Tarea de decisión léxica,2024.2.5,Win32,60.60606061,,,,,,,,,,,,,,,,,,,,,,212.0748,213.4906,l,1,0.7347,1,213.4906,213.991,,,,,,343,FEM,WORD,AGR,150,plata,,la,,0.7347,,213.9911,213.9913,0.062962963,-0.4,0,0,0,,0,61,61,342,1,trada,,,
,,,,,,5d4652aa36bf400018d400bf,676192165fb32c2e1fb7aee6,67d1ab78aa296973d7e6813f,2025-03-12_09h43.16.291,Tarea de decisión léxica,2024.2.5,Win32,60.60606061,,,,,,,,,,,,,,,,,,,,,,213.9928,215.3736,l,1,0.7009,1,215.3737,215.874,,,,,,101,MAS,WORD,DIS,150,tono,,la,,0.7009,,215.8741,215.8741,0.062962963,-0.4,0,0,0,,0,62,62,100,1,gito,,,
,,,,,,5d4652aa36bf400018d400bf,676192165fb32c2e1fb7aee6,67d1ab78aa296973d7e6813f,2025-03-12_09h43.16.291,Tarea de decisión léxica,2024.2.5,Win32,60.60606061,,,,,,,,,,,,,,,,,,,,,,215.8757,217.2238,a,1,0.667,1,217.224,217.7234,,,,,,250,FEM,NOWORD,AGR,150,plane,,la,,0.667,,217.7235,217.7236,0.062962963,-0.4,0,0,0,,0,63,63,249,1,clase,,,
,,,,,,5d4652aa36bf400018d400bf,676192165fb32c2e1fb7aee6,67d1ab78aa296973d7e6813f,2025-03-12_09h43.16.291,Tarea de decisión léxica,2024.2.5,Win32,60.60606061,,,,,,,,,,,,,,,,,,,,,,217.7242,219.2394,a,1,0.8324,1,219.2398,219.7377,,,,,,34,FEM,NOWORD,AGR,150,loda,,la,,0.8324,,219.7403,219.7407,0.062962963,-0.4,0,0,0,,0,64,64,33,1,boca,,,
,,,,,,5d4652aa36bf400018d400bf,676192165fb32c2e1fb7aee6,67d1ab78aa296973d7e6813f,2025-03-12_09h43.16.291,Tarea de decisión léxica,2024.2.5,Win32,60.60606061,,,,,,,,,,,,,,,,,,,,,,219.7412,221.0549,l,1,0.6361,1,221.0554,221.5542,,,,,,333,FEM,WORD,AGR,150,tarea,,la,,0.6361,,221.5544,221.5547,0.062962963,-0.4,0,0,0,,0,65,65,332,1,dalea,,,
,,,,,,5d4652aa36bf400018d400bf,676192165fb32c2e1fb7aee6,67d1ab78aa296973d7e6813f,2025-03-12_09h43.16.291,Tarea de decisión léxica,2024.2.5,Win32,60.60606061,,,,,,,,,,,,,,,,,,,,,,221.5575,222.9534,a,1,0.7225,1,222.9534,223.4533,,,,,,122,MAS,NOWORD,AGR,150,bomo,,el,,0.7225,,223.4533,223.4534,0.062962963,-0.4,0,0,0,,0,66,66,121,1,hoyo,,,
,,,,,,5d4652aa36bf400018d400bf,676192165fb32c2e1fb7aee6,67d1ab78aa296973d7e6813f,2025-03-12_09h43.16.291,Tarea de decisión léxica,2024.2.5,Win32,60.60606061,,,,,,,,,,,,,,,,,,,,,,223.4549,224.8528,a,1,0.7181,1,224.853,225.3525,,,,,,110,MAS,NOWORD,AGR,150,suno,,el,,0.7181,,225.3526,225.3527,0.062962963,-0.4,0,0,0,,0,67,67,109,1,rayo,,,
,,,,,,5d4652aa36bf400018d400bf,676192165fb32c2e1fb7aee6,67d1ab78aa296973d7e6813f,2025-03-12_09h43.16.291,Tarea de decisión léxica,2024.2.5,Win32,60.60606061,,,,,,,,,,,,,,,,,,,,,,225.3535,226.6025,a,1,0.5704,1,226.6026,227.1023,,,,,,378,MAS,NOWORD,AGR,150,gaulo,,el,,0.5704,,227.1023,227.1024,0.062962963,-0.4,0,0,0,,0,68,68,377,1,hielo,,,
,,,,,,5d4652aa36bf400018d400bf,676192165fb32c2e1fb7aee6,67d1ab78aa296973d7e6813f,2025-03-12_09h43.16.291,Tarea de decisión léxica,2024.2.5,Win32,60.60606061,,,,,,,,,,,,,,,,,,,,,,227.1032,228.5517,a,1,0.7679,1,228.5517,229.0515,,,,,,112,MAS,NOWORD,DIS,150,siro,,la,,0.7679,,229.0523,229.0527,0.062962963,-0.4,0,0,0,,0,69,69,111,1,muro,,,
,,,,,,5d4652aa36bf400018d400bf,676192165fb32c2e1fb7aee6,67d1ab78aa296973d7e6813f,2025-03-12_09h43.16.291,Tarea de decisión léxica,2024.2.5,Win32,60.60606061,,,,,,,,,,,,,,,,,,,,,,229.0531,230.3842,a,1,0.6546,1,230.3843,230.8844,,,,,,280,FEM,NOWORD,DIS,150,grina,,el,,0.6546,,230.8845,230.8845,0.062962963,-0.4,0,0,0,,0,70,70,279,1,prisa,,,
,,,,,,5d4652aa36bf400018d400bf,676192165fb32c2e1fb7aee6,67d1ab78aa296973d7e6813f,2025-03-12_09h43.16.291,Tarea de decisión léxica,2024.2.5,Win32,60.60606061,,,,,,,,,,,,,,,,,,,,,,230.8857,232.2668,a,1,0.7003,1,232.2668,232.7671,,,,,,262,MAS,NOWORD,AGR,150,titio,,el,,0.7003,,232.7672,232.7672,0.062962963,-0.4,0,0,0,,0,71,71,261,1,sitio,,,
,,,,,,5d4652aa36bf400018d400bf,676192165fb32c2e1fb7aee6,67d1ab78aa296973d7e6813f,2025-03-12_09h43.16.291,Tarea de decisión léxica,2024.2.5,Win32,60.60606061,,,,,,,,,,,,,,,,,,,,,,232.7682,233.9498,l,1,0.5015,1,233.9499,234.4496,,,,,,79,FEM,WORD,DIS,150,piel,,el,,0.5015,,234.4497,234.4497,0.062962963,-0.4,0,0,0,,0,72,72,78,1,ciel,,,
,,,,,,5d4652aa36bf400018d400bf,676192165fb32c2e1fb7aee6,67d1ab78aa296973d7e6813f,2025-03-12_09h43.16.291,Tarea de decisión léxica,2024.2.5,Win32,60.60606061,,,,,,,,,,,,,,,,,,,,,,234.4503,235.8158,a,1,0.6868,1,235.8158,236.3158,,,,,,424,MAS,NOWORD,DIS,150,quigo,,la,,0.6868,,236.3159,236.316,0.062962963,-0.4,0,0,0,,0,73,73,423,1,queso,,,
,,,,,,5d4652aa36bf400018d400bf,676192165fb32c2e1fb7aee6,67d1ab78aa296973d7e6813f,2025-03-12_09h43.16.291,Tarea de decisión léxica,2024.2.5,Win32,60.60606061,,,,,,,,,,,,,,,,,,,,,,236.3171,237.6486,l,1,0.6504,1,237.6488,238.1485,,,,,,415,FEM,WORD,AGR,150,jaula,,la,,0.6504,,238.1493,238.1499,0.062962963,-0.4,0,0,0,,0,74,74,414,1,juira,,,
,,,,,,5d4652aa36bf400018d400bf,676192165fb32c2e1fb7aee6,67d1ab78aa296973d7e6813f,2025-03-12_09h43.16.291,Tarea de decisión léxica,2024.2.5,Win32,60.60606061,,,,,,,,,,,,,,,,,,,,,,238.1504,239.3478,l,1,0.5172,1,239.3479,239.8477,,,,,,165,FEM,WORD,AGR,150,vela,,la,,0.5172,,239.8477,239.8478,0.062962963,-0.4,0,0,0,,0,75,75,164,1,dera,,,
,,,,,,5d4652aa36bf400018d400bf,676192165fb32c2e1fb7aee6,67d1ab78aa296973d7e6813f,2025-03-12_09h43.16.291,Tarea de decisión léxica,2024.2.5,Win32,60.60606061,,,,,,,,,,,,,,,,,,,,,,239.8483,241.0308,l,1,0.5015,1,241.0309,241.5306,,,,,,275,MAS,WORD,AGR,150,punto,,el,,0.5015,,241.5307,241.5308,0.062962963,-0.4,0,0,0,,0,76,76,274,1,musto,,,
,,,,,,5d4652aa36bf400018d400bf,676192165fb32c2e1fb7aee6,67d1ab78aa296973d7e6813f,2025-03-12_09h43.16.291,Tarea de decisión léxica,2024.2.5,Win32,60.60606061,,,,,,,,,,,,,,,,,,,,,,241.5326,242.7973,l,1,0.5845,1,242.7973,243.2967,,,,,,139,MAS,WORD,DIS,150,mago,,la,,0.5845,,243.2967,243.2968,0.062962963,-0.4,0,0,0,,0,77,77,138,1,nila,,,
,,,,,,5d4652aa36bf400018d400bf,676192165fb32c2e1fb7aee6,67d1ab78aa296973d7e6813f,2025-03-12_09h43.16.291,Tarea de decisión léxica,2024.2.5,Win32,60.60606061,,,,,,,,,,,,,,,,,,,,,,243.2985,244.4962,l,1,0.5172,1,244.4963,244.996,,,,,,473,FEM,WORD,DIS,150,feria,,el,,0.5172,,244.9961,244.9962,0.062962963,-0.4,0,0,0,,0,78,78,472,1,felia,,,
,,,,,,5d4652aa36bf400018d400bf,676192165fb32c2e1fb7aee6,67d1ab78aa296973d7e6813f,2025-03-12_09h43.16.291,Tarea de decisión léxica,2024.2.5,Win32,60.60606061,,,,,,,,,,,,,,,,,,,,,,244.9974,246.2123,a,1,0.5334,1,246.2123,246.7122,,,,,,258,FEM,NOWORD,AGR,150,asama,,la,,0.5334,,246.7141,246.7146,0.062962963,-0.4,0,0,0,,0,79,79,257,1,amiga,,,
,,,,,,5d4652aa36bf400018d400bf,676192165fb32c2e1fb7aee6,67d1ab78aa296973d7e6813f,2025-03-12_09h43.16.291,Tarea de decisión léxica,2024.2.5,Win32,60.60606061,,,,,,,,,,,,,,,,,,,,,,246.715,247.9452,a,1,0.5507,1,247.9453,248.445,,,,,,286,MAS,NOWORD,AGR,150,echor,,el,,0.5507,,248.445,248.4451,0.062962963,-0.4,0,0,0,,0,80,80,285,1,error,,,
,,,,,,5d4652aa36bf400018d400bf,676192165fb32c2e1fb7aee6,67d1ab78aa296973d7e6813f,2025-03-12_09h43.16.291,Tarea de decisión léxica,2024.2.5,Win32,60.60606061,,,,,,,,,,,,,,,,,,,,,,248.4459,249.6791,l,1,0.5508,1,249.6792,250.1776,,,,,,241,MAS,WORD,DIS,150,mundo,,la,,0.5508,,250.1777,250.1777,0.062962963,-0.4,0,0,0,,0,81,81,240,1,mirdo,,,
,,,,,,5d4652aa36bf400018d400bf,676192165fb32c2e1fb7aee6,67d1ab78aa296973d7e6813f,2025-03-12_09h43.16.291,Tarea de decisión léxica,2024.2.5,Win32,60.60606061,,,,,,,,,,,,,,,,,,,,,,250.179,251.5461,l,1,0.7009,1,251.5462,252.0452,,,,,,9,MAS,WORD,AGR,150,tipo,,el,,0.7009,,252.0453,252.0456,0.062962963,-0.4,0,0,0,,0,82,82,8,1,sibo,,,
,,,,,,5d4652aa36bf400018d400bf,676192165fb32c2e1fb7aee6,67d1ab78aa296973d7e6813f,2025-03-12_09h43.16.291,Tarea de decisión léxica,2024.2.5,Win32,60.60606061,,,,,,,,,,,,,,,,,,,,,,252.0472,253.2456,l,1,0.5177,1,253.2458,253.7451,,,,,,147,FEM,WORD,DIS,150,hoja,,el,,0.5177,,253.7456,253.746,0.062962963,-0.4,0,0,0,,0,83,83,146,1,pama,,,
,,,,,,5d4652aa36bf400018d400bf,676192165fb32c2e1fb7aee6,67d1ab78aa296973d7e6813f,2025-03-12_09h43.16.291,Tarea de decisión léxica,2024.2.5,Win32,60.60606061,,,,,,,,,,,,,,,,,,,,,,253.7463,254.978,l,0,0.55,0,254.979,255.4785,,,,,,166,FEM,NOWORD,AGR,150,dera,,la,,0.55,,255.4785,255.4785,0.062962963,-0.4,0,0,0,,0,84,84,165,1,vela,,,
,,,,,,5d4652aa36bf400018d400bf,676192165fb32c2e1fb7aee6,67d1ab78aa296973d7e6813f,2025-03-12_09h43.16.291,Tarea de decisión léxica,2024.2.5,Win32,60.60606061,,,,,,,,,,,,,,,,,,,,,,255.479,256.8791,a,1,0.7341,1,256.8802,257.3785,,,,,,204,FEM,NOWORD,DIS,150,beja,,el,,0.7341,,257.3786,257.3787,0.062962963,-0.4,0,0,0,,0,85,85,203,1,leña,,,
,,,,,,5d4652aa36bf400018d400bf,676192165fb32c2e1fb7aee6,67d1ab78aa296973d7e6813f,2025-03-12_09h43.16.291,Tarea de decisión léxica,2024.2.5,Win32,60.60606061,,,,,,,,,,,,,,,,,,,,,,257.3802,258.6619,l,1,0.6169,1,258.6619,259.1617,,,,,,285,MAS,WORD,AGR,150,error,,el,,0.6169,,259.1617,259.1617,0.062962963,-0.4,0,0,0,,0,86,86,284,1,echor,,,
,,,,,,5d4652aa36bf400018d400bf,676192165fb32c2e1fb7aee6,67d1ab78aa296973d7e6813f,2025-03-12_09h43.16.291,Tarea de decisión léxica,2024.2.5,Win32,60.60606061,,,,,,,,,,,,,,,,,,,,,,259.1626,260.7297,a,1,0.8849,1,260.7298,261.2284,,,,,,476,FEM,NOWORD,DIS,150,mucta,,el,,0.8849,,261.2284,261.2285,0.062962963,-0.4,0,0,0,,0,87,87,475,1,manta,,,
,,,,,,5d4652aa36bf400018d400bf,676192165fb32c2e1fb7aee6,67d1ab78aa296973d7e6813f,2025-03-12_09h43.16.291,Tarea de decisión léxica,2024.2.5,Win32,60.60606061,,,,,,,,,,,,,,,,,,,,,,261.2293,262.5131,l,1,0.6172,1,262.5132,263.0117,,,,,,83,FEM,WORD,DIS,150,bala,,el,,0.6172,,263.0124,263.0128,0.062962963,-0.4,0,0,0,,0,88,88,82,1,taga,,,
,,,,,,5d4652aa36bf400018d400bf,676192165fb32c2e1fb7aee6,67d1ab78aa296973d7e6813f,2025-03-12_09h43.16.291,Tarea de decisión léxica,2024.2.5,Win32,60.60606061,,,,,,,,,,,,,,,,,,,,,,263.0132,264.3115,a,1,0.6156,1,264.3116,264.8115,,,,,,62,FEM,NOWORD,AGR,150,efla,,la,,0.6156,,264.8116,264.8116,0.062962963,-0.4,0,0,0,,0,89,89,61,1,obra,,,
,,,,,,5d4652aa36bf400018d400bf,676192165fb32c2e1fb7aee6,67d1ab78aa296973d7e6813f,2025-03-12_09h43.16.291,Tarea de decisión léxica,2024.2.5,Win32,60.60606061,,,,,,,,,,,,,,,,,,,,,,264.8122,266.0282,a,1,0.5477,1,266.0282,266.5285,,,,,,28,MAS,NOWORD,DIS,150,ravo,,la,,0.5477,,266.5286,266.5288,0.062962963,-0.4,0,0,0,,0,90,90,27,1,baño,,,
,,,,,,5d4652aa36bf400018d400bf,676192165fb32c2e1fb7aee6,67d1ab78aa296973d7e6813f,2025-03-12_09h43.16.291,Tarea de decisión léxica,2024.2.5,Win32,60.60606061,,,,,,,,,,,,,,,,,,,,,,266.5301,267.7307,a,1,0.5346,1,267.7307,268.2287,,,,,,72,FEM,NOWORD,DIS,150,urla,,el,,0.5346,,268.2288,268.2288,0.062962963,-0.4,0,0,0,,0,91,91,71,1,isla,,,
,,,,,,5d4652aa36bf400018d400bf,676192165fb32c2e1fb7aee6,67d1ab78aa296973d7e6813f,2025-03-12_09h43.16.291,Tarea de decisión léxica,2024.2.5,Win32,60.60606061,,,,,,,,,,,,,,,,,,,,,,268.2294,269.5287,a,1,0.6332,1,269.5288,270.0283,,,,,,218,MAS,NOWORD,AGR,150,budo,,el,,0.6332,,270.0284,270.0285,0.062962963,-0.4,0,0,0,,0,92,92,217,1,luto,,,
,,,,,,5d4652aa36bf400018d400bf,676192165fb32c2e1fb7aee6,67d1ab78aa296973d7e6813f,2025-03-12_09h43.16.291,Tarea de decisión léxica,2024.2.5,Win32,60.60606061,,,,,,,,,,,,,,,,,,,,,,270.0293,271.2445,l,1,0.5334,1,271.2446,271.7445,,,,,,33,FEM,WORD,AGR,150,boca,,la,,0.5334,,271.7454,271.746,0.062962963,-0.4,0,0,0,,0,93,93,32,1,loda,,,
,,,,,,5d4652aa36bf400018d400bf,676192165fb32c2e1fb7aee6,67d1ab78aa296973d7e6813f,2025-03-12_09h43.16.291,Tarea de decisión léxica,2024.2.5,Win32,60.60606061,,,,,,,,,,,,,,,,,,,,,,271.7466,273.1112,l,1,0.684,1,273.1112,273.6115,,,,,,27,MAS,WORD,AGR,150,baño,,el,,0.684,,273.6115,273.6116,0.062962963,-0.4,0,0,0,,0,94,94,26,1,ravo,,,
,,,,,,5d4652aa36bf400018d400bf,676192165fb32c2e1fb7aee6,67d1ab78aa296973d7e6813f,2025-03-12_09h43.16.291,Tarea de decisión léxica,2024.2.5,Win32,60.60606061,,,,,,,,,,,,,,,,,,,,,,273.6124,274.8455,a,1,0.551,1,274.8457,275.3444,,,,,,440,FEM,NOWORD,DIS,150,prema,,el,,0.551,,275.3445,275.3445,0.062962963,-0.4,0,0,0,,0,95,95,439,1,presa,,,
,,,,,,5d4652aa36bf400018d400bf,676192165fb32c2e1fb7aee6,67d1ab78aa296973d7e6813f,2025-03-12_09h43.16.291,Tarea de decisión léxica,2024.2.5,Win32,60.60606061,,,,,,,,,,,,,,,,,,,,,,275.3451,276.528,a,1,0.5004,1,276.5281,277.0276,,,,,,194,FEM,NOWORD,AGR,150,foda,,la,,0.5004,,277.0276,277.0277,0.062962963,-0.4,0,0,0,,0,96,96,193,1,loca,,,
,,,,,,5d4652aa36bf400018d400bf,676192165fb32c2e1fb7aee6,67d1ab78aa296973d7e6813f,2025-03-12_09h43.16.291,Tarea de decisión léxica,2024.2.5,Win32,60.60606061,,,,,,,,,,,,,,,,,,,,,,277.0283,278.3444,l,1,0.6505,1,278.3445,278.8447,,,,,,169,MAS,WORD,AGR,150,cubo,,el,,0.6505,,278.8447,278.8448,0.062962963,-0.4,0,0,0,,0,97,97,168,1,mibo,,,
,,,,,,5d4652aa36bf400018d400bf,676192165fb32c2e1fb7aee6,67d1ab78aa296973d7e6813f,2025-03-12_09h43.16.291,Tarea de decisión léxica,2024.2.5,Win32,60.60606061,,,,,,,,,,,,,,,,,,,,,,278.8453,280.0116,l,1,0.4839,1,280.0117,280.5116,,,,,,39,MAS,WORD,AGR,150,voto,,el,,0.4839,,280.5124,280.513,0.062962963,-0.4,0,0,0,,0,98,98,38,1,redo,,,
,,,,,,5d4652aa36bf400018d400bf,676192165fb32c2e1fb7aee6,67d1ab78aa296973d7e6813f,2025-03-12_09h43.16.291,Tarea de decisión léxica,2024.2.5,Win32,60.60606061,,,,,,,,,,,,,,,,,,,,,,280.5135,281.7444,l,1,0.5503,1,281.7445,282.2443,,,,,,381,MAS,WORD,AGR,150,humor,,el,,0.5503,,282.2443,282.2444,0.062962963,-0.4,0,0,0,,0,99,99,380,1,nusor,,,
,,,,,,5d4652aa36bf400018d400bf,676192165fb32c2e1fb7aee6,67d1ab78aa296973d7e6813f,2025-03-12_09h43.16.291,Tarea de decisión léxica,2024.2.5,Win32,60.60606061,,,,,,,,,,,,,,,,,,,,,,282.245,283.4956,a,1,0.5679,1,283.4957,283.995,,,,,,130,MAS,NOWORD,AGR,150,pima,,el,,0.5679,,283.9951,283.9951,0.062962963,-0.4,0,0,0,,0,100,100,129,1,oído,,,
,,,,,,5d4652aa36bf400018d400bf,676192165fb32c2e1fb7aee6,67d1ab78aa296973d7e6813f,2025-03-12_09h43.16.291,Tarea de decisión léxica,2024.2.5,Win32,60.60606061,,,,,,,,,,,,,,,,,,,,,,283.996,285.9951,a,1,1.3169,1,285.9951,286.4955,,,,,,144,MAS,NOWORD,DIS,150,pezo,,la,,1.3169,,286.4956,286.4957,0.062962963,-0.4,0,0,0,,0,101,101,143,1,pavo,,,
,,,,,,5d4652aa36bf400018d400bf,676192165fb32c2e1fb7aee6,67d1ab78aa296973d7e6813f,2025-03-12_09h43.16.291,Tarea de decisión léxica,2024.2.5,Win32,60.60606061,,,,,,,,,,,,,,,,,,,,,,286.4965,287.7942,l,1,0.6168,1,287.7942,288.2939,,,,,,291,FEM,WORD,AGR,150,pista,,la,,0.6168,,288.294,288.294,0.062962963,-0.4,0,0,0,,0,102,102,290,1,mesta,,,
,,,,,,5d4652aa36bf400018d400bf,676192165fb32c2e1fb7aee6,67d1ab78aa296973d7e6813f,2025-03-12_09h43.16.291,Tarea de decisión léxica,2024.2.5,Win32,60.60606061,,,,,,,,,,,,,,,,,,,,,,288.2947,289.6449,a,1,0.6833,1,289.645,290.1447,,,,,,354,FEM,NOWORD,AGR,150,cezca,,la,,0.6833,,290.1458,290.1463,0.062962963,-0.4,0,0,0,,0,103,103,353,1,celda,,,
,,,,,,5d4652aa36bf400018d400bf,676192165fb32c2e1fb7aee6,67d1ab78aa296973d7e6813f,2025-03-12_09h43.16.291,Tarea de decisión léxica,2024.2.5,Win32,60.60606061,,,,,,,,,,,,,,,,,,,,,,290.1474,291.4302,a,1,0.6169,1,291.4303,291.9303,,,,,,298,MAS,NOWORD,AGR,150,brubo,,el,,0.6169,,291.9304,291.9304,0.062962963,-0.4,0,0,0,,0,104,104,297,1,grupo,,,
,,,,,,5d4652aa36bf400018d400bf,676192165fb32c2e1fb7aee6,67d1ab78aa296973d7e6813f,2025-03-12_09h43.16.291,Tarea de decisión léxica,2024.2.5,Win32,60.60606061,,,,,,,,,,,,,,,,,,,,,,291.9312,293.3461,a,1,0.7337,1,293.3462,293.8463,,,,,,352,MAS,NOWORD,DIS,150,duepo,,la,,0.7337,,293.8464,293.8465,0.062962963,-0.4,0,0,0,,0,105,105,351,1,vuelo,,,
,,,,,,5d4652aa36bf400018d400bf,676192165fb32c2e1fb7aee6,67d1ab78aa296973d7e6813f,2025-03-12_09h43.16.291,Tarea de decisión léxica,2024.2.5,Win32,60.60606061,,,,,,,,,,,,,,,,,,,,,,293.8473,295.1954,l,1,0.6671,1,295.1954,295.6955,,,,,,433,MAS,WORD,DIS,150,disco,,la,,0.6671,,295.6955,295.6956,0.062962963,-0.4,0,0,0,,0,106,106,432,1,durco,,,
,,,,,,5d4652aa36bf400018d400bf,676192165fb32c2e1fb7aee6,67d1ab78aa296973d7e6813f,2025-03-12_09h43.16.291,Tarea de decisión léxica,2024.2.5,Win32,60.60606061,,,,,,,,,,,,,,,,,,,,,,295.6963,296.895,a,1,0.516,1,296.8951,297.3959,,,,,,176,FEM,NOWORD,DIS,150,hosa,,el,,0.516,,297.3968,297.3975,0.062962963,-0.4,0,0,0,,0,107,107,175,1,goma,,,
,,,,,,5d4652aa36bf400018d400bf,676192165fb32c2e1fb7aee6,67d1ab78aa296973d7e6813f,2025-03-12_09h43.16.291,Tarea de decisión léxica,2024.2.5,Win32,60.60606061,,,,,,,,,,,,,,,,,,,,,,297.3979,298.7451,l,1,0.6667,1,298.7453,299.2448,,,,,,209,MAS,WORD,AGR,150,velo,,el,,0.6667,,299.2449,299.2449,0.062962963,-0.4,0,0,0,,0,108,108,208,1,dero,,,
,,,,,,5d4652aa36bf400018d400bf,676192165fb32c2e1fb7aee6,67d1ab78aa296973d7e6813f,2025-03-12_09h43.16.291,Tarea de decisión léxica,2024.2.5,Win32,60.60606061,,,,,,,,,,,,,,,,,,,,,,299.2456,300.379,l,1,0.4512,1,300.379,300.8784,,,,,,423,MAS,WORD,DIS,150,queso,,la,,0.4512,,300.8784,300.8784,0.062962963,-0.4,0,0,0,,0,109,109,422,1,quigo,,,
,,,,,,5d4652aa36bf400018d400bf,676192165fb32c2e1fb7aee6,67d1ab78aa296973d7e6813f,2025-03-12_09h43.16.291,Tarea de decisión léxica,2024.2.5,Win32,60.60606061,,,,,,,,,,,,,,,,,,,,,,300.8794,302.1275,a,1,0.5668,1,302.1276,302.6273,,,,,,228,MAS,NOWORD,DIS,150,laro,,la,,0.5668,,302.6274,302.6276,0.062962963,-0.4,0,0,0,,0,110,110,227,1,faro,,,
,,,,,,5d4652aa36bf400018d400bf,676192165fb32c2e1fb7aee6,67d1ab78aa296973d7e6813f,2025-03-12_09h43.16.291,Tarea de decisión léxica,2024.2.5,Win32,60.60606061,,,,,,,,,,,,,,,,,,,,,,302.6286,304.2282,a,1,0.934,1,304.2282,304.7273,,,,,,270,MAS,NOWORD,AGR,150,mello,,el,,0.934,,304.7273,304.7274,0.062962963,-0.4,0,0,0,,0,111,111,269,1,perro,,,
,,,,,,5d4652aa36bf400018d400bf,676192165fb32c2e1fb7aee6,67d1ab78aa296973d7e6813f,2025-03-12_09h43.16.291,Tarea de decisión léxica,2024.2.5,Win32,60.60606061,,,,,,,,,,,,,,,,,,,,,,304.7282,305.928,a,1,0.534,1,305.9281,306.4278,,,,,,462,FEM,NOWORD,AGR,150,pagra,,la,,0.534,,306.4284,306.4289,0.062962963,-0.4,0,0,0,,0,112,112,461,1,tabla,,,
,,,,,,5d4652aa36bf400018d400bf,676192165fb32c2e1fb7aee6,67d1ab78aa296973d7e6813f,2025-03-12_09h43.16.291,Tarea de decisión léxica,2024.2.5,Win32,60.60606061,,,,,,,,,,,,,,,,,,,,,,306.4293,307.9798,a,0,0.8688,0,307.9804,308.4786,,,,,,75,MAS,WORD,AGR,150,olor,,el,,0.8688,,308.4787,308.4788,0.062962963,-0.4,0,0,0,,0,113,113,74,1,ocer,,,
,,,,,,5d4652aa36bf400018d400bf,676192165fb32c2e1fb7aee6,67d1ab78aa296973d7e6813f,2025-03-12_09h43.16.291,Tarea de decisión léxica,2024.2.5,Win32,60.60606061,,,,,,,,,,,,,,,,,,,,,,308.48,309.811,a,1,0.6499,1,309.8114,310.3112,,,,,,246,FEM,NOWORD,AGR,150,pafle,,la,,0.6499,,310.3112,310.3114,0.062962963,-0.4,0,0,0,,0,114,114,245,1,madre,,,
,,,,,,5d4652aa36bf400018d400bf,676192165fb32c2e1fb7aee6,67d1ab78aa296973d7e6813f,2025-03-12_09h43.16.291,Tarea de decisión léxica,2024.2.5,Win32,60.60606061,,,,,,,,,,,,,,,,,,,,,,310.312,311.7944,l,1,0.8169,1,311.7945,312.2951,,,,,,261,MAS,WORD,DIS,150,sitio,,la,,0.8169,,312.2951,312.2952,0.062962963,-0.4,0,0,0,,0,115,115,260,1,titio,,,
,,,,,,5d4652aa36bf400018d400bf,676192165fb32c2e1fb7aee6,67d1ab78aa296973d7e6813f,2025-03-12_09h43.16.291,Tarea de decisión léxica,2024.2.5,Win32,60.60606061,,,,,,,,,,,,,,,,,,,,,,312.296,313.6621,a,1,0.6836,1,313.6622,314.1614,,,,,,230,MAS,NOWORD,AGR,150,ador,,el,,0.6836,,314.1614,314.1614,0.062962963,-0.4,0,0,0,,0,116,116,229,1,amor,,,
,,,,,,5d4652aa36bf400018d400bf,676192165fb32c2e1fb7aee6,67d1ab78aa296973d7e6813f,2025-03-12_09h43.16.291,Tarea de decisión léxica,2024.2.5,Win32,60.60606061,,,,,,,,,,,,,,,,,,,,,,314.1621,315.4115,a,1,0.5675,1,315.4116,315.9114,,,,,,10,MAS,NOWORD,AGR,150,sibo,,el,,0.5675,,315.9119,315.9124,0.062962963,-0.4,0,0,0,,0,117,117,9,1,tipo,,,
,,,,,,5d4652aa36bf400018d400bf,676192165fb32c2e1fb7aee6,67d1ab78aa296973d7e6813f,2025-03-12_09h43.16.291,Tarea de decisión léxica,2024.2.5,Win32,60.60606061,,,,,,,,,,,,,,,,,,,,,,315.9128,317.1612,a,1,0.5671,1,317.1613,317.6612,,,,,,164,FEM,NOWORD,DIS,150,laga,,el,,0.5671,,317.6613,317.6613,0.062962963,-0.4,0,0,0,,0,118,118,163,1,fama,,,
,,,,,,5d4652aa36bf400018d400bf,676192165fb32c2e1fb7aee6,67d1ab78aa296973d7e6813f,2025-03-12_09h43.16.291,Tarea de decisión léxica,2024.2.5,Win32,60.60606061,,,,,,,,,,,,,,,,,,,,,,317.6621,318.8624,l,1,0.533,1,318.8624,319.362,,,,,,267,MAS,WORD,AGR,150,libro,,el,,0.533,,319.362,319.3621,0.062962963,-0.4,0,0,0,,0,119,119,266,1,figro,,,
,,,,,,5d4652aa36bf400018d400bf,676192165fb32c2e1fb7aee6,67d1ab78aa296973d7e6813f,2025-03-12_09h43.16.291,Tarea de decisión léxica,2024.2.5,Win32,60.60606061,,,,,,,,,,,,,,,,,,,,,,319.3631,320.8112,a,0,0.7667,0,320.8116,321.3113,,,,,,367,MAS,WORD,AGR,150,reloj,,el,,0.7667,,321.3113,321.3114,0.062962963,-0.4,0,0,0,,0,120,120,366,1,rerob,,,
,,,,,,5d4652aa36bf400018d400bf,676192165fb32c2e1fb7aee6,67d1ab78aa296973d7e6813f,2025-03-12_09h43.16.291,Tarea de decisión léxica,2024.2.5,Win32,60.60606061,,,,,,,,,,,,,,,,,,,,,,321.3123,322.8117,l,1,0.8173,1,322.8121,323.3109,,,,,,347,FEM,WORD,AGR,150,pieza,,la,,0.8173,,323.311,323.311,0.062962963,-0.4,0,0,0,,0,121,121,346,1,mueza,,,
,,,,,,5d4652aa36bf400018d400bf,676192165fb32c2e1fb7aee6,67d1ab78aa296973d7e6813f,2025-03-12_09h43.16.291,Tarea de decisión léxica,2024.2.5,Win32,60.60606061,,,,,,,,,,,,,,,,,,,,,,323.3118,324.9126,l,1,0.9173,1,324.9127,325.4116,,,,,,311,MAS,WORD,DIS,150,honor,,la,,0.9173,,325.4127,325.4133,0.062962963,-0.4,0,0,0,,0,122,122,310,1,nosor,,,
,,,,,,5d4652aa36bf400018d400bf,676192165fb32c2e1fb7aee6,67d1ab78aa296973d7e6813f,2025-03-12_09h43.16.291,Tarea de decisión léxica,2024.2.5,Win32,60.60606061,,,,,,,,,,,,,,,,,,,,,,325.4137,326.6279,a,1,0.5332,1,326.628,327.1281,,,,,,52,FEM,NOWORD,DIS,150,mava,,el,,0.5332,,327.1281,327.1282,0.062962963,-0.4,0,0,0,,0,123,123,51,1,caja,,,
,,,,,,5d4652aa36bf400018d400bf,676192165fb32c2e1fb7aee6,67d1ab78aa296973d7e6813f,2025-03-12_09h43.16.291,Tarea de decisión léxica,2024.2.5,Win32,60.60606061,,,,,,,,,,,,,,,,,,,,,,327.129,328.5938,a,0,0.783,0,328.5942,329.0985,,,,,,371,FEM,WORD,DIS,150,pasta,,el,,0.783,,329.0986,329.0987,0.062962963,-0.4,0,0,0,,0,124,124,370,1,mosta,,,
,,,,,,5d4652aa36bf400018d400bf,676192165fb32c2e1fb7aee6,67d1ab78aa296973d7e6813f,2025-03-12_09h43.16.291,Tarea de decisión léxica,2024.2.5,Win32,60.60606061,,,,,,,,,,,,,,,,,,,,,,329.0995,330.6452,a,0,0.8673,0,330.6454,331.1451,,,,,,239,MAS,WORD,AGR,150,mozo,,el,,0.8673,,331.1452,331.1453,0.062962963,-0.4,0,0,0,,0,125,125,238,1,poño,,,
,,,,,,5d4652aa36bf400018d400bf,676192165fb32c2e1fb7aee6,67d1ab78aa296973d7e6813f,2025-03-12_09h43.16.291,Tarea de decisión léxica,2024.2.5,Win32,60.60606061,,,,,,,,,,,,,,,,,,,,,,331.1459,332.9275,l,1,1.1,1,332.928,333.4284,,,,,,211,FEM,WORD,AGR,150,joya,,la,,1.1,,333.4286,333.4286,0.062962963,-0.4,0,0,0,,0,126,126,210,1,joad,,,
,,,,,,5d4652aa36bf400018d400bf,676192165fb32c2e1fb7aee6,67d1ab78aa296973d7e6813f,2025-03-12_09h43.16.291,Tarea de decisión léxica,2024.2.5,Win32,60.60606061,,,,,,,,,,,,,,,,,,,,,,333.4292,334.6612,a,1,0.5501,1,334.6613,335.1607,,,,,,402,MAS,NOWORD,AGR,150,pirvo,,el,,0.5501,,335.1614,335.1619,0.062962963,-0.4,0,0,0,,0,127,127,401,1,polvo,,,
,,,,,,5d4652aa36bf400018d400bf,676192165fb32c2e1fb7aee6,67d1ab78aa296973d7e6813f,2025-03-12_09h43.16.291,Tarea de decisión léxica,2024.2.5,Win32,60.60606061,,,,,,,,,,,,,,,,,,,,,,335.1625,336.4275,a,1,0.599,1,336.4276,336.9276,,,,,,118,MAS,NOWORD,AGR,150,movo,,el,,0.599,,336.9277,336.9277,0.062962963,-0.4,0,0,0,,0,128,128,117,1,palo,,,
,,,,,,5d4652aa36bf400018d400bf,676192165fb32c2e1fb7aee6,67d1ab78aa296973d7e6813f,2025-03-12_09h43.16.291,Tarea de decisión léxica,2024.2.5,Win32,60.60606061,,,,,,,,,,,,,,,,,,,,,,336.9282,338.4441,a,1,0.8499,1,338.4442,338.9438,,,,,,310,FEM,NOWORD,AGR,150,tirra,,la,,0.8499,,338.9438,338.9439,0.062962963,-0.4,0,0,0,,0,129,129,309,1,silla,,,
,,,,,,5d4652aa36bf400018d400bf,676192165fb32c2e1fb7aee6,67d1ab78aa296973d7e6813f,2025-03-12_09h43.16.291,Tarea de decisión léxica,2024.2.5,Win32,60.60606061,,,,,,,,,,,,,,,,,,,,,,338.9446,340.3952,l,1,0.7836,1,340.3953,340.8945,,,,,,23,FEM,WORD,DIS,150,hija,,el,,0.7836,,340.8945,340.8946,0.062962963,-0.4,0,0,0,,0,130,130,22,1,giva,,,
,,,,,,5d4652aa36bf400018d400bf,676192165fb32c2e1fb7aee6,67d1ab78aa296973d7e6813f,2025-03-12_09h43.16.291,Tarea de decisión léxica,2024.2.5,Win32,60.60606061,,,,,,,,,,,,,,,,,,,,,,340.8964,342.1781,a,1,0.6007,1,342.1782,342.6799,,,,,,208,MAS,NOWORD,DIS,150,kedo,,la,,0.6007,,342.6808,342.6814,0.062962963,-0.4,0,0,0,,0,131,131,207,1,kilo,,,
,,,,,,5d4652aa36bf400018d400bf,676192165fb32c2e1fb7aee6,67d1ab78aa296973d7e6813f,2025-03-12_09h43.16.291,Tarea de decisión léxica,2024.2.5,Win32,60.60606061,,,,,,,,,,,,,,,,,,,,,,342.682,343.9791,l,1,0.6165,1,343.9793,344.4796,,,,,,413,FEM,WORD,DIS,150,rueda,,el,,0.6165,,344.4796,344.4798,0.062962963,-0.4,0,0,0,,0,132,132,412,1,bieda,,,
,,,,,,5d4652aa36bf400018d400bf,676192165fb32c2e1fb7aee6,67d1ab78aa296973d7e6813f,2025-03-12_09h43.16.291,Tarea de decisión léxica,2024.2.5,Win32,60.60606061,,,,,,,,,,,,,,,,,,,,,,344.4812,345.9118,l,1,0.7505,1,345.9119,346.4121,,,,,,137,MAS,WORD,AGR,150,nene,,el,,0.7505,,346.4122,346.4122,0.062962963,-0.4,0,0,0,,0,133,133,136,1,pamo,,,
,,,,,,5d4652aa36bf400018d400bf,676192165fb32c2e1fb7aee6,67d1ab78aa296973d7e6813f,2025-03-12_09h43.16.291,Tarea de decisión léxica,2024.2.5,Win32,60.60606061,,,,,,,,,,,,,,,,,,,,,,346.413,347.7786,l,1,0.6841,1,347.7787,348.2785,,,,,,59,FEM,WORD,DIS,150,sala,,el,,0.6841,,348.2785,348.2787,0.062962963,-0.4,0,0,0,,0,134,134,58,1,tafa,,,
,,,,,,5d4652aa36bf400018d400bf,676192165fb32c2e1fb7aee6,67d1ab78aa296973d7e6813f,2025-03-12_09h43.16.291,Tarea de decisión léxica,2024.2.5,Win32,60.60606061,,,,,,,,,,,,,,,,,,,,,,348.2794,349.5963,l,1,0.6345,1,349.5964,350.0957,,,,,,253,MAS,WORD,AGR,150,chico,,el,,0.6345,,350.0957,350.0958,0.062962963,-0.4,0,0,0,,0,135,135,252,1,trido,,,
,,,,,,5d4652aa36bf400018d400bf,676192165fb32c2e1fb7aee6,67d1ab78aa296973d7e6813f,2025-03-12_09h43.16.291,Tarea de decisión léxica,2024.2.5,Win32,60.60606061,,,,,,,,,,,,,,,,,,,,,,350.0964,351.328,l,1,0.55,1,351.3281,351.8276,,,,,,465,FEM,WORD,DIS,150,aguja,,el,,0.55,,351.8284,351.8289,0.062962963,-0.4,0,0,0,,0,136,136,464,1,asuba,,,
,,,,,,5d4652aa36bf400018d400bf,676192165fb32c2e1fb7aee6,67d1ab78aa296973d7e6813f,2025-03-12_09h43.16.291,Tarea de decisión léxica,2024.2.5,Win32,60.60606061,,,,,,,,,,,,,,,,,,,,,,351.8294,353.0128,a,1,0.5015,1,353.0128,353.5114,,,,,,420,MAS,NOWORD,DIS,150,chudo,,la,,0.5015,,353.5114,353.5114,0.062962963,-0.4,0,0,0,,0,137,137,419,1,truco,,,
,,,,,,5d4652aa36bf400018d400bf,676192165fb32c2e1fb7aee6,67d1ab78aa296973d7e6813f,2025-03-12_09h43.16.291,Tarea de decisión léxica,2024.2.5,Win32,60.60606061,,,,,,,,,,,,,,,,,,,,,,353.5122,354.8784,a,1,0.6835,1,354.8785,355.3777,,,,,,348,FEM,NOWORD,DIS,150,mueza,,el,,0.6835,,355.3777,355.3779,0.062962963,-0.4,0,0,0,,0,138,138,347,1,pieza,,,
,,,,,,5d4652aa36bf400018d400bf,676192165fb32c2e1fb7aee6,67d1ab78aa296973d7e6813f,2025-03-12_09h43.16.291,Tarea de decisión léxica,2024.2.5,Win32,60.60606061,,,,,,,,,,,,,,,,,,,,,,355.3785,356.7453,l,1,0.6841,1,356.7456,357.2454,,,,,,315,FEM,WORD,AGR,150,reina,,la,,0.6841,,357.2454,357.2456,0.062962963,-0.4,0,0,0,,0,139,139,314,1,riosa,,,
,,,,,,5d4652aa36bf400018d400bf,676192165fb32c2e1fb7aee6,67d1ab78aa296973d7e6813f,2025-03-12_09h43.16.291,Tarea de decisión léxica,2024.2.5,Win32,60.60606061,,,,,,,,,,,,,,,,,,,,,,357.2462,358.5788,a,1,0.6501,1,358.5788,359.0789,,,,,,48,MAS,NOWORD,DIS,150,chub,,la,,0.6501,,359.0789,359.0789,0.062962963,-0.4,0,0,0,,0,140,140,47,1,club,,,
,,,,,,5d4652aa36bf400018d400bf,676192165fb32c2e1fb7aee6,67d1ab78aa296973d7e6813f,2025-03-12_09h43.16.291,Tarea de decisión léxica,2024.2.5,Win32,60.60606061,,,,,,,,,,,,,,,,,,,,,,359.0799,360.8786,l,1,1.1158,1,360.8786,361.3784,,,,,,185,MAS,WORD,AGR,150,baúl,,el,,1.1158,,361.379,361.3795,0.062962963,-0.4,0,0,0,,0,141,141,184,1,raol,,,
,,,,,,5d4652aa36bf400018d400bf,676192165fb32c2e1fb7aee6,67d1ab78aa296973d7e6813f,2025-03-12_09h43.16.291,Tarea de decisión léxica,2024.2.5,Win32,60.60606061,,,,,,,,,,,,,,,,,,,,,,361.3799,363.2612,l,1,1.2001,1,363.2613,363.7617,,,,,,219,FEM,WORD,DIS,150,pipa,,el,,1.2001,,363.7618,363.7618,0.062962963,-0.4,0,0,0,,0,142,142,218,1,miva,,,
,,,,,,5d4652aa36bf400018d400bf,676192165fb32c2e1fb7aee6,67d1ab78aa296973d7e6813f,2025-03-12_09h43.16.291,Tarea de decisión léxica,2024.2.5,Win32,60.60606061,,,,,,,,,,,,,,,,,,,,,,363.7625,365.1114,l,1,0.682,1,365.1114,365.6114,,,,,,351,MAS,WORD,AGR,150,vuelo,,el,,0.682,,365.6114,365.6115,0.062962963,-0.4,0,0,0,,0,143,143,350,1,duepo,,,
,,,,,,5d4652aa36bf400018d400bf,676192165fb32c2e1fb7aee6,67d1ab78aa296973d7e6813f,2025-03-12_09h43.16.291,Tarea de decisión léxica,2024.2.5,Win32,60.60606061,,,,,,,,,,,,,,,,,,,,,,365.6122,366.9614,a,0,0.6674,0,366.9623,367.4619,,,,,,335,FEM,WORD,DIS,150,costa,,el,,0.6674,,367.4619,367.462,0.062962963,-0.4,0,0,0,,0,144,144,334,1,pesta,,,
,,,,,,5d4652aa36bf400018d400bf,676192165fb32c2e1fb7aee6,67d1ab78aa296973d7e6813f,2025-03-12_09h43.16.291,Tarea de decisión léxica,2024.2.5,Win32,60.60606061,,,,,,,,,,,,,,,,,,,,,,367.4626,368.7118,a,1,0.5673,1,368.7128,369.2122,,,,,,184,FEM,NOWORD,DIS,150,raad,,el,,0.5673,,369.2123,369.2123,0.062962963,-0.4,0,0,0,,0,145,145,183,1,raya,,,
,,,,,,5d4652aa36bf400018d400bf,676192165fb32c2e1fb7aee6,67d1ab78aa296973d7e6813f,2025-03-12_09h43.16.291,Tarea de decisión léxica,2024.2.5,Win32,60.60606061,,,,,,,,,,,,,,,,,,,,,,369.213,370.3276,l,1,0.4326,1,370.3278,370.828,,,,,,251,MAS,WORD,DIS,150,señor,,la,,0.4326,,370.8287,370.8291,0.062962963,-0.4,0,0,0,,0,146,146,250,1,refor,,,
,,,,,,5d4652aa36bf400018d400bf,676192165fb32c2e1fb7aee6,67d1ab78aa296973d7e6813f,2025-03-12_09h43.16.291,Tarea de decisión léxica,2024.2.5,Win32,60.60606061,,,,,,,,,,,,,,,,,,,,,,370.8296,372.0947,a,1,0.5836,1,372.0948,372.5945,,,,,,162,MAS,NOWORD,AGR,150,bopo,,el,,0.5836,,372.5946,372.5946,0.062962963,-0.4,0,0,0,,0,147,147,161,1,coro,,,
,,,,,,5d4652aa36bf400018d400bf,676192165fb32c2e1fb7aee6,67d1ab78aa296973d7e6813f,2025-03-12_09h43.16.291,Tarea de decisión léxica,2024.2.5,Win32,60.60606061,,,,,,,,,,,,,,,,,,,,,,372.5955,375.2443,,0,0.5836,-1,375.2449,375.7448,,,,,,294,MAS,NOWORD,AGR,150,cacso,,el,,,,375.7449,375.745,0.062962963,-0.4,0,0,0,,0,148,148,293,1,campo,,,
,,,,,,5d4652aa36bf400018d400bf,676192165fb32c2e1fb7aee6,67d1ab78aa296973d7e6813f,2025-03-12_09h43.16.291,Tarea de decisión léxica,2024.2.5,Win32,60.60606061,,,,,,,,,,,,,,,,,,,,,,375.7458,377.0456,l,1,0.6169,1,377.0461,377.5445,,,,,,161,MAS,WORD,DIS,150,coro,,la,,0.6169,,377.5446,377.5446,0.062962963,-0.4,0,0,0,,0,149,149,160,1,bopo,,,
,,,,,,5d4652aa36bf400018d400bf,676192165fb32c2e1fb7aee6,67d1ab78aa296973d7e6813f,2025-03-12_09h43.16.291,Tarea de decisión léxica,2024.2.5,Win32,60.60606061,,,,,,,,,,,,,,,,,,,,,,377.5455,378.7956,l,1,0.5676,1,378.7958,379.2946,,,,,,321,MAS,WORD,AGR,150,banco,,el,,0.5676,,379.2946,379.2946,0.062962963,-0.4,0,0,0,,0,150,150,320,1,rarco,,,
,,,,,,5d4652aa36bf400018d400bf,676192165fb32c2e1fb7aee6,67d1ab78aa296973d7e6813f,2025-03-12_09h43.16.291,Tarea de decisión léxica,2024.2.5,Win32,60.60606061,,,,,,,,,,,,,,,,,,,,,,379.2952,380.4612,l,1,0.4832,1,380.4612,380.9613,,,,,,405,FEM,WORD,DIS,150,barra,,el,,0.4832,,380.9622,380.9627,0.062962963,-0.4,0,0,0,,0,151,151,404,1,rarra,,,
,,,,,,5d4652aa36bf400018d400bf,676192165fb32c2e1fb7aee6,67d1ab78aa296973d7e6813f,2025-03-12_09h43.16.291,Tarea de decisión léxica,2024.2.5,Win32,60.60606061,,,,,,,,,,,,,,,,,,,,,,380.9632,382.1113,l,1,0.4668,1,382.1114,382.6121,,,,,,463,FEM,WORD,AGR,150,cabra,,la,,0.4668,,382.6122,382.6123,0.062962963,-0.4,0,0,0,,0,152,152,462,1,matla,,,
,,,,,,5d4652aa36bf400018d400bf,676192165fb32c2e1fb7aee6,67d1ab78aa296973d7e6813f,2025-03-12_09h43.16.291,Tarea de decisión léxica,2024.2.5,Win32,60.60606061,,,,,,,,,,,,,,,,,,,,,,382.6135,383.8115,l,1,0.5334,1,383.8115,384.3112,,,,,,443,MAS,WORD,DIS,150,salón,,la,,0.5334,,384.3113,384.3113,0.062962963,-0.4,0,0,0,,0,153,153,442,1,taron,,,
,,,,,,5d4652aa36bf400018d400bf,676192165fb32c2e1fb7aee6,67d1ab78aa296973d7e6813f,2025-03-12_09h43.16.291,Tarea de decisión léxica,2024.2.5,Win32,60.60606061,,,,,,,,,,,,,,,,,,,,,,384.3121,385.5286,a,1,0.5342,1,385.5287,386.0278,,,,,,134,FEM,NOWORD,AGR,150,vesa,,la,,0.5342,,386.0279,386.028,0.062962963,-0.4,0,0,0,,0,154,154,133,1,vaca,,,
,,,,,,5d4652aa36bf400018d400bf,676192165fb32c2e1fb7aee6,67d1ab78aa296973d7e6813f,2025-03-12_09h43.16.291,Tarea de decisión léxica,2024.2.5,Win32,60.60606061,,,,,,,,,,,,,,,,,,,,,,386.0288,387.4783,l,1,0.7668,1,387.4785,387.9784,,,,,,197,MAS,WORD,DIS,150,bate,,la,,0.7668,,387.9791,387.9796,0.062962963,-0.4,0,0,0,,0,155,155,196,1,dade,,,
,,,,,,5d4652aa36bf400018d400bf,676192165fb32c2e1fb7aee6,67d1ab78aa296973d7e6813f,2025-03-12_09h43.16.291,Tarea de decisión léxica,2024.2.5,Win32,60.60606061,,,,,,,,,,,,,,,,,,,,,,387.9801,389.1952,a,1,0.5337,1,389.1953,389.6945,,,,,,222,FEM,NOWORD,AGR,150,puca,,la,,0.5337,,389.6945,389.6945,0.062962963,-0.4,0,0,0,,0,156,156,221,1,mula,,,
,,,,,,5d4652aa36bf400018d400bf,676192165fb32c2e1fb7aee6,67d1ab78aa296973d7e6813f,2025-03-12_09h43.16.291,Tarea de decisión léxica,2024.2.5,Win32,60.60606061,,,,,,,,,,,,,,,,,,,,,,389.6951,391.1286,l,1,0.7504,1,391.1287,391.6302,,,,,,87,MAS,WORD,DIS,150,vaso,,la,,0.7504,,391.6302,391.6303,0.062962963,-0.4,0,0,0,,0,157,157,86,1,damo,,,
,,,,,,5d4652aa36bf400018d400bf,676192165fb32c2e1fb7aee6,67d1ab78aa296973d7e6813f,2025-03-12_09h43.16.291,Tarea de decisión léxica,2024.2.5,Win32,60.60606061,,,,,,,,,,,,,,,,,,,,,,391.6311,392.9128,a,1,0.601,1,392.9128,393.4127,,,,,,434,MAS,NOWORD,AGR,150,durco,,el,,0.601,,393.4128,393.4129,0.062962963,-0.4,0,0,0,,0,158,158,433,1,disco,,,
,,,,,,5d4652aa36bf400018d400bf,676192165fb32c2e1fb7aee6,67d1ab78aa296973d7e6813f,2025-03-12_09h43.16.291,Tarea de decisión léxica,2024.2.5,Win32,60.60606061,,,,,,,,,,,,,,,,,,,,,,393.4139,395.0791,a,1,0.9845,1,395.0792,395.5787,,,,,,80,FEM,NOWORD,DIS,150,ciel,,el,,0.9845,,395.5788,395.579,0.062962963,-0.4,0,0,0,,0,159,159,79,1,piel,,,
,,,,,,5d4652aa36bf400018d400bf,676192165fb32c2e1fb7aee6,67d1ab78aa296973d7e6813f,2025-03-12_09h43.16.291,Tarea de decisión léxica,2024.2.5,Win32,60.60606061,,,,,,,,,,,,,,,,,,,,,,395.5802,397.3127,a,1,1.0508,1,397.3128,397.8111,,,,,,454,FEM,NOWORD,AGR,150,pafia,,la,,1.0508,,397.8118,409.8287,0.037037037,-0.386111111,1,0,0,,0,160,160,453,1,mafia,,,
,,,,,,5d4652aa36bf400018d400bf,676192165fb32c2e1fb7aee6,67d1ab78aa296973d7e6813f,2025-03-12_09h43.16.291,Tarea de decisión léxica,2024.2.5,Win32,60.60606061,,,,,,,,,,,,,,,,,,,,,,409.8297,412.4785,,0,1.0508,-1,412.4795,412.9781,,,,,,133,FEM,WORD,DIS,150,vaca,,el,,,,412.9782,412.9782,0.037037037,-0.386111111,0,0,0,,0,161,161,132,1,vesa,,,
,,,,,,5d4652aa36bf400018d400bf,676192165fb32c2e1fb7aee6,67d1ab78aa296973d7e6813f,2025-03-12_09h43.16.291,Tarea de decisión léxica,2024.2.5,Win32,60.60606061,,,,,,,,,,,,,,,,,,,,,,412.9788,414.412,l,1,0.7507,1,414.4124,414.9114,,,,,,457,MAS,WORD,DIS,150,plato,,la,,0.7507,,414.9115,414.9116,0.037037037,-0.386111111,0,0,0,,0,162,162,456,1,glaco,,,
,,,,,,5d4652aa36bf400018d400bf,676192165fb32c2e1fb7aee6,67d1ab78aa296973d7e6813f,2025-03-12_09h43.16.291,Tarea de decisión léxica,2024.2.5,Win32,60.60606061,,,,,,,,,,,,,,,,,,,,,,414.9122,416.1463,a,1,0.5674,1,416.1463,416.6448,,,,,,46,FEM,NOWORD,AGR,150,pema,,la,,0.5674,,416.6448,416.6448,0.037037037,-0.386111111,0,0,0,,0,163,163,45,1,mesa,,,
,,,,,,5d4652aa36bf400018d400bf,676192165fb32c2e1fb7aee6,67d1ab78aa296973d7e6813f,2025-03-12_09h43.16.291,Tarea de decisión léxica,2024.2.5,Win32,60.60606061,,,,,,,,,,,,,,,,,,,,,,416.6457,417.945,a,1,0.6169,1,417.9451,418.4452,,,,,,260,MAS,NOWORD,DIS,150,jaumo,,la,,0.6169,,418.4452,418.4453,0.037037037,-0.386111111,0,0,0,,0,164,164,259,1,juego,,,
,,,,,,5d4652aa36bf400018d400bf,676192165fb32c2e1fb7aee6,67d1ab78aa296973d7e6813f,2025-03-12_09h43.16.291,Tarea de decisión léxica,2024.2.5,Win32,60.60606061,,,,,,,,,,,,,,,,,,,,,,418.4462,419.9284,a,0,0.8001,0,419.9292,420.4276,,,,,,173,FEM,WORD,AGR,150,rosa,,la,,0.8001,,420.4283,420.4287,0.037037037,-0.386111111,0,0,0,,0,165,165,172,1,boma,,,
,,,,,,5d4652aa36bf400018d400bf,676192165fb32c2e1fb7aee6,67d1ab78aa296973d7e6813f,2025-03-12_09h43.16.291,Tarea de decisión léxica,2024.2.5,Win32,60.60606061,,,,,,,,,,,,,,,,,,,,,,420.4291,421.845,l,1,0.7335,1,421.8457,422.346,,,,,,451,FEM,WORD,DIS,150,fruta,,el,,0.7335,,422.3461,422.3464,0.037037037,-0.386111111,0,0,0,,0,166,166,450,1,clita,,,
,,,,,,5d4652aa36bf400018d400bf,676192165fb32c2e1fb7aee6,67d1ab78aa296973d7e6813f,2025-03-12_09h43.16.291,Tarea de decisión léxica,2024.2.5,Win32,60.60606061,,,,,,,,,,,,,,,,,,,,,,422.3474,423.7618,a,1,0.734,1,423.762,424.2617,,,,,,236,FEM,NOWORD,DIS,150,tria,,el,,0.734,,424.2618,424.2619,0.037037037,-0.386111111,0,0,0,,0,167,167,235,1,grúa,,,
,,,,,,5d4652aa36bf400018d400bf,676192165fb32c2e1fb7aee6,67d1ab78aa296973d7e6813f,2025-03-12_09h43.16.291,Tarea de decisión léxica,2024.2.5,Win32,60.60606061,,,,,,,,,,,,,,,,,,,,,,424.2627,425.5453,a,1,0.6175,1,425.5453,426.0453,,,,,,308,MAS,NOWORD,DIS,150,holol,,la,,0.6175,,426.0454,426.0454,0.037037037,-0.386111111,0,0,0,,0,168,168,307,1,hotel,,,
,,,,,,5d4652aa36bf400018d400bf,676192165fb32c2e1fb7aee6,67d1ab78aa296973d7e6813f,2025-03-12_09h43.16.291,Tarea de decisión léxica,2024.2.5,Win32,60.60606061,,,,,,,,,,,,,,,,,,,,,,426.046,427.3282,l,1,0.6002,1,427.3282,427.8283,,,,,,439,FEM,WORD,AGR,150,presa,,la,,0.6002,,427.8284,427.8284,0.037037037,-0.386111111,0,0,0,,0,169,169,438,1,prema,,,
,,,,,,5d4652aa36bf400018d400bf,676192165fb32c2e1fb7aee6,67d1ab78aa296973d7e6813f,2025-03-12_09h43.16.291,Tarea de decisión léxica,2024.2.5,Win32,60.60606061,,,,,,,,,,,,,,,,,,,,,,427.8291,429.1117,a,1,0.6163,1,429.1118,429.6117,,,,,,316,FEM,NOWORD,DIS,150,riosa,,el,,0.6163,,429.6129,429.6137,0.037037037,-0.386111111,0,0,0,,0,170,170,315,1,reina,,,
,,,,,,5d4652aa36bf400018d400bf,676192165fb32c2e1fb7aee6,67d1ab78aa296973d7e6813f,2025-03-12_09h43.16.291,Tarea de decisión léxica,2024.2.5,Win32,60.60606061,,,,,,,,,,,,,,,,,,,,,,429.6144,430.862,a,1,0.5674,1,430.862,431.3619,,,,,,60,FEM,NOWORD,DIS,150,tafa,,el,,0.5674,,431.362,431.362,0.037037037,-0.386111111,0,0,0,,0,171,171,59,1,sala,,,
,,,,,,5d4652aa36bf400018d400bf,676192165fb32c2e1fb7aee6,67d1ab78aa296973d7e6813f,2025-03-12_09h43.16.291,Tarea de decisión léxica,2024.2.5,Win32,60.60606061,,,,,,,,,,,,,,,,,,,,,,431.3626,432.5461,a,1,0.5011,1,432.5462,433.045,,,,,,480,MAS,NOWORD,DIS,150,rimpo,,la,,0.5011,,433.045,433.0451,0.037037037,-0.386111111,0,0,0,,0,172,172,479,1,rumbo,,,
,,,,,,5d4652aa36bf400018d400bf,676192165fb32c2e1fb7aee6,67d1ab78aa296973d7e6813f,2025-03-12_09h43.16.291,Tarea de decisión léxica,2024.2.5,Win32,60.60606061,,,,,,,,,,,,,,,,,,,,,,433.0457,434.1453,a,1,0.4173,1,434.1453,434.6454,,,,,,326,FEM,NOWORD,AGR,150,mabia,,la,,0.4173,,434.6454,434.6455,0.037037037,-0.386111111,0,0,0,,0,173,173,325,1,magia,,,
,,,,,,5d4652aa36bf400018d400bf,676192165fb32c2e1fb7aee6,67d1ab78aa296973d7e6813f,2025-03-12_09h43.16.291,Tarea de decisión léxica,2024.2.5,Win32,60.60606061,,,,,,,,,,,,,,,,,,,,,,434.6468,435.812,l,1,0.4837,1,435.812,436.3119,,,,,,301,FEM,WORD,AGR,150,banda,,la,,0.4837,,436.3119,436.312,0.037037037,-0.386111111,0,0,0,,0,174,174,300,1,ranga,,,
,,,,,,5d4652aa36bf400018d400bf,676192165fb32c2e1fb7aee6,67d1ab78aa296973d7e6813f,2025-03-12_09h43.16.291,Tarea de decisión léxica,2024.2.5,Win32,60.60606061,,,,,,,,,,,,,,,,,,,,,,436.3126,437.6783,a,1,0.6836,1,437.6785,438.1779,,,,,,238,MAS,NOWORD,AGR,150,huco,,el,,0.6836,,438.1784,438.1788,0.037037037,-0.386111111,0,0,0,,0,175,175,237,1,nudo,,,
,,,,,,5d4652aa36bf400018d400bf,676192165fb32c2e1fb7aee6,67d1ab78aa296973d7e6813f,2025-03-12_09h43.16.291,Tarea de decisión léxica,2024.2.5,Win32,60.60606061,,,,,,,,,,,,,,,,,,,,,,438.1791,439.7302,a,1,0.8845,1,439.7302,440.2301,,,,,,474,FEM,NOWORD,AGR,150,felia,,la,,0.8845,,440.2301,440.2302,0.037037037,-0.386111111,0,0,0,,0,176,176,473,1,feria,,,
,,,,,,5d4652aa36bf400018d400bf,676192165fb32c2e1fb7aee6,67d1ab78aa296973d7e6813f,2025-03-12_09h43.16.291,Tarea de decisión léxica,2024.2.5,Win32,60.60606061,,,,,,,,,,,,,,,,,,,,,,440.231,441.6129,a,1,0.7007,1,441.613,442.1129,,,,,,56,MAS,NOWORD,DIS,150,jado,,la,,0.7007,,442.113,442.1131,0.037037037,-0.386111111,0,0,0,,0,177,177,55,1,gato,,,
,,,,,,5d4652aa36bf400018d400bf,676192165fb32c2e1fb7aee6,67d1ab78aa296973d7e6813f,2025-03-12_09h43.16.291,Tarea de decisión léxica,2024.2.5,Win32,60.60606061,,,,,,,,,,,,,,,,,,,,,,442.115,443.3791,l,1,0.584,1,443.3792,443.879,,,,,,255,MAS,WORD,DIS,150,miedo,,la,,0.584,,443.8791,443.8791,0.037037037,-0.386111111,0,0,0,,0,178,178,254,1,mauco,,,
,,,,,,5d4652aa36bf400018d400bf,676192165fb32c2e1fb7aee6,67d1ab78aa296973d7e6813f,2025-03-12_09h43.16.291,Tarea de decisión léxica,2024.2.5,Win32,60.60606061,,,,,,,,,,,,,,,,,,,,,,443.8797,445.2951,l,1,0.7338,1,445.2952,445.7958,,,,,,213,FEM,WORD,DIS,150,rama,,el,,0.7338,,445.7977,445.7984,0.037037037,-0.386111111,0,0,0,,0,179,179,212,1,bana,,,
,,,,,,5d4652aa36bf400018d400bf,676192165fb32c2e1fb7aee6,67d1ab78aa296973d7e6813f,2025-03-12_09h43.16.291,Tarea de decisión léxica,2024.2.5,Win32,60.60606061,,,,,,,,,,,,,,,,,,,,,,445.7989,446.912,l,1,0.4336,1,446.9121,447.4117,,,,,,65,MAS,WORD,AGR,150,dios,,el,,0.4336,,447.4118,447.4118,0.037037037,-0.386111111,0,0,0,,0,180,180,64,1,nios,,,
,,,,,,5d4652aa36bf400018d400bf,676192165fb32c2e1fb7aee6,67d1ab78aa296973d7e6813f,2025-03-12_09h43.16.291,Tarea de decisión léxica,2024.2.5,Win32,60.60606061,,,,,,,,,,,,,,,,,,,,,,447.4127,448.7457,l,1,0.651,1,448.7459,449.245,,,,,,233,FEM,WORD,DIS,150,lana,,el,,0.651,,449.2451,449.2451,0.037037037,-0.386111111,0,0,0,,0,181,181,232,1,fasa,,,
,,,,,,5d4652aa36bf400018d400bf,676192165fb32c2e1fb7aee6,67d1ab78aa296973d7e6813f,2025-03-12_09h43.16.291,Tarea de decisión léxica,2024.2.5,Win32,60.60606061,,,,,,,,,,,,,,,,,,,,,,449.2461,450.3114,a,1,0.3837,1,450.3115,450.812,,,,,,318,FEM,NOWORD,AGR,150,plaad,,la,,0.3837,,450.8121,450.8122,0.037037037,-0.386111111,0,0,0,,0,182,182,317,1,playa,,,
,,,,,,5d4652aa36bf400018d400bf,676192165fb32c2e1fb7aee6,67d1ab78aa296973d7e6813f,2025-03-12_09h43.16.291,Tarea de decisión léxica,2024.2.5,Win32,60.60606061,,,,,,,,,,,,,,,,,,,,,,450.8134,451.9285,a,1,0.4344,1,451.9285,452.4292,,,,,,146,MAS,NOWORD,AGR,150,nobo,,el,,0.4344,,452.4293,452.4293,0.037037037,-0.386111111,0,0,0,,0,183,183,145,1,león,,,
,,,,,,5d4652aa36bf400018d400bf,676192165fb32c2e1fb7aee6,67d1ab78aa296973d7e6813f,2025-03-12_09h43.16.291,Tarea de decisión léxica,2024.2.5,Win32,60.60606061,,,,,,,,,,,,,,,,,,,,,,452.43,453.5626,a,1,0.4508,1,453.5627,454.0612,,,,,,452,FEM,NOWORD,DIS,150,clita,,el,,0.4508,,454.0618,454.0621,0.037037037,-0.386111111,0,0,0,,0,184,184,451,1,fruta,,,
,,,,,,5d4652aa36bf400018d400bf,676192165fb32c2e1fb7aee6,67d1ab78aa296973d7e6813f,2025-03-12_09h43.16.291,Tarea de decisión léxica,2024.2.5,Win32,60.60606061,,,,,,,,,,,,,,,,,,,,,,454.0624,455.3116,l,1,0.5673,1,455.3118,455.8115,,,,,,15,FEM,WORD,DIS,150,idea,,el,,0.5673,,455.8115,455.8115,0.037037037,-0.386111111,0,0,0,,0,185,185,14,1,odea,,,
,,,,,,5d4652aa36bf400018d400bf,676192165fb32c2e1fb7aee6,67d1ab78aa296973d7e6813f,2025-03-12_09h43.16.291,Tarea de decisión léxica,2024.2.5,Win32,60.60606061,,,,,,,,,,,,,,,,,,,,,,455.8121,457.2612,a,1,0.7666,1,457.2612,457.7616,,,,,,392,MAS,NOWORD,DIS,150,dievo,,la,,0.7666,,457.7616,457.7617,0.037037037,-0.386111111,0,0,0,,0,186,186,391,1,dueño,,,
,,,,,,5d4652aa36bf400018d400bf,676192165fb32c2e1fb7aee6,67d1ab78aa296973d7e6813f,2025-03-12_09h43.16.291,Tarea de decisión léxica,2024.2.5,Win32,60.60606061,,,,,,,,,,,,,,,,,,,,,,457.7625,459.1627,a,1,0.7174,1,459.1629,459.6613,,,,,,362,FEM,NOWORD,AGR,150,solle,,la,,0.7174,,459.6613,459.6614,0.037037037,-0.386111111,0,0,0,,0,187,187,361,1,torre,,,
,,,,,,5d4652aa36bf400018d400bf,676192165fb32c2e1fb7aee6,67d1ab78aa296973d7e6813f,2025-03-12_09h43.16.291,Tarea de decisión léxica,2024.2.5,Win32,60.60606061,,,,,,,,,,,,,,,,,,,,,,459.6621,460.8117,l,1,0.467,1,460.8117,461.3119,,,,,,215,FEM,WORD,AGR,150,raíz,,la,,0.467,,461.312,461.312,0.037037037,-0.386111111,0,0,0,,0,188,188,214,1,raua,,,
,,,,,,5d4652aa36bf400018d400bf,676192165fb32c2e1fb7aee6,67d1ab78aa296973d7e6813f,2025-03-12_09h43.16.291,Tarea de decisión léxica,2024.2.5,Win32,60.60606061,,,,,,,,,,,,,,,,,,,,,,461.3126,462.5277,l,1,0.5488,1,462.5278,463.0281,,,,,,357,FEM,WORD,DIS,150,bruja,,el,,0.5488,,463.0288,463.0293,0.037037037,-0.386111111,0,0,0,,0,189,189,356,1,gruba,,,
,,,,,,5d4652aa36bf400018d400bf,676192165fb32c2e1fb7aee6,67d1ab78aa296973d7e6813f,2025-03-12_09h43.16.291,Tarea de decisión léxica,2024.2.5,Win32,60.60606061,,,,,,,,,,,,,,,,,,,,,,463.0297,464.2449,a,1,0.5338,1,464.245,464.7445,,,,,,436,MAS,NOWORD,DIS,150,ricno,,la,,0.5338,,464.7446,464.7447,0.037037037,-0.386111111,0,0,0,,0,190,190,435,1,ritmo,,,
,,,,,,5d4652aa36bf400018d400bf,676192165fb32c2e1fb7aee6,67d1ab78aa296973d7e6813f,2025-03-12_09h43.16.291,Tarea de decisión léxica,2024.2.5,Win32,60.60606061,,,,,,,,,,,,,,,,,,,,,,464.7454,465.9284,l,1,0.5008,1,465.9285,466.4288,,,,,,5,FEM,WORD,DIS,150,cosa,,el,,0.5008,,466.4288,466.4289,0.037037037,-0.386111111,0,0,0,,0,191,191,4,1,poga,,,
,,,,,,5d4652aa36bf400018d400bf,676192165fb32c2e1fb7aee6,67d1ab78aa296973d7e6813f,2025-03-12_09h43.16.291,Tarea de decisión léxica,2024.2.5,Win32,60.60606061,,,,,,,,,,,,,,,,,,,,,,466.4295,467.6779,l,1,0.5825,1,467.6781,468.1777,,,,,,43,FEM,WORD,AGR,150,pena,,la,,0.5825,,468.1778,468.1779,0.037037037,-0.386111111,0,0,0,,0,192,192,42,1,meda,,,
,,,,,,5d4652aa36bf400018d400bf,676192165fb32c2e1fb7aee6,67d1ab78aa296973d7e6813f,2025-03-12_09h43.16.291,Tarea de decisión léxica,2024.2.5,Win32,60.60606061,,,,,,,,,,,,,,,,,,,,,,468.1785,469.3615,a,1,0.5003,1,469.3615,469.8613,,,,,,328,MAS,NOWORD,DIS,150,lendo,,la,,0.5003,,469.8614,469.8615,0.037037037,-0.386111111,0,0,0,,0,193,193,327,1,fondo,,,
,,,,,,5d4652aa36bf400018d400bf,676192165fb32c2e1fb7aee6,67d1ab78aa296973d7e6813f,2025-03-12_09h43.16.291,Tarea de decisión léxica,2024.2.5,Win32,60.60606061,,,,,,,,,,,,,,,,,,,,,,469.8622,471.0277,l,1,0.4834,1,471.0277,471.528,,,,,,449,FEM,WORD,AGR,150,pluma,,la,,0.4834,,471.5286,471.529,0.037037037,-0.386111111,0,0,0,,0,194,194,448,1,crusa,,,
,,,,,,5d4652aa36bf400018d400bf,676192165fb32c2e1fb7aee6,67d1ab78aa296973d7e6813f,2025-03-12_09h43.16.291,Tarea de decisión léxica,2024.2.5,Win32,60.60606061,,,,,,,,,,,,,,,,,,,,,,471.5293,472.9956,a,1,0.7838,1,472.9957,473.4949,,,,,,82,FEM,NOWORD,AGR,150,vasa,,la,,0.7838,,473.495,473.495,0.037037037,-0.386111111,0,0,0,,0,195,195,81,1,dama,,,
,,,,,,5d4652aa36bf400018d400bf,676192165fb32c2e1fb7aee6,67d1ab78aa296973d7e6813f,2025-03-12_09h43.16.291,Tarea de decisión léxica,2024.2.5,Win32,60.60606061,,,,,,,,,,,,,,,,,,,,,,473.4961,474.9453,l,1,0.7839,1,474.9454,475.4443,,,,,,121,MAS,WORD,DIS,150,hoyo,,la,,0.7839,,475.4443,475.4444,0.037037037,-0.386111111,0,0,0,,0,196,196,120,1,bomo,,,
,,,,,,5d4652aa36bf400018d400bf,676192165fb32c2e1fb7aee6,67d1ab78aa296973d7e6813f,2025-03-12_09h43.16.291,Tarea de decisión léxica,2024.2.5,Win32,60.60606061,,,,,,,,,,,,,,,,,,,,,,475.4451,476.9114,a,1,0.8003,1,476.9114,477.4114,,,,,,192,FEM,NOWORD,DIS,150,bila,,el,,0.8003,,477.4115,477.4116,0.037037037,-0.386111111,0,0,0,,0,197,197,191,1,pila,,,
,,,,,,5d4652aa36bf400018d400bf,676192165fb32c2e1fb7aee6,67d1ab78aa296973d7e6813f,2025-03-12_09h43.16.291,Tarea de decisión léxica,2024.2.5,Win32,60.60606061,,,,,,,,,,,,,,,,,,,,,,477.4123,478.6447,l,1,0.5502,1,478.6448,479.1456,,,,,,103,FEM,WORD,DIS,150,ruta,,el,,0.5502,,479.1458,479.1458,0.037037037,-0.386111111,0,0,0,,0,198,198,102,1,rova,,,
,,,,,,5d4652aa36bf400018d400bf,676192165fb32c2e1fb7aee6,67d1ab78aa296973d7e6813f,2025-03-12_09h43.16.291,Tarea de decisión léxica,2024.2.5,Win32,60.60606061,,,,,,,,,,,,,,,,,,,,,,479.1465,480.4618,l,1,0.6339,1,480.462,480.9618,,,,,,31,FEM,WORD,DIS,150,ropa,,el,,0.6339,,480.9628,480.9634,0.037037037,-0.386111111,0,0,0,,0,199,199,30,1,bova,,,
,,,,,,5d4652aa36bf400018d400bf,676192165fb32c2e1fb7aee6,67d1ab78aa296973d7e6813f,2025-03-12_09h43.16.291,Tarea de decisión léxica,2024.2.5,Win32,60.60606061,,,,,,,,,,,,,,,,,,,,,,480.964,482.2451,a,1,0.6005,1,482.2451,482.7449,,,,,,210,MAS,NOWORD,AGR,150,dero,,el,,0.6005,,482.745,482.745,0.037037037,-0.386111111,0,0,0,,0,200,200,209,1,velo,,,
,,,,,,5d4652aa36bf400018d400bf,676192165fb32c2e1fb7aee6,67d1ab78aa296973d7e6813f,2025-03-12_09h43.16.291,Tarea de decisión léxica,2024.2.5,Win32,60.60606061,,,,,,,,,,,,,,,,,,,,,,482.746,484.2948,l,0,0.8666,0,484.2956,484.7949,,,,,,364,FEM,NOWORD,DIS,150,veida,,el,,0.8666,,484.7949,484.795,0.037037037,-0.386111111,0,0,0,,0,201,201,363,1,deuda,,,
,,,,,,5d4652aa36bf400018d400bf,676192165fb32c2e1fb7aee6,67d1ab78aa296973d7e6813f,2025-03-12_09h43.16.291,Tarea de decisión léxica,2024.2.5,Win32,60.60606061,,,,,,,,,,,,,,,,,,,,,,484.7962,486.2447,a,1,0.7667,1,486.2453,486.7449,,,,,,160,MAS,NOWORD,DIS,150,bilo,,la,,0.7667,,486.7449,486.7449,0.037037037,-0.386111111,0,0,0,,0,202,202,159,1,giro,,,
,,,,,,5d4652aa36bf400018d400bf,676192165fb32c2e1fb7aee6,67d1ab78aa296973d7e6813f,2025-03-12_09h43.16.291,Tarea de decisión léxica,2024.2.5,Win32,60.60606061,,,,,,,,,,,,,,,,,,,,,,486.7455,488.495,l,0,1.0676,0,488.4956,488.9943,,,,,,86,MAS,NOWORD,AGR,150,babo,,el,,1.0676,,488.9953,488.9958,0.037037037,-0.386111111,0,0,0,,0,203,203,85,1,lago,,,
,,,,,,5d4652aa36bf400018d400bf,676192165fb32c2e1fb7aee6,67d1ab78aa296973d7e6813f,2025-03-12_09h43.16.291,Tarea de decisión léxica,2024.2.5,Win32,60.60606061,,,,,,,,,,,,,,,,,,,,,,488.9964,490.2969,a,1,0.6355,1,490.2976,490.7968,,,,,,140,MAS,NOWORD,DIS,150,nila,,la,,0.6355,,490.7969,490.797,0.037037037,-0.386111111,0,0,0,,0,204,204,139,1,mago,,,
,,,,,,5d4652aa36bf400018d400bf,676192165fb32c2e1fb7aee6,67d1ab78aa296973d7e6813f,2025-03-12_09h43.16.291,Tarea de decisión léxica,2024.2.5,Win32,60.60606061,,,,,,,,,,,,,,,,,,,,,,490.7977,492.2792,a,1,0.8001,1,492.2793,492.7791,,,,,,2,FEM,NOWORD,AGR,150,mada,,la,,0.8001,,492.7792,492.7792,0.037037037,-0.386111111,0,0,0,,0,205,205,1,1,casa,,,
,,,,,,5d4652aa36bf400018d400bf,676192165fb32c2e1fb7aee6,67d1ab78aa296973d7e6813f,2025-03-12_09h43.16.291,Tarea de decisión léxica,2024.2.5,Win32,60.60606061,,,,,,,,,,,,,,,,,,,,,,492.7798,494.1953,l,1,0.7335,1,494.1955,494.6955,,,,,,207,MAS,WORD,DIS,150,kilo,,la,,0.7335,,494.6956,494.6956,0.037037037,-0.386111111,0,0,0,,0,206,206,206,1,kedo,,,
,,,,,,5d4652aa36bf400018d400bf,676192165fb32c2e1fb7aee6,67d1ab78aa296973d7e6813f,2025-03-12_09h43.16.291,Tarea de decisión léxica,2024.2.5,Win32,60.60606061,,,,,,,,,,,,,,,,,,,,,,494.6968,495.8614,l,1,0.4835,1,495.8614,496.3617,,,,,,441,FEM,WORD,DIS,150,selva,,el,,0.4835,,496.3617,496.3618,0.037037037,-0.386111111,0,0,0,,0,207,207,440,1,telza,,,
,,,,,,5d4652aa36bf400018d400bf,676192165fb32c2e1fb7aee6,67d1ab78aa296973d7e6813f,2025-03-12_09h43.16.291,Tarea de decisión léxica,2024.2.5,Win32,60.60606061,,,,,,,,,,,,,,,,,,,,,,496.3626,497.6295,a,1,0.5846,1,497.6296,498.1276,,,,,,470,MAS,NOWORD,AGR,150,matia,,el,,0.5846,,498.1282,498.1285,0.037037037,-0.386111111,0,0,0,,0,208,208,469,1,patio,,,
,,,,,,5d4652aa36bf400018d400bf,676192165fb32c2e1fb7aee6,67d1ab78aa296973d7e6813f,2025-03-12_09h43.16.291,Tarea de decisión léxica,2024.2.5,Win32,60.60606061,,,,,,,,,,,,,,,,,,,,,,498.1288,499.2779,a,1,0.4664,1,499.278,499.7774,,,,,,418,FEM,NOWORD,AGR,150,banja,,la,,0.4664,,499.7774,499.7775,0.037037037,-0.386111111,0,0,0,,0,209,209,417,1,barba,,,
,,,,,,5d4652aa36bf400018d400bf,676192165fb32c2e1fb7aee6,67d1ab78aa296973d7e6813f,2025-03-12_09h43.16.291,Tarea de decisión léxica,2024.2.5,Win32,60.60606061,,,,,,,,,,,,,,,,,,,,,,499.778,500.8945,a,1,0.4508,1,500.8947,501.3946,,,,,,290,FEM,NOWORD,AGR,150,bumpa,,la,,0.4508,,501.3947,501.3947,0.037037037,-0.386111111,0,0,0,,0,210,210,289,1,bomba,,,
,,,,,,5d4652aa36bf400018d400bf,676192165fb32c2e1fb7aee6,67d1ab78aa296973d7e6813f,2025-03-12_09h43.16.291,Tarea de decisión léxica,2024.2.5,Win32,60.60606061,,,,,,,,,,,,,,,,,,,,,,501.3953,502.5456,l,1,0.4675,1,502.5457,503.0447,,,,,,469,MAS,WORD,AGR,150,patio,,el,,0.4675,,503.0447,503.0448,0.037037037,-0.386111111,0,0,0,,0,211,211,468,1,matia,,,
,,,,,,5d4652aa36bf400018d400bf,676192165fb32c2e1fb7aee6,67d1ab78aa296973d7e6813f,2025-03-12_09h43.16.291,Tarea de decisión léxica,2024.2.5,Win32,60.60606061,,,,,,,,,,,,,,,,,,,,,,503.0454,504.278,a,1,0.5501,1,504.2781,504.7788,,,,,,372,FEM,NOWORD,DIS,150,mosta,,el,,0.5501,,504.7789,504.779,0.037037037,-0.386111111,0,0,0,,0,212,212,371,1,pasta,,,
,,,,,,5d4652aa36bf400018d400bf,676192165fb32c2e1fb7aee6,67d1ab78aa296973d7e6813f,2025-03-12_09h43.16.291,Tarea de decisión léxica,2024.2.5,Win32,60.60606061,,,,,,,,,,,,,,,,,,,,,,504.7797,505.9949,a,1,0.5339,1,505.995,506.4949,,,,,,256,MAS,NOWORD,DIS,150,mauco,,la,,0.5339,,506.4955,506.4958,0.037037037,-0.386111111,0,0,0,,0,213,213,255,1,miedo,,,
,,,,,,5d4652aa36bf400018d400bf,676192165fb32c2e1fb7aee6,67d1ab78aa296973d7e6813f,2025-03-12_09h43.16.291,Tarea de decisión léxica,2024.2.5,Win32,60.60606061,,,,,,,,,,,,,,,,,,,,,,506.4964,507.7799,l,1,0.6019,1,507.78,508.278,,,,,,263,FEM,WORD,DIS,150,vista,,el,,0.6019,,508.278,508.2781,0.037037037,-0.386111111,0,0,0,,0,214,214,262,1,dosta,,,
,,,,,,5d4652aa36bf400018d400bf,676192165fb32c2e1fb7aee6,67d1ab78aa296973d7e6813f,2025-03-12_09h43.16.291,Tarea de decisión léxica,2024.2.5,Win32,60.60606061,,,,,,,,,,,,,,,,,,,,,,508.2787,509.6612,l,1,0.6997,1,509.6613,510.1615,,,,,,341,MAS,WORD,AGR,150,valor,,el,,0.6997,,510.1615,510.1616,0.037037037,-0.386111111,0,0,0,,0,215,215,340,1,daror,,,
,,,,,,5d4652aa36bf400018d400bf,676192165fb32c2e1fb7aee6,67d1ab78aa296973d7e6813f,2025-03-12_09h43.16.291,Tarea de decisión léxica,2024.2.5,Win32,60.60606061,,,,,,,,,,,,,,,,,,,,,,510.1622,511.7299,a,0,0.8851,0,511.7304,512.2288,,,,,,313,MAS,WORD,AGR,150,novio,,el,,0.8851,,512.2288,512.229,0.037037037,-0.386111111,0,0,0,,0,216,216,312,1,govio,,,
,,,,,,5d4652aa36bf400018d400bf,676192165fb32c2e1fb7aee6,67d1ab78aa296973d7e6813f,2025-03-12_09h43.16.291,Tarea de decisión léxica,2024.2.5,Win32,60.60606061,,,,,,,,,,,,,,,,,,,,,,512.2296,513.3946,a,1,0.4828,1,513.395,513.894,,,,,,442,FEM,NOWORD,AGR,150,telza,,la,,0.4828,,513.894,513.8941,0.037037037,-0.386111111,0,0,0,,0,217,217,441,1,selva,,,
,,,,,,5d4652aa36bf400018d400bf,676192165fb32c2e1fb7aee6,67d1ab78aa296973d7e6813f,2025-03-12_09h43.16.291,Tarea de decisión léxica,2024.2.5,Win32,60.60606061,,,,,,,,,,,,,,,,,,,,,,513.8947,515.0115,a,1,0.4508,1,515.0116,515.5116,,,,,,338,MAS,NOWORD,AGR,150,nuejo,,el,,0.4508,,515.5124,515.513,0.037037037,-0.386111111,0,0,0,,0,218,218,337,1,huevo,,,
,,,,,,5d4652aa36bf400018d400bf,676192165fb32c2e1fb7aee6,67d1ab78aa296973d7e6813f,2025-03-12_09h43.16.291,Tarea de decisión léxica,2024.2.5,Win32,60.60606061,,,,,,,,,,,,,,,,,,,,,,515.5134,516.9946,a,1,0.7997,1,516.9946,517.4959,,,,,,416,FEM,NOWORD,DIS,150,juira,,el,,0.7997,,517.4959,517.496,0.037037037,-0.386111111,0,0,0,,0,219,219,415,1,jaula,,,
,,,,,,5d4652aa36bf400018d400bf,676192165fb32c2e1fb7aee6,67d1ab78aa296973d7e6813f,2025-03-12_09h43.16.291,Tarea de decisión léxica,2024.2.5,Win32,60.60606061,,,,,,,,,,,,,,,,,,,,,,517.4966,518.728,a,1,0.5493,1,518.728,519.2287,,,,,,32,FEM,NOWORD,DIS,150,bova,,el,,0.5493,,519.2288,519.2288,0.037037037,-0.386111111,0,0,0,,0,220,220,31,1,ropa,,,
,,,,,,5d4652aa36bf400018d400bf,676192165fb32c2e1fb7aee6,67d1ab78aa296973d7e6813f,2025-03-12_09h43.16.291,Tarea de decisión léxica,2024.2.5,Win32,60.60606061,,,,,,,,,,,,,,,,,,,,,,519.23,520.5112,l,1,0.5995,1,520.5113,521.0115,,,,,,427,FEM,WORD,DIS,150,oreja,,el,,0.5995,,521.0115,521.0116,0.037037037,-0.386111111,0,0,0,,0,221,221,426,1,oseva,,,
,,,,,,5d4652aa36bf400018d400bf,676192165fb32c2e1fb7aee6,67d1ab78aa296973d7e6813f,2025-03-12_09h43.16.291,Tarea de decisión léxica,2024.2.5,Win32,60.60606061,,,,,,,,,,,,,,,,,,,,,,521.0122,522.3629,l,1,0.6853,1,522.363,522.8616,,,,,,279,FEM,WORD,DIS,150,prisa,,el,,0.6853,,522.8617,522.8617,0.037037037,-0.386111111,0,0,0,,0,222,222,278,1,grina,,,
,,,,,,5d4652aa36bf400018d400bf,676192165fb32c2e1fb7aee6,67d1ab78aa296973d7e6813f,2025-03-12_09h43.16.291,Tarea de decisión léxica,2024.2.5,Win32,60.60606061,,,,,,,,,,,,,,,,,,,,,,522.8623,524.0945,a,1,0.5495,1,524.0946,524.5946,,,,,,156,FEM,NOWORD,DIS,150,luma,,el,,0.5495,,524.5956,524.5962,0.037037037,-0.386111111,0,0,0,,0,223,223,155,1,fuga,,,
,,,,,,5d4652aa36bf400018d400bf,676192165fb32c2e1fb7aee6,67d1ab78aa296973d7e6813f,2025-03-12_09h43.16.291,Tarea de decisión léxica,2024.2.5,Win32,60.60606061,,,,,,,,,,,,,,,,,,,,,,524.5966,525.928,l,1,0.6501,1,525.9283,526.4279,,,,,,393,FEM,WORD,DIS,150,aldea,,el,,0.6501,,526.4279,526.4279,0.037037037,-0.386111111,0,0,0,,0,224,224,392,1,ashea,,,
,,,,,,5d4652aa36bf400018d400bf,676192165fb32c2e1fb7aee6,67d1ab78aa296973d7e6813f,2025-03-12_09h43.16.291,Tarea de decisión léxica,2024.2.5,Win32,60.60606061,,,,,,,,,,,,,,,,,,,,,,526.4286,527.6954,a,1,0.5835,1,527.6956,528.1943,,,,,,100,MAS,NOWORD,DIS,150,soro,,la,,0.5835,,528.1943,528.1943,0.037037037,-0.386111111,0,0,0,,0,225,225,99,1,lobo,,,
,,,,,,5d4652aa36bf400018d400bf,676192165fb32c2e1fb7aee6,67d1ab78aa296973d7e6813f,2025-03-12_09h43.16.291,Tarea de decisión léxica,2024.2.5,Win32,60.60606061,,,,,,,,,,,,,,,,,,,,,,528.1949,529.3784,l,1,0.501,1,529.3784,529.8783,,,,,,125,MAS,WORD,AGR,150,lujo,,el,,0.501,,529.8784,529.8784,0.037037037,-0.386111111,0,0,0,,0,226,226,124,1,vudo,,,
,,,,,,5d4652aa36bf400018d400bf,676192165fb32c2e1fb7aee6,67d1ab78aa296973d7e6813f,2025-03-12_09h43.16.291,Tarea de decisión léxica,2024.2.5,Win32,60.60606061,,,,,,,,,,,,,,,,,,,,,,529.8789,531.0115,l,1,0.4503,1,531.0116,531.5112,,,,,,461,FEM,WORD,DIS,150,tabla,,el,,0.4503,,531.512,531.5126,0.037037037,-0.386111111,0,0,0,,0,227,227,460,1,pagra,,,
,,,,,,5d4652aa36bf400018d400bf,676192165fb32c2e1fb7aee6,67d1ab78aa296973d7e6813f,2025-03-12_09h43.16.291,Tarea de decisión léxica,2024.2.5,Win32,60.60606061,,,,,,,,,,,,,,,,,,,,,,531.5132,532.8284,a,1,0.6339,1,532.8284,533.3278,,,,,,336,FEM,NOWORD,DIS,150,pesta,,el,,0.6339,,533.3279,533.3279,0.037037037,-0.386111111,0,0,0,,0,228,228,335,1,costa,,,
,,,,,,5d4652aa36bf400018d400bf,676192165fb32c2e1fb7aee6,67d1ab78aa296973d7e6813f,2025-03-12_09h43.16.291,Tarea de decisión léxica,2024.2.5,Win32,60.60606061,,,,,,,,,,,,,,,,,,,,,,533.3285,534.7481,l,1,0.746,1,534.7481,535.2484,,,,,,409,MAS,WORD,DIS,150,carro,,la,,0.746,,535.2484,535.2485,0.037037037,-0.386111111,0,0,0,,0,229,229,408,1,pafro,,,
,,,,,,5d4652aa36bf400018d400bf,676192165fb32c2e1fb7aee6,67d1ab78aa296973d7e6813f,2025-03-12_09h43.16.291,Tarea de decisión léxica,2024.2.5,Win32,60.60606061,,,,,,,,,,,,,,,,,,,,,,535.2495,536.4644,a,1,0.5336,1,536.4644,536.9643,,,,,,302,FEM,NOWORD,AGR,150,ranga,,la,,0.5336,,536.9643,536.9644,0.037037037,-0.386111111,0,0,0,,0,230,230,301,1,banda,,,
,,,,,,5d4652aa36bf400018d400bf,676192165fb32c2e1fb7aee6,67d1ab78aa296973d7e6813f,2025-03-12_09h43.16.291,Tarea de decisión léxica,2024.2.5,Win32,60.60606061,,,,,,,,,,,,,,,,,,,,,,536.9656,538.1804,l,1,0.534,1,538.1805,538.6803,,,,,,85,MAS,WORD,AGR,150,lago,,el,,0.534,,538.6804,538.6805,0.037037037,-0.386111111,0,0,0,,0,231,231,84,1,babo,,,
,,,,,,5d4652aa36bf400018d400bf,676192165fb32c2e1fb7aee6,67d1ab78aa296973d7e6813f,2025-03-12_09h43.16.291,Tarea de decisión léxica,2024.2.5,Win32,60.60606061,,,,,,,,,,,,,,,,,,,,,,538.6812,539.8796,a,1,0.517,1,539.8797,540.3799,,,,,,472,FEM,NOWORD,DIS,150,prana,,el,,0.517,,540.3807,540.3813,0.037037037,-0.386111111,0,0,0,,0,232,232,471,1,grasa,,,
,,,,,,5d4652aa36bf400018d400bf,676192165fb32c2e1fb7aee6,67d1ab78aa296973d7e6813f,2025-03-12_09h43.16.291,Tarea de decisión léxica,2024.2.5,Win32,60.60606061,,,,,,,,,,,,,,,,,,,,,,540.3819,541.5794,a,1,0.5174,1,541.5794,542.0794,,,,,,468,MAS,NOWORD,DIS,150,peiso,,la,,0.5174,,542.0794,542.0795,0.037037037,-0.386111111,0,0,0,,0,233,233,467,1,piano,,,
,,,,,,5d4652aa36bf400018d400bf,676192165fb32c2e1fb7aee6,67d1ab78aa296973d7e6813f,2025-03-12_09h43.16.291,Tarea de decisión léxica,2024.2.5,Win32,60.60606061,,,,,,,,,,,,,,,,,,,,,,542.0802,543.2787,a,1,0.5165,1,543.2788,543.7787,,,,,,14,FEM,NOWORD,AGR,150,nola,,la,,0.5165,,543.7788,543.7789,0.037037037,-0.386111111,0,0,0,,0,234,234,13,1,hora,,,
,,,,,,5d4652aa36bf400018d400bf,676192165fb32c2e1fb7aee6,67d1ab78aa296973d7e6813f,2025-03-12_09h43.16.291,Tarea de decisión léxica,2024.2.5,Win32,60.60606061,,,,,,,,,,,,,,,,,,,,,,543.7801,545.0459,a,1,0.5842,1,545.046,545.5445,,,,,,158,MAS,NOWORD,AGR,150,hico,,el,,0.5842,,545.5445,545.5445,0.037037037,-0.386111111,0,0,0,,0,235,235,157,1,nido,,,
,,,,,,5d4652aa36bf400018d400bf,676192165fb32c2e1fb7aee6,67d1ab78aa296973d7e6813f,2025-03-12_09h43.16.291,Tarea de decisión léxica,2024.2.5,Win32,60.60606061,,,,,,,,,,,,,,,,,,,,,,545.5452,546.8112,a,1,0.6,1,546.8114,547.3113,,,,,,342,MAS,NOWORD,AGR,150,daror,,el,,0.6,,547.3113,547.3114,0.037037037,-0.386111111,0,0,0,,0,236,236,341,1,valor,,,
,,,,,,5d4652aa36bf400018d400bf,676192165fb32c2e1fb7aee6,67d1ab78aa296973d7e6813f,2025-03-12_09h43.16.291,Tarea de decisión léxica,2024.2.5,Win32,60.60606061,,,,,,,,,,,,,,,,,,,,,,547.312,548.4795,a,1,0.5011,1,548.4795,548.9781,,,,,,398,FEM,NOWORD,AGR,150,trigi,,la,,0.5011,,548.9787,548.9791,0.037037037,-0.386111111,0,0,0,,0,237,237,397,1,tribu,,,
,,,,,,5d4652aa36bf400018d400bf,676192165fb32c2e1fb7aee6,67d1ab78aa296973d7e6813f,2025-03-12_09h43.16.291,Tarea de decisión léxica,2024.2.5,Win32,60.60606061,,,,,,,,,,,,,,,,,,,,,,548.9795,550.1282,a,0,0.4666,0,550.1287,550.6278,,,,,,179,MAS,WORD,DIS,150,toro,,la,,0.4666,,550.6278,550.6278,0.037037037,-0.386111111,0,0,0,,0,238,238,178,1,sono,,,
,,,,,,5d4652aa36bf400018d400bf,676192165fb32c2e1fb7aee6,67d1ab78aa296973d7e6813f,2025-03-12_09h43.16.291,Tarea de decisión léxica,2024.2.5,Win32,60.60606061,,,,,,,,,,,,,,,,,,,,,,550.6284,552.1109,l,0,0.7999,0,552.111,552.6113,,,,,,206,FEM,NOWORD,AGR,150,bara,,la,,0.7999,,552.6114,552.6114,0.037037037,-0.386111111,0,0,0,,0,239,239,205,1,rana,,,
,,,,,,5d4652aa36bf400018d400bf,676192165fb32c2e1fb7aee6,67d1ab78aa296973d7e6813f,2025-03-12_09h43.16.291,Tarea de decisión léxica,2024.2.5,Win32,60.60606061,,,,,,,,,,,,,,,,,,,,,,552.6123,553.9142,a,1,0.6197,1,553.9147,554.4114,,,,,,96,FEM,NOWORD,DIS,151,neda,,el,,0.6197,,554.4115,554.4116,0.037037037,-0.386111111,0,0,0,,0,240,240,95,1,moda,,,
,,,,,,5d4652aa36bf400018d400bf,676192165fb32c2e1fb7aee6,67d1ab78aa296973d7e6813f,2025-03-12_09h43.16.291,Tarea de decisión léxica,2024.2.5,Win32,60.60606061,,,,,,,,,,,,,,,,,,,,,,554.4123,555.9113,a,0,0.8172,0,555.9118,556.4117,,,,,,373,FEM,WORD,AGR,150,pizza,,la,,0.8172,,556.4118,556.4118,0.037037037,-0.386111111,0,0,0,,0,241,241,372,1,pogza,,,
,,,,,,5d4652aa36bf400018d400bf,676192165fb32c2e1fb7aee6,67d1ab78aa296973d7e6813f,2025-03-12_09h43.16.291,Tarea de decisión léxica,2024.2.5,Win32,60.60606061,,,,,,,,,,,,,,,,,,,,,,556.4125,557.7952,a,0,0.7007,0,557.7952,558.2956,,,,,,77,MAS,WORD,DIS,150,loco,,la,,0.7007,,558.2963,558.2967,0.037037037,-0.386111111,0,0,0,,0,242,242,76,1,fodo,,,
,,,,,,5d4652aa36bf400018d400bf,676192165fb32c2e1fb7aee6,67d1ab78aa296973d7e6813f,2025-03-12_09h43.16.291,Tarea de decisión léxica,2024.2.5,Win32,60.60606061,,,,,,,,,,,,,,,,,,,,,,558.297,559.7111,l,1,0.7327,1,559.7115,560.2115,,,,,,187,MAS,WORD,DIS,150,mito,,la,,0.7327,,560.2116,560.2116,0.037037037,-0.386111111,0,0,0,,0,243,243,186,1,suto,,,
,,,,,,5d4652aa36bf400018d400bf,676192165fb32c2e1fb7aee6,67d1ab78aa296973d7e6813f,2025-03-12_09h43.16.291,Tarea de decisión léxica,2024.2.5,Win32,60.60606061,,,,,,,,,,,,,,,,,,,,,,560.2121,561.5781,l,1,0.6838,1,561.5781,562.0779,,,,,,181,FEM,WORD,AGR,150,seda,,la,,0.6838,,562.0779,562.078,0.037037037,-0.386111111,0,0,0,,0,244,244,180,1,teda,,,
,,,,,,5d4652aa36bf400018d400bf,676192165fb32c2e1fb7aee6,67d1ab78aa296973d7e6813f,2025-03-12_09h43.16.291,Tarea de decisión léxica,2024.2.5,Win32,60.60606061,,,,,,,,,,,,,,,,,,,,,,562.0786,563.4127,l,1,0.6515,1,563.4127,563.9126,,,,,,377,MAS,WORD,AGR,150,hielo,,el,,0.6515,,563.9126,563.9127,0.037037037,-0.386111111,0,0,0,,0,245,245,376,1,gaulo,,,
,,,,,,5d4652aa36bf400018d400bf,676192165fb32c2e1fb7aee6,67d1ab78aa296973d7e6813f,2025-03-12_09h43.16.291,Tarea de decisión léxica,2024.2.5,Win32,60.60606061,,,,,,,,,,,,,,,,,,,,,,563.9133,565.1787,a,1,0.5843,1,565.1788,565.6785,,,,,,186,MAS,NOWORD,AGR,150,raol,,el,,0.5843,,565.6785,565.6786,0.037037037,-0.386111111,0,0,0,,0,246,246,185,1,baúl,,,
,,,,,,5d4652aa36bf400018d400bf,676192165fb32c2e1fb7aee6,67d1ab78aa296973d7e6813f,2025-03-12_09h43.16.291,Tarea de decisión léxica,2024.2.5,Win32,60.60606061,,,,,,,,,,,,,,,,,,,,,,565.6799,567.0954,l,1,0.7344,1,567.0955,567.5955,,,,,,17,FEM,WORD,AGR,150,mamá,,la,,0.7344,,567.5973,567.5979,0.037037037,-0.386111111,0,0,0,,0,247,247,16,1,paba,,,
,,,,,,5d4652aa36bf400018d400bf,676192165fb32c2e1fb7aee6,67d1ab78aa296973d7e6813f,2025-03-12_09h43.16.291,Tarea de decisión léxica,2024.2.5,Win32,60.60606061,,,,,,,,,,,,,,,,,,,,,,567.5985,568.8117,a,1,0.5344,1,568.8118,569.3131,,,,,,254,MAS,NOWORD,AGR,150,trido,,el,,0.5344,,569.3132,569.3133,0.037037037,-0.386111111,0,0,0,,0,248,248,253,1,chico,,,
,,,,,,5d4652aa36bf400018d400bf,676192165fb32c2e1fb7aee6,67d1ab78aa296973d7e6813f,2025-03-12_09h43.16.291,Tarea de decisión léxica,2024.2.5,Win32,60.60606061,,,,,,,,,,,,,,,,,,,,,,569.3144,570.5784,a,1,0.5835,1,570.5784,571.0781,,,,,,88,MAS,NOWORD,DIS,150,damo,,la,,0.5835,,571.0781,571.0782,0.037037037,-0.386111111,0,0,0,,0,249,249,87,1,vaso,,,
,,,,,,5d4652aa36bf400018d400bf,676192165fb32c2e1fb7aee6,67d1ab78aa296973d7e6813f,2025-03-12_09h43.16.291,Tarea de decisión léxica,2024.2.5,Win32,60.60606061,,,,,,,,,,,,,,,,,,,,,,571.0789,572.2626,l,1,0.5012,1,572.2627,572.7604,,,,,,477,MAS,WORD,DIS,150,botón,,la,,0.5012,,572.7605,572.7605,0.037037037,-0.386111111,0,0,0,,0,250,250,476,1,hocon,,,
,,,,,,5d4652aa36bf400018d400bf,676192165fb32c2e1fb7aee6,67d1ab78aa296973d7e6813f,2025-03-12_09h43.16.291,Tarea de decisión léxica,2024.2.5,Win32,60.60606061,,,,,,,,,,,,,,,,,,,,,,572.7611,573.9782,l,1,0.5507,1,573.9783,574.4782,,,,,,303,MAS,WORD,AGR,150,barco,,el,,0.5507,,574.479,574.4797,0.037037037,-0.386111111,0,0,0,,0,251,251,302,1,lanco,,,
,,,,,,5d4652aa36bf400018d400bf,676192165fb32c2e1fb7aee6,67d1ab78aa296973d7e6813f,2025-03-12_09h43.16.291,Tarea de decisión léxica,2024.2.5,Win32,60.60606061,,,,,,,,,,,,,,,,,,,,,,574.4804,575.5947,a,1,0.4334,1,575.5948,576.0943,,,,,,8,MAS,NOWORD,DIS,150,nivo,,la,,0.4334,,576.0943,576.0943,0.037037037,-0.386111111,0,0,0,,0,252,252,7,1,hijo,,,
,,,,,,5d4652aa36bf400018d400bf,676192165fb32c2e1fb7aee6,67d1ab78aa296973d7e6813f,2025-03-12_09h43.16.291,Tarea de decisión léxica,2024.2.5,Win32,60.60606061,,,,,,,,,,,,,,,,,,,,,,576.0949,577.6455,l,0,0.8839,0,577.6465,578.1447,,,,,,152,MAS,NOWORD,DIS,150,sogo,,la,,0.8839,,578.1447,578.1448,0.037037037,-0.386111111,0,0,0,,0,253,253,151,1,tomo,,,
,,,,,,5d4652aa36bf400018d400bf,676192165fb32c2e1fb7aee6,67d1ab78aa296973d7e6813f,2025-03-12_09h43.16.291,Tarea de decisión léxica,2024.2.5,Win32,60.60606061,,,,,,,,,,,,,,,,,,,,,,578.1456,579.3118,l,1,0.4841,1,579.3124,579.8116,,,,,,19,MAS,WORD,AGR,150,niño,,el,,0.4841,,579.8116,579.8118,0.037037037,-0.386111111,0,0,0,,0,254,254,18,1,himo,,,
,,,,,,5d4652aa36bf400018d400bf,676192165fb32c2e1fb7aee6,67d1ab78aa296973d7e6813f,2025-03-12_09h43.16.291,Tarea de decisión léxica,2024.2.5,Win32,60.60606061,,,,,,,,,,,,,,,,,,,,,,579.8126,580.912,a,1,0.4175,1,580.912,581.4122,,,,,,278,MAS,NOWORD,AGR,150,vuemo,,el,,0.4175,,581.4123,581.4124,0.037037037,-0.386111111,0,0,0,,0,255,255,277,1,fuego,,,
,,,,,,5d4652aa36bf400018d400bf,676192165fb32c2e1fb7aee6,67d1ab78aa296973d7e6813f,2025-03-12_09h43.16.291,Tarea de decisión léxica,2024.2.5,Win32,60.60606061,,,,,,,,,,,,,,,,,,,,,,581.4133,582.6286,a,0,0.5339,0,582.6293,583.1281,,,,,,475,FEM,WORD,AGR,150,manta,,la,,0.5339,,583.1288,583.1293,0.037037037,-0.386111111,0,0,0,,0,256,256,474,1,mucta,,,
,,,,,,5d4652aa36bf400018d400bf,676192165fb32c2e1fb7aee6,67d1ab78aa296973d7e6813f,2025-03-12_09h43.16.291,Tarea de decisión léxica,2024.2.5,Win32,60.60606061,,,,,,,,,,,,,,,,,,,,,,583.1296,584.528,a,1,0.7171,1,584.5287,585.028,,,,,,332,MAS,NOWORD,DIS,150,erato,,la,,0.7171,,585.028,585.0281,0.037037037,-0.386111111,0,0,0,,0,257,257,331,1,éxito,,,
,,,,,,5d4652aa36bf400018d400bf,676192165fb32c2e1fb7aee6,67d1ab78aa296973d7e6813f,2025-03-12_09h43.16.291,Tarea de decisión léxica,2024.2.5,Win32,60.60606061,,,,,,,,,,,,,,,,,,,,,,585.029,586.5116,a,1,0.817,1,586.5117,587.0118,,,,,,400,MAS,NOWORD,DIS,150,serro,,la,,0.817,,587.0119,587.012,0.037037037,-0.386111111,0,0,0,,0,258,258,399,1,techo,,,
,,,,,,5d4652aa36bf400018d400bf,676192165fb32c2e1fb7aee6,67d1ab78aa296973d7e6813f,2025-03-12_09h43.16.291,Tarea de decisión léxica,2024.2.5,Win32,60.60606061,,,,,,,,,,,,,,,,,,,,,,587.0129,588.5124,l,1,0.8176,1,588.5125,589.0114,,,,,,249,FEM,WORD,DIS,150,clase,,el,,0.8176,,589.0114,589.0115,0.037037037,-0.386111111,0,0,0,,0,259,259,248,1,plane,,,
,,,,,,5d4652aa36bf400018d400bf,676192165fb32c2e1fb7aee6,67d1ab78aa296973d7e6813f,2025-03-12_09h43.16.291,Tarea de decisión léxica,2024.2.5,Win32,60.60606061,,,,,,,,,,,,,,,,,,,,,,589.0124,590.1129,a,0,0.4336,0,590.1138,590.6128,,,,,,227,MAS,WORD,DIS,150,faro,,la,,0.4336,,590.6129,590.613,0.037037037,-0.386111111,0,0,0,,0,260,260,226,1,laro,,,
,,,,,,5d4652aa36bf400018d400bf,676192165fb32c2e1fb7aee6,67d1ab78aa296973d7e6813f,2025-03-12_09h43.16.291,Tarea de decisión léxica,2024.2.5,Win32,60.60606061,,,,,,,,,,,,,,,,,,,,,,590.6142,591.912,l,1,0.6163,1,591.9124,592.4121,,,,,,455,MAS,WORD,AGR,150,reino,,el,,0.6163,,592.4134,592.4143,0.037037037,-0.386111111,0,0,0,,0,261,261,454,1,riaso,,,
,,,,,,5d4652aa36bf400018d400bf,676192165fb32c2e1fb7aee6,67d1ab78aa296973d7e6813f,2025-03-12_09h43.16.291,Tarea de decisión léxica,2024.2.5,Win32,60.60606061,,,,,,,,,,,,,,,,,,,,,,592.4148,593.6295,a,1,0.5345,1,593.6296,594.1293,,,,,,132,FEM,NOWORD,DIS,150,fada,,el,,0.5345,,594.1295,594.1297,0.037037037,-0.386111111,0,0,0,,0,262,262,131,1,mina,,,
,,,,,,5d4652aa36bf400018d400bf,676192165fb32c2e1fb7aee6,67d1ab78aa296973d7e6813f,2025-03-12_09h43.16.291,Tarea de decisión léxica,2024.2.5,Win32,60.60606061,,,,,,,,,,,,,,,,,,,,,,594.1314,595.4474,l,1,0.6364,1,595.4475,595.9459,,,,,,13,FEM,WORD,AGR,150,hora,,la,,0.6364,,595.9459,595.946,0.037037037,-0.386111111,0,0,0,,0,263,263,12,1,nola,,,
,,,,,,5d4652aa36bf400018d400bf,676192165fb32c2e1fb7aee6,67d1ab78aa296973d7e6813f,2025-03-12_09h43.16.291,Tarea de decisión léxica,2024.2.5,Win32,60.60606061,,,,,,,,,,,,,,,,,,,,,,595.9466,597.1296,a,1,0.5017,1,597.1297,597.6282,,,,,,292,FEM,NOWORD,DIS,150,mesta,,el,,0.5017,,597.6282,597.6282,0.037037037,-0.386111111,0,0,0,,0,264,264,291,1,pista,,,
,,,,,,5d4652aa36bf400018d400bf,676192165fb32c2e1fb7aee6,67d1ab78aa296973d7e6813f,2025-03-12_09h43.16.291,Tarea de decisión léxica,2024.2.5,Win32,60.60606061,,,,,,,,,,,,,,,,,,,,,,597.6288,598.8622,a,1,0.5667,1,598.8623,599.3625,,,,,,414,FEM,NOWORD,AGR,150,bieda,,la,,0.5667,,599.3626,599.3628,0.037037037,-0.386111111,0,0,0,,0,265,265,413,1,rueda,,,
,,,,,,5d4652aa36bf400018d400bf,676192165fb32c2e1fb7aee6,67d1ab78aa296973d7e6813f,2025-03-12_09h43.16.291,Tarea de decisión léxica,2024.2.5,Win32,60.60606061,,,,,,,,,,,,,,,,,,,,,,599.3645,600.6471,l,1,0.6015,1,600.6472,601.1456,,,,,,363,FEM,WORD,DIS,150,deuda,,el,,0.6015,,601.1462,601.1466,0.037037037,-0.386111111,0,0,0,,0,266,266,362,1,veida,,,
,,,,,,5d4652aa36bf400018d400bf,676192165fb32c2e1fb7aee6,67d1ab78aa296973d7e6813f,2025-03-12_09h43.16.291,Tarea de decisión léxica,2024.2.5,Win32,60.60606061,,,,,,,,,,,,,,,,,,,,,,601.147,602.2954,a,1,0.4679,1,602.2955,602.7948,,,,,,274,FEM,NOWORD,AGR,150,frosa,,la,,0.4679,,602.7948,602.7949,0.037037037,-0.386111111,0,0,0,,0,267,267,273,1,broma,,,
,,,,,,5d4652aa36bf400018d400bf,676192165fb32c2e1fb7aee6,67d1ab78aa296973d7e6813f,2025-03-12_09h43.16.291,Tarea de decisión léxica,2024.2.5,Win32,60.60606061,,,,,,,,,,,,,,,,,,,,,,602.7954,604.0609,l,1,0.5833,1,604.061,604.5628,,,,,,453,FEM,WORD,AGR,150,mafia,,la,,0.5833,,604.5629,604.563,0.037037037,-0.386111111,0,0,0,,0,268,268,452,1,pafia,,,
,,,,,,5d4652aa36bf400018d400bf,676192165fb32c2e1fb7aee6,67d1ab78aa296973d7e6813f,2025-03-12_09h43.16.291,Tarea de decisión léxica,2024.2.5,Win32,60.60606061,,,,,,,,,,,,,,,,,,,,,,604.5641,605.9118,l,1,0.6671,1,605.9119,606.4117,,,,,,459,MAS,WORD,AGR,150,grado,,el,,0.6671,,606.4117,606.4117,0.037037037,-0.386111111,0,0,0,,0,269,269,458,1,fraco,,,
