counterbalancing_condition,consent_prescreening.block_1/declare_consent,consent_prescreening.block_1/age_years,consent_prescreening.block_1/gender,consent_prescreening.block_1/language_disorder,consent_prescreening.block_1/first_language,PROLIFIC_PID,STUDY_ID,SESSION_ID,date,expName,psychopyVersion,OS,frameRate,check_prescreening_answers.started,check_prescreening_answers.stopped,Instructions.started,Instructions.stopped,instr_done_keyboard.keys,instr_done_touch.x,instr_done_touch.y,instr_done_touch.leftButton,instr_done_touch.midButton,instr_done_touch.rightButton,instr_done_touch.clicked_name,instruction_pages.thisRepN,instruction_pages.thisTrialN,instruction_pages.thisN,instruction_pages.thisIndex,instruction_pages.ran,pageN,phase,instruct_text,has_image,instruct_image,instr_done_keyboard.rt,instr_done_keyboard.duration,presentTrial.started,presentTrial.stopped,response.keys,response.corr,rt,corr,feedback.started,feedback.stopped,practice_trials.thisRepN,practice_trials.thisTrialN,practice_trials.thisN,practice_trials.thisIndex,practice_trials.ran,TrialID,Gender,StimulusType,Condition,PrimeDuration,Prime,len,Flanker,corrAns,response.rt,response.duration,Break.started,Break.stopped,break_done_touch.x,break_done_touch.y,break_done_touch.leftButton,break_done_touch.midButton,break_done_touch.rightButton,break_done_keyboard.keys,experiment_trials.thisRepN,experiment_trials.thisTrialN,experiment_trials.thisN,experiment_trials.thisIndex,experiment_trials.ran,PairedWith,break_done_keyboard.rt,break_done_keyboard.duration,End.started,End.stopped
2,"[""over_18"",""comfortable"",""read_info"",""consent_given""]",18,M,"[""none""]","[""spanish""]",5d5496bdd84ebe0001f5fb20,676192165fb32c2e1fb7aee6,67d0cf7999003f58c0549c11,2025-03-11_17h14.57.045,Tarea de decisión léxica,2024.2.5,Win32,59.88023952,,,,,,,,,,,,,,,,,,,,,,,,,,,,,,,,,,,,,,,,,,,,,,,,,,,,,,,,,,,,,,,,,
,,,,,,5d5496bdd84ebe0001f5fb20,676192165fb32c2e1fb7aee6,67d0cf7999003f58c0549c11,2025-03-11_17h14.57.045,Tarea de decisión léxica,2024.2.5,Win32,59.88023952,75.2342,75.2343,,,,,,,,,,,,,,,,,,,,,,,,,,,,,,,,,,,,,,,,,,,,,,,,,,,,,,,,,,,,,,,
,,,,,,5d5496bdd84ebe0001f5fb20,676192165fb32c2e1fb7aee6,67d0cf7999003f58c0549c11,2025-03-11_17h14.57.045,Tarea de decisión léxica,2024.2.5,Win32,59.88023952,,,75.2706,89.4215,,-0.017499987,-0.379166667,1,0,0,instr_done_button,0,0,0,0,1,1,instructions,"INSTRUCCIONES
Va a realizar una prueba de decisión léxica. Desde el comienzo de la prueba mire siempre al centro de la pantalla. Se presentará una serie de cadenas de letras, una a la vez, en la pantalla. Su tarea consiste en determinar si cada cadena de letras constituye una palabra real en español o una no-palabra (una secuencia de letras que no constituye una palabra real). 

Pulse la tecla ESPACIO para continuar.",0,keyboardresponseNW.png,,,,,,,,,,,,,,,,,,,,,,,,,,,,,,,,,,,,,,,,,,,,
,,,,,,5d5496bdd84ebe0001f5fb20,676192165fb32c2e1fb7aee6,67d0cf7999003f58c0549c11,2025-03-11_17h14.57.045,Tarea de decisión léxica,2024.2.5,Win32,59.88023952,,,89.4269,92.2701,,-0.017499987,-0.379166667,1,0,0,instr_done_button,0,1,1,1,1,2,instructions,"El procedimiento es el siguiente: Aparecerán dos barras verticales posicionadas en el centro de la pantalla, separadas por un pequeño espacio.Por favor, enfoque su atención en el espacio entre las barras. Esto preparará sus ojos para la siguiente cadena de letras, que aparecerá entre las dos barras durante un instante.

Pulse la tecla ESPACIO para continuar.",0,keyboardresponseNW.png,,,,,,,,,,,,,,,,,,,,,,,,,,,,,,,,,,,,,,,,,,,,
,,,,,,5d5496bdd84ebe0001f5fb20,676192165fb32c2e1fb7aee6,67d0cf7999003f58c0549c11,2025-03-11_17h14.57.045,Tarea de decisión léxica,2024.2.5,Win32,59.88023952,,,92.2731,107.2865,space,-0.017499987,-0.379166667,0,0,0,,0,2,2,2,1,3,instructions,"En el teclado de su dispositivo, pulse la tecla ""L"" si la cadena de letras es una palabra real en español (por ejemplo: ""mano"") y la tecla ""A"" si la cadena de letras es una no-palabra (por ejemplo: ""minu"").
Pulse la tecla ESPACIO para continuar.",1,keyboardresponseNW.png,14.9354,,,,,,,,,,,,,,,,,,,,,,,,,,,,,,,,,,,,,,,,,,,
,,,,,,5d5496bdd84ebe0001f5fb20,676192165fb32c2e1fb7aee6,67d0cf7999003f58c0549c11,2025-03-11_17h14.57.045,Tarea de decisión léxica,2024.2.5,Win32,59.88023952,,,107.29,116.3339,space,-0.017499987,-0.379166667,0,0,0,,0,3,3,3,1,4,instructions,"Es muy importante que responda con la mayor rapidez y precisión posibles. Si no responde dentro de 2 segundos, aparecerá el mensaje ""Muy lento"" y el experimento pasará a la siguiente palabra. Inmediatamente después de su respuesta se indicará si fue correcta o no. Los primeros 15 intentos serán de práctica y habrá dos descansos durante la prueba.

Pulse la tecla ESPACIO  para iniciar la parte de práctica.",0,keyboardresponseNW.png,9.0227,,,,,,,,,,,,,,,,,,,,,,,,,,,,,,,,,,,,,,,,,,,
,,,,,,5d5496bdd84ebe0001f5fb20,676192165fb32c2e1fb7aee6,67d0cf7999003f58c0549c11,2025-03-11_17h14.57.045,Tarea de decisión léxica,2024.2.5,Win32,59.88023952,,,,,,,,,,,,,,,,,,,,,,,,116.3571,119.0097,,0,,-1,119.01,119.5118,0,0,0,7,1,1008,MAS,WORD,DIS,150,frío,4,la,l,,,,,,,,,,,,,,,,,,,,
,,,,,,5d5496bdd84ebe0001f5fb20,676192165fb32c2e1fb7aee6,67d0cf7999003f58c0549c11,2025-03-11_17h14.57.045,Tarea de decisión léxica,2024.2.5,Win32,59.88023952,,,,,,,,,,,,,,,,,,,,,,,,119.5148,121.2104,a,0,1.0246,0,121.2262,121.7104,0,1,1,9,1,1010,MAS,WORD,DIS,150,video,5,la,l,1.0246,,,,,,,,,,,,,,,,,,,
,,,,,,5d5496bdd84ebe0001f5fb20,676192165fb32c2e1fb7aee6,67d0cf7999003f58c0549c11,2025-03-11_17h14.57.045,Tarea de decisión léxica,2024.2.5,Win32,59.88023952,,,,,,,,,,,,,,,,,,,,,,,,121.7127,123.0437,l,0,0.656,0,123.0439,123.5433,0,2,2,3,1,1004,FEM,NOWORD,AGR,150,bireo,5,la,a,0.656,,,,,,,,,,,,,,,,,,,
,,,,,,5d5496bdd84ebe0001f5fb20,676192165fb32c2e1fb7aee6,67d0cf7999003f58c0549c11,2025-03-11_17h14.57.045,Tarea de decisión léxica,2024.2.5,Win32,59.88023952,,,,,,,,,,,,,,,,,,,,,,,,123.5454,124.7265,l,1,0.5101,1,124.7281,125.2267,0,3,3,6,1,1007,MAS,WORD,DIS,150,masa,4,la,l,0.5101,,,,,,,,,,,,,,,,,,,
,,,,,,5d5496bdd84ebe0001f5fb20,676192165fb32c2e1fb7aee6,67d0cf7999003f58c0549c11,2025-03-11_17h14.57.045,Tarea de decisión léxica,2024.2.5,Win32,59.88023952,,,,,,,,,,,,,,,,,,,,,,,,125.2287,126.6929,a,1,0.7938,1,126.6931,127.1927,0,4,4,4,1,1005,MAS,NOWORD,DIS,150,nobad,5,la,a,0.7938,,,,,,,,,,,,,,,,,,,
,,,,,,5d5496bdd84ebe0001f5fb20,676192165fb32c2e1fb7aee6,67d0cf7999003f58c0549c11,2025-03-11_17h14.57.045,Tarea de decisión léxica,2024.2.5,Win32,59.88023952,,,,,,,,,,,,,,,,,,,,,,,,127.1943,128.6928,a,1,0.8217,1,128.6928,129.1928,0,5,5,1,1,1002,FEM,NOWORD,DIS,150,mabo,4,el,a,0.8217,,,,,,,,,,,,,,,,,,,
,,,,,,5d5496bdd84ebe0001f5fb20,676192165fb32c2e1fb7aee6,67d0cf7999003f58c0549c11,2025-03-11_17h14.57.045,Tarea de decisión léxica,2024.2.5,Win32,59.88023952,,,,,,,,,,,,,,,,,,,,,,,,129.1948,130.6091,a,1,0.7382,1,130.6092,131.1093,0,6,6,0,1,1001,FEM,NOWORD,AGR,150,croz,4,la,a,0.7382,,,,,,,,,,,,,,,,,,,
,,,,,,5d5496bdd84ebe0001f5fb20,676192165fb32c2e1fb7aee6,67d0cf7999003f58c0549c11,2025-03-11_17h14.57.045,Tarea de decisión léxica,2024.2.5,Win32,59.88023952,,,,,,,,,,,,,,,,,,,,,,,,131.1113,132.3589,l,1,0.5771,1,132.3589,132.8591,0,7,7,8,1,1009,FEM,WORD,AGR,150,viejo,5,la,l,0.5771,,,,,,,,,,,,,,,,,,,
,,,,,,5d5496bdd84ebe0001f5fb20,676192165fb32c2e1fb7aee6,67d0cf7999003f58c0549c11,2025-03-11_17h14.57.045,Tarea de decisión léxica,2024.2.5,Win32,59.88023952,,,,,,,,,,,,,,,,,,,,,,,,132.861,134.1752,a,1,0.6337,1,134.1753,134.6757,0,8,8,2,1,1003,FEM,NOWORD,DIS,150,muvor,5,el,a,0.6337,,,,,,,,,,,,,,,,,,,
,,,,,,5d5496bdd84ebe0001f5fb20,676192165fb32c2e1fb7aee6,67d0cf7999003f58c0549c11,2025-03-11_17h14.57.045,Tarea de decisión léxica,2024.2.5,Win32,59.88023952,,,,,,,,,,,,,,,,,,,,,,,,134.677,135.8089,l,1,0.4511,1,135.809,136.3087,0,9,9,5,1,1006,FEM,WORD,AGR,150,cara,4,la,l,0.4511,,,,,,,,,,,,,,,,,,,
,,,,,,5d5496bdd84ebe0001f5fb20,676192165fb32c2e1fb7aee6,67d0cf7999003f58c0549c11,2025-03-11_17h14.57.045,Tarea de decisión léxica,2024.2.5,Win32,59.88023952,,,141.0785,146.7072,space,-0.017499987,-0.379166667,0,0,0,,,,,,,,,,,,5.6068,,146.7749,148.1235,l,0,0.6839,0,148.1248,148.6238,,,,,,116,FEM,NOWORD,AGR,150,haca,,la,,0.6839,,148.6243,148.6283,-0.017499987,-0.379166667,0,0,0,,0,0,0,115,1,pata,,,,
,,,,,,5d5496bdd84ebe0001f5fb20,676192165fb32c2e1fb7aee6,67d0cf7999003f58c0549c11,2025-03-11_17h14.57.045,Tarea de decisión léxica,2024.2.5,Win32,59.88023952,,,,,,,,,,,,,,,,,,,,,,,,148.6297,149.8235,l,1,0.5299,1,149.8245,150.3242,,,,,,449,FEM,WORD,DIS,150,pluma,,el,,0.5299,,150.3243,150.3245,-0.017499987,-0.379166667,0,0,0,,0,1,1,448,1,crusa,,,,
,,,,,,5d5496bdd84ebe0001f5fb20,676192165fb32c2e1fb7aee6,67d0cf7999003f58c0549c11,2025-03-11_17h14.57.045,Tarea de decisión léxica,2024.2.5,Win32,59.88023952,,,,,,,,,,,,,,,,,,,,,,,,150.326,151.6065,a,1,0.6006,1,151.6066,152.1067,,,,,,112,MAS,NOWORD,AGR,150,siro,,el,,0.6006,,152.1084,152.1093,-0.017499987,-0.379166667,0,0,0,,0,2,2,111,1,muro,,,,
,,,,,,5d5496bdd84ebe0001f5fb20,676192165fb32c2e1fb7aee6,67d0cf7999003f58c0549c11,2025-03-11_17h14.57.045,Tarea de decisión léxica,2024.2.5,Win32,59.88023952,,,,,,,,,,,,,,,,,,,,,,,,152.1103,153.4563,a,1,0.6766,1,153.4564,153.9567,,,,,,26,FEM,NOWORD,DIS,150,paza,,el,,0.6766,,153.9569,153.9573,-0.017499987,-0.379166667,0,0,0,,0,3,3,25,1,cama,,,,
,,,,,,5d5496bdd84ebe0001f5fb20,676192165fb32c2e1fb7aee6,67d0cf7999003f58c0549c11,2025-03-11_17h14.57.045,Tarea de decisión léxica,2024.2.5,Win32,59.88023952,,,,,,,,,,,,,,,,,,,,,,,,153.959,155.406,a,1,0.7689,1,155.4061,155.9063,,,,,,252,MAS,NOWORD,AGR,150,refor,,el,,0.7689,,155.9065,155.9066,-0.017499987,-0.379166667,0,0,0,,0,4,4,251,1,señor,,,,
,,,,,,5d5496bdd84ebe0001f5fb20,676192165fb32c2e1fb7aee6,67d0cf7999003f58c0549c11,2025-03-11_17h14.57.045,Tarea de decisión léxica,2024.2.5,Win32,59.88023952,,,,,,,,,,,,,,,,,,,,,,,,155.9081,157.0726,a,1,0.4912,1,157.0727,157.5723,,,,,,414,FEM,NOWORD,DIS,150,bieda,,el,,0.4912,,157.5724,157.5727,-0.017499987,-0.379166667,0,0,0,,0,5,5,413,1,rueda,,,,
,,,,,,5d5496bdd84ebe0001f5fb20,676192165fb32c2e1fb7aee6,67d0cf7999003f58c0549c11,2025-03-11_17h14.57.045,Tarea de decisión léxica,2024.2.5,Win32,59.88023952,,,,,,,,,,,,,,,,,,,,,,,,157.574,158.6891,l,1,0.4418,1,158.6891,159.1894,,,,,,233,FEM,WORD,DIS,150,lana,,el,,0.4418,,159.1896,159.19,-0.017499987,-0.379166667,0,0,0,,0,6,6,232,1,fasa,,,,
,,,,,,5d5496bdd84ebe0001f5fb20,676192165fb32c2e1fb7aee6,67d0cf7999003f58c0549c11,2025-03-11_17h14.57.045,Tarea de decisión léxica,2024.2.5,Win32,59.88023952,,,,,,,,,,,,,,,,,,,,,,,,159.1921,160.239,a,1,0.371,1,160.239,160.7387,,,,,,198,MAS,NOWORD,DIS,150,dade,,la,,0.371,,160.7404,160.7412,-0.017499987,-0.379166667,0,0,0,,0,7,7,197,1,bate,,,,
,,,,,,5d5496bdd84ebe0001f5fb20,676192165fb32c2e1fb7aee6,67d0cf7999003f58c0549c11,2025-03-11_17h14.57.045,Tarea de decisión léxica,2024.2.5,Win32,59.88023952,,,,,,,,,,,,,,,,,,,,,,,,160.7422,161.7718,l,1,0.363,1,161.772,162.2718,,,,,,69,FEM,WORD,DIS,150,zona,,el,,0.363,,162.2719,162.272,-0.017499987,-0.379166667,0,0,0,,0,8,8,68,1,ñola,,,,
,,,,,,5d5496bdd84ebe0001f5fb20,676192165fb32c2e1fb7aee6,67d0cf7999003f58c0549c11,2025-03-11_17h14.57.045,Tarea de decisión léxica,2024.2.5,Win32,59.88023952,,,,,,,,,,,,,,,,,,,,,,,,162.2733,163.5384,a,1,0.5837,1,163.5385,164.0382,,,,,,256,MAS,NOWORD,AGR,150,mauco,,el,,0.5837,,164.0383,164.0386,-0.017499987,-0.379166667,0,0,0,,0,9,9,255,1,miedo,,,,
,,,,,,5d5496bdd84ebe0001f5fb20,676192165fb32c2e1fb7aee6,67d0cf7999003f58c0549c11,2025-03-11_17h14.57.045,Tarea de decisión léxica,2024.2.5,Win32,59.88023952,,,,,,,,,,,,,,,,,,,,,,,,164.0407,165.2886,l,1,0.5717,1,165.2887,165.7885,,,,,,151,MAS,WORD,AGR,150,tomo,,el,,0.5717,,165.7886,165.7892,-0.017499987,-0.379166667,0,0,0,,0,10,10,150,1,sogo,,,,
,,,,,,5d5496bdd84ebe0001f5fb20,676192165fb32c2e1fb7aee6,67d0cf7999003f58c0549c11,2025-03-11_17h14.57.045,Tarea de decisión léxica,2024.2.5,Win32,59.88023952,,,,,,,,,,,,,,,,,,,,,,,,165.7906,167.1551,a,1,0.6845,1,167.1553,167.6545,,,,,,478,MAS,NOWORD,DIS,150,hocon,,la,,0.6845,,167.6568,167.6579,-0.017499987,-0.379166667,0,0,0,,0,11,11,477,1,botón,,,,
,,,,,,5d5496bdd84ebe0001f5fb20,676192165fb32c2e1fb7aee6,67d0cf7999003f58c0549c11,2025-03-11_17h14.57.045,Tarea de decisión léxica,2024.2.5,Win32,59.88023952,,,,,,,,,,,,,,,,,,,,,,,,167.6591,168.921,l,1,0.584,1,168.9211,169.421,,,,,,219,FEM,WORD,AGR,150,pipa,,la,,0.584,,169.4211,169.4212,-0.017499987,-0.379166667,0,0,0,,0,12,12,218,1,miva,,,,
,,,,,,5d5496bdd84ebe0001f5fb20,676192165fb32c2e1fb7aee6,67d0cf7999003f58c0549c11,2025-03-11_17h14.57.045,Tarea de decisión léxica,2024.2.5,Win32,59.88023952,,,,,,,,,,,,,,,,,,,,,,,,169.4225,170.7041,a,1,0.6099,1,170.7043,171.2041,,,,,,476,FEM,NOWORD,AGR,150,mucta,,la,,0.6099,,171.2041,171.2042,-0.017499987,-0.379166667,0,0,0,,0,13,13,475,1,manta,,,,
,,,,,,5d5496bdd84ebe0001f5fb20,676192165fb32c2e1fb7aee6,67d0cf7999003f58c0549c11,2025-03-11_17h14.57.045,Tarea de decisión léxica,2024.2.5,Win32,59.88023952,,,,,,,,,,,,,,,,,,,,,,,,171.2056,172.5539,a,1,0.6786,1,172.5541,173.0538,,,,,,372,FEM,NOWORD,AGR,150,mosta,,la,,0.6786,,173.0538,173.054,-0.017499987,-0.379166667,0,0,0,,0,14,14,371,1,pasta,,,,
,,,,,,5d5496bdd84ebe0001f5fb20,676192165fb32c2e1fb7aee6,67d0cf7999003f58c0549c11,2025-03-11_17h14.57.045,Tarea de decisión léxica,2024.2.5,Win32,59.88023952,,,,,,,,,,,,,,,,,,,,,,,,173.0557,174.2873,a,1,0.5506,1,174.2874,174.7873,,,,,,84,FEM,NOWORD,AGR,150,taga,,la,,0.5506,,174.7875,174.7877,-0.017499987,-0.379166667,0,0,0,,0,15,15,83,1,bala,,,,
,,,,,,5d5496bdd84ebe0001f5fb20,676192165fb32c2e1fb7aee6,67d0cf7999003f58c0549c11,2025-03-11_17h14.57.045,Tarea de decisión léxica,2024.2.5,Win32,59.88023952,,,,,,,,,,,,,,,,,,,,,,,,174.7891,175.9205,a,1,0.4538,1,175.9206,176.4202,,,,,,420,MAS,NOWORD,AGR,150,chudo,,el,,0.4538,,176.4221,176.4231,-0.017499987,-0.379166667,0,0,0,,0,16,16,419,1,truco,,,,
,,,,,,5d5496bdd84ebe0001f5fb20,676192165fb32c2e1fb7aee6,67d0cf7999003f58c0549c11,2025-03-11_17h14.57.045,Tarea de decisión léxica,2024.2.5,Win32,59.88023952,,,,,,,,,,,,,,,,,,,,,,,,176.424,177.6033,a,1,0.5003,1,177.6035,178.1032,,,,,,250,FEM,NOWORD,DIS,150,plane,,el,,0.5003,,178.1032,178.1035,-0.017499987,-0.379166667,0,0,0,,0,17,17,249,1,clase,,,,
,,,,,,5d5496bdd84ebe0001f5fb20,676192165fb32c2e1fb7aee6,67d0cf7999003f58c0549c11,2025-03-11_17h14.57.045,Tarea de decisión léxica,2024.2.5,Win32,59.88023952,,,,,,,,,,,,,,,,,,,,,,,,178.105,179.4867,a,1,0.7064,1,179.4868,179.9865,,,,,,222,FEM,NOWORD,DIS,150,puca,,el,,0.7064,,179.9867,179.9868,-0.017499987,-0.379166667,0,0,0,,0,18,18,221,1,mula,,,,
,,,,,,5d5496bdd84ebe0001f5fb20,676192165fb32c2e1fb7aee6,67d0cf7999003f58c0549c11,2025-03-11_17h14.57.045,Tarea de decisión léxica,2024.2.5,Win32,59.88023952,,,,,,,,,,,,,,,,,,,,,,,,179.9882,181.3702,a,1,0.7048,1,181.3704,181.8694,,,,,,396,FEM,NOWORD,AGR,150,paeda,,la,,0.7048,,181.8695,181.8697,-0.017499987,-0.379166667,0,0,0,,0,19,19,395,1,caída,,,,
,,,,,,5d5496bdd84ebe0001f5fb20,676192165fb32c2e1fb7aee6,67d0cf7999003f58c0549c11,2025-03-11_17h14.57.045,Tarea de decisión léxica,2024.2.5,Win32,59.88023952,,,,,,,,,,,,,,,,,,,,,,,,181.8712,182.936,l,1,0.3887,1,182.9361,183.4362,,,,,,177,MAS,WORD,DIS,150,reto,,la,,0.3887,,183.4363,183.4364,-0.017499987,-0.379166667,0,0,0,,0,20,20,176,1,bito,,,,
,,,,,,5d5496bdd84ebe0001f5fb20,676192165fb32c2e1fb7aee6,67d0cf7999003f58c0549c11,2025-03-11_17h14.57.045,Tarea de decisión léxica,2024.2.5,Win32,59.88023952,,,,,,,,,,,,,,,,,,,,,,,,183.4376,184.5691,l,1,0.4539,1,184.5692,185.0692,,,,,,411,MAS,WORD,AGR,150,pollo,,el,,0.4539,,185.0712,185.0723,-0.017499987,-0.379166667,0,0,0,,0,21,21,410,1,mobro,,,,
,,,,,,5d5496bdd84ebe0001f5fb20,676192165fb32c2e1fb7aee6,67d0cf7999003f58c0549c11,2025-03-11_17h14.57.045,Tarea de decisión léxica,2024.2.5,Win32,59.88023952,,,,,,,,,,,,,,,,,,,,,,,,185.0732,186.0356,a,0,0.292,0,186.0367,186.5355,,,,,,277,MAS,WORD,DIS,150,fuego,,la,,0.292,,186.5356,186.5358,-0.017499987,-0.379166667,0,0,0,,0,22,22,276,1,vuemo,,,,
,,,,,,5d5496bdd84ebe0001f5fb20,676192165fb32c2e1fb7aee6,67d0cf7999003f58c0549c11,2025-03-11_17h14.57.045,Tarea de decisión léxica,2024.2.5,Win32,59.88023952,,,,,,,,,,,,,,,,,,,,,,,,186.5372,187.6027,a,0,0.3833,0,187.6029,188.102,,,,,,167,FEM,WORD,AGR,150,jefa,,la,,0.3833,,188.1021,188.1022,-0.017499987,-0.379166667,0,0,0,,0,23,23,166,1,zifa,,,,
,,,,,,5d5496bdd84ebe0001f5fb20,676192165fb32c2e1fb7aee6,67d0cf7999003f58c0549c11,2025-03-11_17h14.57.045,Tarea de decisión léxica,2024.2.5,Win32,59.88023952,,,,,,,,,,,,,,,,,,,,,,,,188.1035,189.352,a,1,0.5678,1,189.3532,189.8522,,,,,,188,MAS,NOWORD,AGR,150,suto,,el,,0.5678,,189.8523,189.8524,-0.017499987,-0.379166667,0,0,0,,0,24,24,187,1,mito,,,,
,,,,,,5d5496bdd84ebe0001f5fb20,676192165fb32c2e1fb7aee6,67d0cf7999003f58c0549c11,2025-03-11_17h14.57.045,Tarea de decisión léxica,2024.2.5,Win32,59.88023952,,,,,,,,,,,,,,,,,,,,,,,,189.8541,191.0849,a,1,0.56,1,191.085,191.5849,,,,,,36,MAS,NOWORD,AGR,150,meno,,el,,0.56,,191.585,191.5851,-0.017499987,-0.379166667,0,0,0,,0,25,25,35,1,pelo,,,,
,,,,,,5d5496bdd84ebe0001f5fb20,676192165fb32c2e1fb7aee6,67d0cf7999003f58c0549c11,2025-03-11_17h14.57.045,Tarea de decisión léxica,2024.2.5,Win32,59.88023952,,,,,,,,,,,,,,,,,,,,,,,,191.5865,193.1851,a,1,0.9234,1,193.1853,193.6845,,,,,,202,FEM,NOWORD,DIS,150,cusa,,el,,0.9234,,193.6861,193.6871,-0.017499987,-0.379166667,0,0,0,,0,26,26,201,1,cuna,,,,
,,,,,,5d5496bdd84ebe0001f5fb20,676192165fb32c2e1fb7aee6,67d0cf7999003f58c0549c11,2025-03-11_17h14.57.045,Tarea de decisión léxica,2024.2.5,Win32,59.88023952,,,,,,,,,,,,,,,,,,,,,,,,193.6883,194.8179,a,1,0.4503,1,194.818,195.3177,,,,,,326,FEM,NOWORD,DIS,150,mabia,,el,,0.4503,,195.3178,195.3179,-0.017499987,-0.379166667,0,0,0,,0,27,27,325,1,magia,,,,
,,,,,,5d5496bdd84ebe0001f5fb20,676192165fb32c2e1fb7aee6,67d0cf7999003f58c0549c11,2025-03-11_17h14.57.045,Tarea de decisión léxica,2024.2.5,Win32,59.88023952,,,,,,,,,,,,,,,,,,,,,,,,195.3192,196.4675,l,1,0.4788,1,196.4677,196.9677,,,,,,387,FEM,WORD,AGR,150,crema,,la,,0.4788,,196.9678,196.9679,-0.017499987,-0.379166667,0,0,0,,0,28,28,386,1,bresa,,,,
,,,,,,5d5496bdd84ebe0001f5fb20,676192165fb32c2e1fb7aee6,67d0cf7999003f58c0549c11,2025-03-11_17h14.57.045,Tarea de decisión léxica,2024.2.5,Win32,59.88023952,,,,,,,,,,,,,,,,,,,,,,,,196.9691,198.1176,a,1,0.4673,1,198.1177,198.6178,,,,,,66,MAS,NOWORD,DIS,150,nios,,la,,0.4673,,198.618,198.6181,-0.017499987,-0.379166667,0,0,0,,0,29,29,65,1,dios,,,,
,,,,,,5d5496bdd84ebe0001f5fb20,676192165fb32c2e1fb7aee6,67d0cf7999003f58c0549c11,2025-03-11_17h14.57.045,Tarea de decisión léxica,2024.2.5,Win32,59.88023952,,,,,,,,,,,,,,,,,,,,,,,,198.6194,199.7506,l,1,0.4583,1,199.7507,200.251,,,,,,409,MAS,WORD,DIS,150,carro,,la,,0.4583,,200.251,200.2512,-0.017499987,-0.379166667,0,0,0,,0,30,30,408,1,pafro,,,,
,,,,,,5d5496bdd84ebe0001f5fb20,676192165fb32c2e1fb7aee6,67d0cf7999003f58c0549c11,2025-03-11_17h14.57.045,Tarea de decisión léxica,2024.2.5,Win32,59.88023952,,,,,,,,,,,,,,,,,,,,,,,,200.2527,201.4004,l,1,0.4707,1,201.4005,201.9004,,,,,,315,FEM,WORD,AGR,150,reina,,la,,0.4707,,201.9023,201.9034,-0.017499987,-0.379166667,0,0,0,,0,31,31,314,1,riosa,,,,
,,,,,,5d5496bdd84ebe0001f5fb20,676192165fb32c2e1fb7aee6,67d0cf7999003f58c0549c11,2025-03-11_17h14.57.045,Tarea de decisión léxica,2024.2.5,Win32,59.88023952,,,,,,,,,,,,,,,,,,,,,,,,201.9048,203.2501,a,1,0.6766,1,203.2503,203.7503,,,,,,90,MAS,NOWORD,DIS,150,guso,,la,,0.6766,,203.7504,203.7505,-0.017499987,-0.379166667,0,0,0,,0,32,32,89,1,humo,,,,
,,,,,,5d5496bdd84ebe0001f5fb20,676192165fb32c2e1fb7aee6,67d0cf7999003f58c0549c11,2025-03-11_17h14.57.045,Tarea de decisión léxica,2024.2.5,Win32,59.88023952,,,,,,,,,,,,,,,,,,,,,,,,203.7517,204.8334,l,1,0.409,1,204.8335,205.3337,,,,,,407,FEM,WORD,AGR,150,cueva,,la,,0.409,,205.3338,205.3339,-0.017499987,-0.379166667,0,0,0,,0,33,33,406,1,cauba,,,,
,,,,,,5d5496bdd84ebe0001f5fb20,676192165fb32c2e1fb7aee6,67d0cf7999003f58c0549c11,2025-03-11_17h14.57.045,Tarea de decisión léxica,2024.2.5,Win32,59.88023952,,,,,,,,,,,,,,,,,,,,,,,,205.3352,206.6664,l,1,0.6501,1,206.6665,207.1664,,,,,,137,MAS,WORD,DIS,150,nene,,la,,0.6501,,207.1664,207.1666,-0.017499987,-0.379166667,0,0,0,,0,34,34,136,1,pamo,,,,
,,,,,,5d5496bdd84ebe0001f5fb20,676192165fb32c2e1fb7aee6,67d0cf7999003f58c0549c11,2025-03-11_17h14.57.045,Tarea de decisión léxica,2024.2.5,Win32,59.88023952,,,,,,,,,,,,,,,,,,,,,,,,207.168,208.2996,l,1,0.4613,1,208.2997,208.7995,,,,,,83,FEM,WORD,AGR,150,bala,,la,,0.4613,,208.801,208.8018,-0.017499987,-0.379166667,0,0,0,,0,35,35,82,1,taga,,,,
,,,,,,5d5496bdd84ebe0001f5fb20,676192165fb32c2e1fb7aee6,67d0cf7999003f58c0549c11,2025-03-11_17h14.57.045,Tarea de decisión léxica,2024.2.5,Win32,59.88023952,,,,,,,,,,,,,,,,,,,,,,,,208.8026,209.9498,a,1,0.4703,1,209.9499,210.4492,,,,,,438,FEM,NOWORD,DIS,150,glava,,el,,0.4703,,210.4493,210.4494,-0.017499987,-0.379166667,0,0,0,,0,36,36,437,1,plaza,,,,
,,,,,,5d5496bdd84ebe0001f5fb20,676192165fb32c2e1fb7aee6,67d0cf7999003f58c0549c11,2025-03-11_17h14.57.045,Tarea de decisión léxica,2024.2.5,Win32,59.88023952,,,,,,,,,,,,,,,,,,,,,,,,210.4508,211.5991,l,1,0.477,1,211.5993,212.0991,,,,,,429,FEM,WORD,DIS,150,tarta,,el,,0.477,,212.0992,212.0993,-0.017499987,-0.379166667,0,0,0,,0,37,37,428,1,tenta,,,,
,,,,,,5d5496bdd84ebe0001f5fb20,676192165fb32c2e1fb7aee6,67d0cf7999003f58c0549c11,2025-03-11_17h14.57.045,Tarea de decisión léxica,2024.2.5,Win32,59.88023952,,,,,,,,,,,,,,,,,,,,,,,,212.1008,213.2326,l,1,0.4505,1,213.2327,213.7322,,,,,,53,FEM,WORD,DIS,150,boda,,el,,0.4505,,213.7323,213.7324,-0.017499987,-0.379166667,0,0,0,,0,38,38,52,1,rora,,,,
,,,,,,5d5496bdd84ebe0001f5fb20,676192165fb32c2e1fb7aee6,67d0cf7999003f58c0549c11,2025-03-11_17h14.57.045,Tarea de decisión léxica,2024.2.5,Win32,59.88023952,,,,,,,,,,,,,,,,,,,,,,,,213.7338,215.0153,a,1,0.6123,1,215.0155,215.5152,,,,,,96,FEM,NOWORD,AGR,151,neda,,la,,0.6123,,215.5154,215.5156,-0.017499987,-0.379166667,0,0,0,,0,39,39,95,1,moda,,,,
,,,,,,5d5496bdd84ebe0001f5fb20,676192165fb32c2e1fb7aee6,67d0cf7999003f58c0549c11,2025-03-11_17h14.57.045,Tarea de decisión léxica,2024.2.5,Win32,59.88023952,,,,,,,,,,,,,,,,,,,,,,,,215.5174,216.6657,l,1,0.4704,1,216.6659,217.1654,,,,,,285,MAS,WORD,DIS,150,error,,la,,0.4704,,217.1671,217.1679,-0.017499987,-0.379166667,0,0,0,,0,40,40,284,1,echor,,,,
,,,,,,5d5496bdd84ebe0001f5fb20,676192165fb32c2e1fb7aee6,67d0cf7999003f58c0549c11,2025-03-11_17h14.57.045,Tarea de decisión léxica,2024.2.5,Win32,59.88023952,,,,,,,,,,,,,,,,,,,,,,,,217.169,218.3984,a,1,0.5505,1,218.3985,218.8985,,,,,,276,MAS,NOWORD,AGR,150,musto,,el,,0.5505,,218.8986,218.8988,-0.017499987,-0.379166667,0,0,0,,0,41,41,275,1,punto,,,,
,,,,,,5d5496bdd84ebe0001f5fb20,676192165fb32c2e1fb7aee6,67d0cf7999003f58c0549c11,2025-03-11_17h14.57.045,Tarea de decisión léxica,2024.2.5,Win32,59.88023952,,,,,,,,,,,,,,,,,,,,,,,,218.9001,220.1147,a,1,0.534,1,220.1148,220.615,,,,,,468,MAS,NOWORD,AGR,150,peiso,,el,,0.534,,220.6151,220.6152,-0.017499987,-0.379166667,0,0,0,,0,42,42,467,1,piano,,,,
,,,,,,5d5496bdd84ebe0001f5fb20,676192165fb32c2e1fb7aee6,67d0cf7999003f58c0549c11,2025-03-11_17h14.57.045,Tarea de decisión léxica,2024.2.5,Win32,59.88023952,,,,,,,,,,,,,,,,,,,,,,,,220.6168,221.8813,a,1,0.5918,1,221.8813,222.3812,,,,,,464,FEM,NOWORD,AGR,150,matla,,la,,0.5918,,222.3812,222.3814,-0.017499987,-0.379166667,0,0,0,,0,43,43,463,1,cabra,,,,
,,,,,,5d5496bdd84ebe0001f5fb20,676192165fb32c2e1fb7aee6,67d0cf7999003f58c0549c11,2025-03-11_17h14.57.045,Tarea de decisión léxica,2024.2.5,Win32,59.88023952,,,,,,,,,,,,,,,,,,,,,,,,222.3828,223.7147,a,1,0.6577,1,223.7149,224.2143,,,,,,474,FEM,NOWORD,DIS,150,felia,,el,,0.6577,,224.2144,224.2145,-0.017499987,-0.379166667,0,0,0,,0,44,44,473,1,feria,,,,
,,,,,,5d5496bdd84ebe0001f5fb20,676192165fb32c2e1fb7aee6,67d0cf7999003f58c0549c11,2025-03-11_17h14.57.045,Tarea de decisión léxica,2024.2.5,Win32,59.88023952,,,,,,,,,,,,,,,,,,,,,,,,224.2158,225.3643,l,1,0.4796,1,225.3644,225.8641,,,,,,45,FEM,WORD,DIS,150,mesa,,el,,0.4796,,225.8656,225.8664,-0.017499987,-0.379166667,0,0,0,,0,45,45,44,1,pema,,,,
,,,,,,5d5496bdd84ebe0001f5fb20,676192165fb32c2e1fb7aee6,67d0cf7999003f58c0549c11,2025-03-11_17h14.57.045,Tarea de decisión léxica,2024.2.5,Win32,59.88023952,,,,,,,,,,,,,,,,,,,,,,,,225.8673,227.1807,l,1,0.6346,1,227.1808,227.6804,,,,,,33,FEM,WORD,DIS,150,boca,,el,,0.6346,,227.6804,227.6806,-0.017499987,-0.379166667,0,0,0,,0,46,46,32,1,loda,,,,
,,,,,,5d5496bdd84ebe0001f5fb20,676192165fb32c2e1fb7aee6,67d0cf7999003f58c0549c11,2025-03-11_17h14.57.045,Tarea de decisión léxica,2024.2.5,Win32,59.88023952,,,,,,,,,,,,,,,,,,,,,,,,227.6822,229.0141,a,1,0.6534,1,229.0142,229.5141,,,,,,92,FEM,NOWORD,AGR,150,sava,,la,,0.6534,,229.5141,229.5142,-0.017499987,-0.379166667,0,0,0,,0,47,47,91,1,taza,,,,
,,,,,,5d5496bdd84ebe0001f5fb20,676192165fb32c2e1fb7aee6,67d0cf7999003f58c0549c11,2025-03-11_17h14.57.045,Tarea de decisión léxica,2024.2.5,Win32,59.88023952,,,,,,,,,,,,,,,,,,,,,,,,229.5158,231.2805,l,0,1.0804,0,231.2816,231.78,,,,,,114,FEM,NOWORD,DIS,150,tada,,el,,1.0804,,231.7801,231.7802,-0.017499987,-0.379166667,0,0,0,,0,48,48,113,1,miel,,,,
,,,,,,5d5496bdd84ebe0001f5fb20,676192165fb32c2e1fb7aee6,67d0cf7999003f58c0549c11,2025-03-11_17h14.57.045,Tarea de decisión léxica,2024.2.5,Win32,59.88023952,,,,,,,,,,,,,,,,,,,,,,,,231.7817,232.78,l,1,0.3277,1,232.7809,233.2799,,,,,,79,FEM,WORD,AGR,150,piel,,la,,0.3277,,233.28,233.2801,-0.017499987,-0.379166667,0,0,0,,0,49,49,78,1,ciel,,,,
,,,,,,5d5496bdd84ebe0001f5fb20,676192165fb32c2e1fb7aee6,67d0cf7999003f58c0549c11,2025-03-11_17h14.57.045,Tarea de decisión léxica,2024.2.5,Win32,59.88023952,,,,,,,,,,,,,,,,,,,,,,,,233.2814,234.6466,a,1,0.6933,1,234.6468,235.1463,,,,,,316,FEM,NOWORD,AGR,150,riosa,,la,,0.6933,,235.1476,235.1482,-0.017499987,-0.379166667,0,0,0,,0,50,50,315,1,reina,,,,
,,,,,,5d5496bdd84ebe0001f5fb20,676192165fb32c2e1fb7aee6,67d0cf7999003f58c0549c11,2025-03-11_17h14.57.045,Tarea de decisión léxica,2024.2.5,Win32,59.88023952,,,,,,,,,,,,,,,,,,,,,,,,235.1494,236.2629,l,1,0.4333,1,236.263,236.7632,,,,,,215,FEM,WORD,AGR,150,raíz,,la,,0.4333,,236.7633,236.7636,-0.017499987,-0.379166667,0,0,0,,0,51,51,214,1,raua,,,,
,,,,,,5d5496bdd84ebe0001f5fb20,676192165fb32c2e1fb7aee6,67d0cf7999003f58c0549c11,2025-03-11_17h14.57.045,Tarea de decisión léxica,2024.2.5,Win32,59.88023952,,,,,,,,,,,,,,,,,,,,,,,,236.7649,237.7965,l,1,0.3637,1,237.7967,238.296,,,,,,345,FEM,WORD,DIS,150,arena,,el,,0.3637,,238.2961,238.2963,-0.017499987,-0.379166667,0,0,0,,0,52,52,344,1,anera,,,,
,,,,,,5d5496bdd84ebe0001f5fb20,676192165fb32c2e1fb7aee6,67d0cf7999003f58c0549c11,2025-03-11_17h14.57.045,Tarea de decisión léxica,2024.2.5,Win32,59.88023952,,,,,,,,,,,,,,,,,,,,,,,,238.2978,239.4294,a,1,0.4534,1,239.4294,239.929,,,,,,306,MAS,NOWORD,DIS,150,adiol,,la,,0.4534,,239.929,239.9291,-0.017499987,-0.379166667,0,0,0,,0,53,53,305,1,avión,,,,
,,,,,,5d5496bdd84ebe0001f5fb20,676192165fb32c2e1fb7aee6,67d0cf7999003f58c0549c11,2025-03-11_17h14.57.045,Tarea de decisión léxica,2024.2.5,Win32,59.88023952,,,,,,,,,,,,,,,,,,,,,,,,239.9304,241.3123,a,1,0.7,1,241.3125,241.8122,,,,,,102,MAS,NOWORD,DIS,150,gito,,la,,0.7,,241.8122,241.8124,-0.017499987,-0.379166667,0,0,0,,0,54,54,101,1,tono,,,,
,,,,,,5d5496bdd84ebe0001f5fb20,676192165fb32c2e1fb7aee6,67d0cf7999003f58c0549c11,2025-03-11_17h14.57.045,Tarea de decisión léxica,2024.2.5,Win32,59.88023952,,,,,,,,,,,,,,,,,,,,,,,,241.8139,243.1454,a,0,0.65,0,243.1466,243.6454,,,,,,239,MAS,WORD,AGR,150,mozo,,el,,0.65,,243.6471,243.648,-0.017499987,-0.379166667,0,0,0,,0,55,55,238,1,poño,,,,
,,,,,,5d5496bdd84ebe0001f5fb20,676192165fb32c2e1fb7aee6,67d0cf7999003f58c0549c11,2025-03-11_17h14.57.045,Tarea de decisión léxica,2024.2.5,Win32,59.88023952,,,,,,,,,,,,,,,,,,,,,,,,243.6489,245.0951,a,1,0.7795,1,245.0965,245.5949,,,,,,422,MAS,NOWORD,DIS,150,griso,,la,,0.7795,,245.595,245.5951,-0.017499987,-0.379166667,0,0,0,,0,56,56,421,1,primo,,,,
,,,,,,5d5496bdd84ebe0001f5fb20,676192165fb32c2e1fb7aee6,67d0cf7999003f58c0549c11,2025-03-11_17h14.57.045,Tarea de decisión léxica,2024.2.5,Win32,59.88023952,,,,,,,,,,,,,,,,,,,,,,,,245.5964,246.9781,a,1,0.7012,1,246.9783,247.4781,,,,,,288,FEM,NOWORD,AGR,150,fosta,,la,,0.7012,,247.4782,247.4783,-0.017499987,-0.379166667,0,0,0,,0,57,57,287,1,lista,,,,
,,,,,,5d5496bdd84ebe0001f5fb20,676192165fb32c2e1fb7aee6,67d0cf7999003f58c0549c11,2025-03-11_17h14.57.045,Tarea de decisión léxica,2024.2.5,Win32,59.88023952,,,,,,,,,,,,,,,,,,,,,,,,247.4797,248.7281,l,1,0.5806,1,248.7282,249.2279,,,,,,323,FEM,WORD,AGR,150,cinta,,la,,0.5806,,249.228,249.2282,-0.017499987,-0.379166667,0,0,0,,0,58,58,322,1,certa,,,,
,,,,,,5d5496bdd84ebe0001f5fb20,676192165fb32c2e1fb7aee6,67d0cf7999003f58c0549c11,2025-03-11_17h14.57.045,Tarea de decisión léxica,2024.2.5,Win32,59.88023952,,,,,,,,,,,,,,,,,,,,,,,,249.2294,250.5278,a,1,0.6169,1,250.528,251.0279,,,,,,318,FEM,NOWORD,DIS,150,plaad,,el,,0.6169,,251.0298,251.031,-0.017499987,-0.379166667,0,0,0,,0,59,59,317,1,playa,,,,
,,,,,,5d5496bdd84ebe0001f5fb20,676192165fb32c2e1fb7aee6,67d0cf7999003f58c0549c11,2025-03-11_17h14.57.045,Tarea de decisión léxica,2024.2.5,Win32,59.88023952,,,,,,,,,,,,,,,,,,,,,,,,251.0322,252.7444,l,0,1.0361,0,252.7456,253.2443,,,,,,336,FEM,NOWORD,AGR,150,pesta,,la,,1.0361,,253.2444,253.2445,-0.017499987,-0.379166667,0,0,0,,0,60,60,335,1,costa,,,,
,,,,,,5d5496bdd84ebe0001f5fb20,676192165fb32c2e1fb7aee6,67d0cf7999003f58c0549c11,2025-03-11_17h14.57.045,Tarea de decisión léxica,2024.2.5,Win32,59.88023952,,,,,,,,,,,,,,,,,,,,,,,,253.2458,254.5439,a,1,0.6293,1,254.545,255.0438,,,,,,204,FEM,NOWORD,AGR,150,beja,,la,,0.6293,,255.0438,255.044,-0.017499987,-0.379166667,0,0,0,,0,61,61,203,1,leña,,,,
,,,,,,5d5496bdd84ebe0001f5fb20,676192165fb32c2e1fb7aee6,67d0cf7999003f58c0549c11,2025-03-11_17h14.57.045,Tarea de decisión léxica,2024.2.5,Win32,59.88023952,,,,,,,,,,,,,,,,,,,,,,,,255.0453,256.2941,a,1,0.5711,1,256.2942,256.7938,,,,,,124,FEM,NOWORD,AGR,150,maba,,la,,0.5711,,256.7939,256.794,-0.017499987,-0.379166667,0,0,0,,0,62,62,123,1,flor,,,,
,,,,,,5d5496bdd84ebe0001f5fb20,676192165fb32c2e1fb7aee6,67d0cf7999003f58c0549c11,2025-03-11_17h14.57.045,Tarea de decisión léxica,2024.2.5,Win32,59.88023952,,,,,,,,,,,,,,,,,,,,,,,,256.7954,258.027,a,1,0.5531,1,258.0272,258.5268,,,,,,224,FEM,NOWORD,AGR,150,cira,,la,,0.5531,,258.5269,258.527,-0.017499987,-0.379166667,0,0,0,,0,63,63,223,1,cera,,,,
,,,,,,5d5496bdd84ebe0001f5fb20,676192165fb32c2e1fb7aee6,67d0cf7999003f58c0549c11,2025-03-11_17h14.57.045,Tarea de decisión léxica,2024.2.5,Win32,59.88023952,,,,,,,,,,,,,,,,,,,,,,,,258.5284,259.8266,a,1,0.6214,1,259.8267,260.3266,,,,,,432,MAS,NOWORD,AGR,150,tetor,,el,,0.6214,,260.3282,260.3292,-0.017499987,-0.379166667,0,0,0,,0,64,64,431,1,motor,,,,
,,,,,,5d5496bdd84ebe0001f5fb20,676192165fb32c2e1fb7aee6,67d0cf7999003f58c0549c11,2025-03-11_17h14.57.045,Tarea de decisión léxica,2024.2.5,Win32,59.88023952,,,,,,,,,,,,,,,,,,,,,,,,260.3303,261.4268,a,1,0.4229,1,261.4269,261.9266,,,,,,48,MAS,NOWORD,AGR,150,chub,,el,,0.4229,,261.9267,261.9269,-0.017499987,-0.379166667,0,0,0,,0,65,65,47,1,club,,,,
,,,,,,5d5496bdd84ebe0001f5fb20,676192165fb32c2e1fb7aee6,67d0cf7999003f58c0549c11,2025-03-11_17h14.57.045,Tarea de decisión léxica,2024.2.5,Win32,59.88023952,,,,,,,,,,,,,,,,,,,,,,,,261.9288,263.3263,l,1,0.7233,1,263.3265,263.8264,,,,,,19,MAS,WORD,AGR,150,niño,,el,,0.7233,,263.8264,263.8266,-0.017499987,-0.379166667,0,0,0,,0,66,66,18,1,himo,,,,
,,,,,,5d5496bdd84ebe0001f5fb20,676192165fb32c2e1fb7aee6,67d0cf7999003f58c0549c11,2025-03-11_17h14.57.045,Tarea de decisión léxica,2024.2.5,Win32,59.88023952,,,,,,,,,,,,,,,,,,,,,,,,263.8279,264.9762,a,1,0.4677,1,264.9763,265.4758,,,,,,226,MAS,NOWORD,DIS,150,boco,,la,,0.4677,,265.476,265.476,-0.017499987,-0.379166667,0,0,0,,0,67,67,225,1,lodo,,,,
,,,,,,5d5496bdd84ebe0001f5fb20,676192165fb32c2e1fb7aee6,67d0cf7999003f58c0549c11,2025-03-11_17h14.57.045,Tarea de decisión léxica,2024.2.5,Win32,59.88023952,,,,,,,,,,,,,,,,,,,,,,,,265.4774,266.7758,l,1,0.6243,1,266.7759,267.276,,,,,,209,MAS,WORD,DIS,150,velo,,la,,0.6243,,267.2761,267.2762,-0.017499987,-0.379166667,0,0,0,,0,68,68,208,1,dero,,,,
,,,,,,5d5496bdd84ebe0001f5fb20,676192165fb32c2e1fb7aee6,67d0cf7999003f58c0549c11,2025-03-11_17h14.57.045,Tarea de decisión léxica,2024.2.5,Win32,59.88023952,,,,,,,,,,,,,,,,,,,,,,,,267.2777,268.5423,l,1,0.596,1,268.5423,269.0422,,,,,,169,MAS,WORD,DIS,150,cubo,,la,,0.596,,269.0437,269.0446,-0.017499987,-0.379166667,0,0,0,,0,69,69,168,1,mibo,,,,
,,,,,,5d5496bdd84ebe0001f5fb20,676192165fb32c2e1fb7aee6,67d0cf7999003f58c0549c11,2025-03-11_17h14.57.045,Tarea de decisión léxica,2024.2.5,Win32,59.88023952,,,,,,,,,,,,,,,,,,,,,,,,269.0462,270.0424,a,1,0.3265,1,270.0427,270.542,,,,,,208,MAS,NOWORD,AGR,150,kedo,,el,,0.3265,,270.542,270.5421,-0.017499987,-0.379166667,0,0,0,,0,70,70,207,1,kilo,,,,
,,,,,,5d5496bdd84ebe0001f5fb20,676192165fb32c2e1fb7aee6,67d0cf7999003f58c0549c11,2025-03-11_17h14.57.045,Tarea de decisión léxica,2024.2.5,Win32,59.88023952,,,,,,,,,,,,,,,,,,,,,,,,270.5434,271.7753,a,1,0.5634,1,271.7754,272.2752,,,,,,230,MAS,NOWORD,DIS,150,ador,,la,,0.5634,,272.2753,272.2756,-0.017499987,-0.379166667,0,0,0,,0,71,71,229,1,amor,,,,
,,,,,,5d5496bdd84ebe0001f5fb20,676192165fb32c2e1fb7aee6,67d0cf7999003f58c0549c11,2025-03-11_17h14.57.045,Tarea de decisión léxica,2024.2.5,Win32,59.88023952,,,,,,,,,,,,,,,,,,,,,,,,272.2771,273.4918,l,1,0.5363,1,273.4919,273.9925,,,,,,319,MAS,WORD,AGR,150,suelo,,el,,0.5363,,273.9925,273.9926,-0.017499987,-0.379166667,0,0,0,,0,72,72,318,1,tuero,,,,
,,,,,,5d5496bdd84ebe0001f5fb20,676192165fb32c2e1fb7aee6,67d0cf7999003f58c0549c11,2025-03-11_17h14.57.045,Tarea de decisión léxica,2024.2.5,Win32,59.88023952,,,,,,,,,,,,,,,,,,,,,,,,273.994,275.4249,l,1,0.7626,1,275.425,275.9249,,,,,,49,FEM,WORD,DIS,150,edad,,el,,0.7626,,275.9249,275.9251,-0.017499987,-0.379166667,0,0,0,,0,73,73,48,1,ecat,,,,
,,,,,,5d5496bdd84ebe0001f5fb20,676192165fb32c2e1fb7aee6,67d0cf7999003f58c0549c11,2025-03-11_17h14.57.045,Tarea de decisión léxica,2024.2.5,Win32,59.88023952,,,,,,,,,,,,,,,,,,,,,,,,275.9267,277.0246,a,1,0.4229,1,277.0247,277.5245,,,,,,98,MAS,NOWORD,DIS,150,fopo,,la,,0.4229,,277.5258,277.5267,-0.017499987,-0.379166667,0,0,0,,0,74,74,97,1,mono,,,,
,,,,,,5d5496bdd84ebe0001f5fb20,676192165fb32c2e1fb7aee6,67d0cf7999003f58c0549c11,2025-03-11_17h14.57.045,Tarea de decisión léxica,2024.2.5,Win32,59.88023952,,,,,,,,,,,,,,,,,,,,,,,,277.5276,278.6412,l,1,0.442,1,278.6413,279.1409,,,,,,471,FEM,WORD,AGR,150,grasa,,la,,0.442,,279.141,279.1412,-0.017499987,-0.379166667,0,0,0,,0,75,75,470,1,prana,,,,
,,,,,,5d5496bdd84ebe0001f5fb20,676192165fb32c2e1fb7aee6,67d0cf7999003f58c0549c11,2025-03-11_17h14.57.045,Tarea de decisión léxica,2024.2.5,Win32,59.88023952,,,,,,,,,,,,,,,,,,,,,,,,279.1429,280.3241,l,1,0.5112,1,280.3242,280.824,,,,,,305,MAS,WORD,DIS,150,avión,,la,,0.5112,,280.8242,280.8244,-0.017499987,-0.379166667,0,0,0,,0,76,76,304,1,adiol,,,,
,,,,,,5d5496bdd84ebe0001f5fb20,676192165fb32c2e1fb7aee6,67d0cf7999003f58c0549c11,2025-03-11_17h14.57.045,Tarea de decisión léxica,2024.2.5,Win32,59.88023952,,,,,,,,,,,,,,,,,,,,,,,,280.8256,282.2907,a,1,0.791,1,282.2908,282.7907,,,,,,426,FEM,NOWORD,DIS,150,virca,,el,,0.791,,282.7908,282.7911,-0.017499987,-0.379166667,0,0,0,,0,77,77,425,1,viuda,,,,
,,,,,,5d5496bdd84ebe0001f5fb20,676192165fb32c2e1fb7aee6,67d0cf7999003f58c0549c11,2025-03-11_17h14.57.045,Tarea de decisión léxica,2024.2.5,Win32,59.88023952,,,,,,,,,,,,,,,,,,,,,,,,282.7925,284.0739,l,1,0.5983,1,284.074,284.5738,,,,,,9,MAS,WORD,DIS,150,tipo,,la,,0.5983,,284.5738,284.574,-0.017499987,-0.379166667,0,0,0,,0,78,78,8,1,sibo,,,,
,,,,,,5d5496bdd84ebe0001f5fb20,676192165fb32c2e1fb7aee6,67d0cf7999003f58c0549c11,2025-03-11_17h14.57.045,Tarea de decisión léxica,2024.2.5,Win32,59.88023952,,,,,,,,,,,,,,,,,,,,,,,,284.5755,285.8906,a,1,0.6394,1,285.8906,286.39,,,,,,332,MAS,NOWORD,AGR,150,erato,,el,,0.6394,,286.3915,286.3923,-0.017499987,-0.379166667,0,0,0,,0,79,79,331,1,éxito,,,,
,,,,,,5d5496bdd84ebe0001f5fb20,676192165fb32c2e1fb7aee6,67d0cf7999003f58c0549c11,2025-03-11_17h14.57.045,Tarea de decisión léxica,2024.2.5,Win32,59.88023952,,,,,,,,,,,,,,,,,,,,,,,,286.393,287.6401,l,1,0.57,1,287.6403,288.14,,,,,,271,FEM,WORD,AGR,150,señal,,la,,0.57,,288.1402,288.1405,-0.017499987,-0.379166667,0,0,0,,0,80,80,270,1,refal,,,,
,,,,,,5d5496bdd84ebe0001f5fb20,676192165fb32c2e1fb7aee6,67d0cf7999003f58c0549c11,2025-03-11_17h14.57.045,Tarea de decisión léxica,2024.2.5,Win32,59.88023952,,,,,,,,,,,,,,,,,,,,,,,,288.1418,289.7732,a,1,0.9503,1,289.7734,290.2729,,,,,,388,FEM,NOWORD,AGR,150,bresa,,la,,0.9503,,290.2729,290.2731,-0.017499987,-0.379166667,0,0,0,,0,81,81,387,1,crema,,,,
,,,,,,5d5496bdd84ebe0001f5fb20,676192165fb32c2e1fb7aee6,67d0cf7999003f58c0549c11,2025-03-11_17h14.57.045,Tarea de decisión léxica,2024.2.5,Win32,59.88023952,,,,,,,,,,,,,,,,,,,,,,,,290.2744,291.3563,l,1,0.4243,1,291.3565,291.8564,,,,,,31,FEM,WORD,AGR,150,ropa,,la,,0.4243,,291.8565,291.8567,-0.017499987,-0.379166667,0,0,0,,0,82,82,30,1,bova,,,,
,,,,,,5d5496bdd84ebe0001f5fb20,676192165fb32c2e1fb7aee6,67d0cf7999003f58c0549c11,2025-03-11_17h14.57.045,Tarea de decisión léxica,2024.2.5,Win32,59.88023952,,,,,,,,,,,,,,,,,,,,,,,,291.858,293.1229,l,1,0.583,1,293.123,293.6225,,,,,,175,FEM,WORD,AGR,150,goma,,la,,0.583,,293.6241,293.6249,-0.017499987,-0.379166667,0,0,0,,0,83,83,174,1,hosa,,,,
,,,,,,5d5496bdd84ebe0001f5fb20,676192165fb32c2e1fb7aee6,67d0cf7999003f58c0549c11,2025-03-11_17h14.57.045,Tarea de decisión léxica,2024.2.5,Win32,59.88023952,,,,,,,,,,,,,,,,,,,,,,,,293.6258,294.8226,a,1,0.5296,1,294.8228,295.3226,,,,,,210,MAS,NOWORD,DIS,150,dero,,la,,0.5296,,295.3227,295.3228,-0.017499987,-0.379166667,0,0,0,,0,84,84,209,1,velo,,,,
,,,,,,5d5496bdd84ebe0001f5fb20,676192165fb32c2e1fb7aee6,67d0cf7999003f58c0549c11,2025-03-11_17h14.57.045,Tarea de decisión léxica,2024.2.5,Win32,59.88023952,,,,,,,,,,,,,,,,,,,,,,,,295.3241,296.5223,a,1,0.5175,1,296.5224,297.0223,,,,,,384,FEM,NOWORD,AGR,150,brame,,la,,0.5175,,297.0224,297.0226,-0.017499987,-0.379166667,0,0,0,,0,85,85,383,1,frase,,,,
,,,,,,5d5496bdd84ebe0001f5fb20,676192165fb32c2e1fb7aee6,67d0cf7999003f58c0549c11,2025-03-11_17h14.57.045,Tarea de decisión léxica,2024.2.5,Win32,59.88023952,,,,,,,,,,,,,,,,,,,,,,,,297.0242,298.322,a,1,0.6179,1,298.3221,298.8218,,,,,,278,MAS,NOWORD,DIS,150,vuemo,,la,,0.6179,,298.8219,298.8221,-0.017499987,-0.379166667,0,0,0,,0,86,86,277,1,fuego,,,,
,,,,,,5d5496bdd84ebe0001f5fb20,676192165fb32c2e1fb7aee6,67d0cf7999003f58c0549c11,2025-03-11_17h14.57.045,Tarea de decisión léxica,2024.2.5,Win32,59.88023952,,,,,,,,,,,,,,,,,,,,,,,,298.8233,300.0721,a,1,0.5698,1,300.0721,300.5721,,,,,,216,FEM,NOWORD,AGR,150,raua,,la,,0.5698,,300.5721,300.5723,-0.017499987,-0.379166667,0,0,0,,0,87,87,215,1,raíz,,,,
,,,,,,5d5496bdd84ebe0001f5fb20,676192165fb32c2e1fb7aee6,67d0cf7999003f58c0549c11,2025-03-11_17h14.57.045,Tarea de decisión léxica,2024.2.5,Win32,59.88023952,,,,,,,,,,,,,,,,,,,,,,,,300.5737,301.6381,a,1,0.3822,1,301.6383,302.1417,,,,,,10,MAS,NOWORD,DIS,150,sibo,,la,,0.3822,,302.1433,302.1442,-0.017499987,-0.379166667,0,0,0,,0,88,88,9,1,tipo,,,,
,,,,,,5d5496bdd84ebe0001f5fb20,676192165fb32c2e1fb7aee6,67d0cf7999003f58c0549c11,2025-03-11_17h14.57.045,Tarea de decisión léxica,2024.2.5,Win32,59.88023952,,,,,,,,,,,,,,,,,,,,,,,,302.145,303.2084,l,1,0.3845,1,303.2085,303.7083,,,,,,399,MAS,WORD,AGR,150,techo,,el,,0.3845,,303.7083,303.7085,-0.017499987,-0.379166667,0,0,0,,0,89,89,398,1,serro,,,,
,,,,,,5d5496bdd84ebe0001f5fb20,676192165fb32c2e1fb7aee6,67d0cf7999003f58c0549c11,2025-03-11_17h14.57.045,Tarea de decisión léxica,2024.2.5,Win32,59.88023952,,,,,,,,,,,,,,,,,,,,,,,,303.7099,304.8255,l,1,0.4344,1,304.8256,305.3249,,,,,,379,MAS,WORD,AGR,150,turno,,el,,0.4344,,305.3249,305.3252,-0.017499987,-0.379166667,0,0,0,,0,90,90,378,1,tunso,,,,
,,,,,,5d5496bdd84ebe0001f5fb20,676192165fb32c2e1fb7aee6,67d0cf7999003f58c0549c11,2025-03-11_17h14.57.045,Tarea de decisión léxica,2024.2.5,Win32,59.88023952,,,,,,,,,,,,,,,,,,,,,,,,305.3267,306.4083,a,1,0.412,1,306.4083,306.9079,,,,,,466,FEM,NOWORD,DIS,150,asuba,,el,,0.412,,306.908,306.9081,-0.017499987,-0.379166667,0,0,0,,0,91,91,465,1,aguja,,,,
,,,,,,5d5496bdd84ebe0001f5fb20,676192165fb32c2e1fb7aee6,67d0cf7999003f58c0549c11,2025-03-11_17h14.57.045,Tarea de decisión léxica,2024.2.5,Win32,59.88023952,,,,,,,,,,,,,,,,,,,,,,,,306.9095,308.3247,a,0,0.7365,0,308.3258,308.8246,,,,,,349,MAS,WORD,DIS,150,color,,la,,0.7365,,308.8247,308.8248,-0.017499987,-0.379166667,0,0,0,,0,92,92,348,1,cosir,,,,
,,,,,,5d5496bdd84ebe0001f5fb20,676192165fb32c2e1fb7aee6,67d0cf7999003f58c0549c11,2025-03-11_17h14.57.045,Tarea de decisión léxica,2024.2.5,Win32,59.88023952,,,,,,,,,,,,,,,,,,,,,,,,308.8262,310.0742,l,1,0.5676,1,310.0753,310.5745,,,,,,197,MAS,WORD,DIS,150,bate,,la,,0.5676,,310.5759,310.5767,-0.017499987,-0.379166667,0,0,0,,0,93,93,196,1,dade,,,,
,,,,,,5d5496bdd84ebe0001f5fb20,676192165fb32c2e1fb7aee6,67d0cf7999003f58c0549c11,2025-03-11_17h14.57.045,Tarea de decisión léxica,2024.2.5,Win32,59.88023952,,,,,,,,,,,,,,,,,,,,,,,,310.5775,311.8912,a,1,0.6375,1,311.8913,312.3908,,,,,,430,FEM,NOWORD,DIS,150,tenta,,el,,0.6375,,312.3909,312.3912,-0.017499987,-0.379166667,0,0,0,,0,94,94,429,1,tarta,,,,
,,,,,,5d5496bdd84ebe0001f5fb20,676192165fb32c2e1fb7aee6,67d0cf7999003f58c0549c11,2025-03-11_17h14.57.045,Tarea de decisión léxica,2024.2.5,Win32,59.88023952,,,,,,,,,,,,,,,,,,,,,,,,312.3927,313.6739,a,1,0.6037,1,313.6741,314.1738,,,,,,104,FEM,NOWORD,AGR,150,rova,,la,,0.6037,,314.174,314.174,-0.017499987,-0.379166667,0,0,0,,0,95,95,103,1,ruta,,,,
,,,,,,5d5496bdd84ebe0001f5fb20,676192165fb32c2e1fb7aee6,67d0cf7999003f58c0549c11,2025-03-11_17h14.57.045,Tarea de decisión léxica,2024.2.5,Win32,59.88023952,,,,,,,,,,,,,,,,,,,,,,,,314.1756,315.5405,a,0,0.6867,0,315.5415,316.0401,,,,,,267,MAS,WORD,AGR,150,libro,,el,,0.6867,,316.0401,316.0403,-0.017499987,-0.379166667,0,0,0,,0,96,96,266,1,figro,,,,
,,,,,,5d5496bdd84ebe0001f5fb20,676192165fb32c2e1fb7aee6,67d0cf7999003f58c0549c11,2025-03-11_17h14.57.045,Tarea de decisión léxica,2024.2.5,Win32,59.88023952,,,,,,,,,,,,,,,,,,,,,,,,316.0416,317.1905,l,1,0.4675,1,317.1915,317.6898,,,,,,61,FEM,WORD,DIS,150,obra,,el,,0.4675,,317.6899,317.69,-0.017499987,-0.379166667,0,0,0,,0,97,97,60,1,efla,,,,
,,,,,,5d5496bdd84ebe0001f5fb20,676192165fb32c2e1fb7aee6,67d0cf7999003f58c0549c11,2025-03-11_17h14.57.045,Tarea de decisión léxica,2024.2.5,Win32,59.88023952,,,,,,,,,,,,,,,,,,,,,,,,317.6913,318.7731,a,1,0.4108,1,318.7732,319.2731,,,,,,218,MAS,NOWORD,DIS,150,budo,,la,,0.4108,,319.2746,319.2775,-0.017499987,-0.379166667,0,0,0,,0,98,98,217,1,luto,,,,
,,,,,,5d5496bdd84ebe0001f5fb20,676192165fb32c2e1fb7aee6,67d0cf7999003f58c0549c11,2025-03-11_17h14.57.045,Tarea de decisión léxica,2024.2.5,Win32,59.88023952,,,,,,,,,,,,,,,,,,,,,,,,319.2786,320.5062,a,1,0.5571,1,320.5063,321.0061,,,,,,60,FEM,NOWORD,AGR,150,tafa,,la,,0.5571,,321.0061,321.0063,-0.017499987,-0.379166667,0,0,0,,0,99,99,59,1,sala,,,,
,,,,,,5d5496bdd84ebe0001f5fb20,676192165fb32c2e1fb7aee6,67d0cf7999003f58c0549c11,2025-03-11_17h14.57.045,Tarea de decisión léxica,2024.2.5,Win32,59.88023952,,,,,,,,,,,,,,,,,,,,,,,,321.0076,322.206,a,1,0.5178,1,322.2061,322.7061,,,,,,62,FEM,NOWORD,DIS,150,efla,,el,,0.5178,,322.7062,322.7063,-0.017499987,-0.379166667,0,0,0,,0,100,100,61,1,obra,,,,
,,,,,,5d5496bdd84ebe0001f5fb20,676192165fb32c2e1fb7aee6,67d0cf7999003f58c0549c11,2025-03-11_17h14.57.045,Tarea de decisión léxica,2024.2.5,Win32,59.88023952,,,,,,,,,,,,,,,,,,,,,,,,322.7077,323.8725,l,1,0.489,1,323.8726,324.3727,,,,,,293,MAS,WORD,DIS,150,campo,,la,,0.489,,324.3727,324.3729,-0.017499987,-0.379166667,0,0,0,,0,101,101,292,1,cacso,,,,
,,,,,,5d5496bdd84ebe0001f5fb20,676192165fb32c2e1fb7aee6,67d0cf7999003f58c0549c11,2025-03-11_17h14.57.045,Tarea de decisión léxica,2024.2.5,Win32,59.88023952,,,,,,,,,,,,,,,,,,,,,,,,324.374,326.2222,a,0,1.1677,0,326.2232,326.722,,,,,,141,FEM,WORD,DIS,150,cruz,,el,,1.1677,,326.7221,326.7222,-0.017499987,-0.379166667,0,0,0,,0,102,102,140,1,sina,,,,
,,,,,,5d5496bdd84ebe0001f5fb20,676192165fb32c2e1fb7aee6,67d0cf7999003f58c0549c11,2025-03-11_17h14.57.045,Tarea de decisión léxica,2024.2.5,Win32,59.88023952,,,,,,,,,,,,,,,,,,,,,,,,326.7235,328.1721,a,1,0.7703,1,328.1734,328.6719,,,,,,54,FEM,NOWORD,DIS,150,rora,,el,,0.7703,,328.6733,328.6742,-0.017499987,-0.379166667,0,0,0,,0,103,103,53,1,boda,,,,
,,,,,,5d5496bdd84ebe0001f5fb20,676192165fb32c2e1fb7aee6,67d0cf7999003f58c0549c11,2025-03-11_17h14.57.045,Tarea de decisión léxica,2024.2.5,Win32,59.88023952,,,,,,,,,,,,,,,,,,,,,,,,328.6752,329.8885,l,1,0.5461,1,329.8887,330.3883,,,,,,419,MAS,WORD,AGR,150,truco,,el,,0.5461,,330.3885,330.3886,-0.017499987,-0.379166667,0,0,0,,0,104,104,418,1,chudo,,,,
,,,,,,5d5496bdd84ebe0001f5fb20,676192165fb32c2e1fb7aee6,67d0cf7999003f58c0549c11,2025-03-11_17h14.57.045,Tarea de decisión léxica,2024.2.5,Win32,59.88023952,,,,,,,,,,,,,,,,,,,,,,,,330.3899,331.5385,l,1,0.4716,1,331.5386,332.0381,,,,,,7,MAS,WORD,AGR,150,hijo,,el,,0.4716,,332.0381,332.0383,-0.017499987,-0.379166667,0,0,0,,0,105,105,6,1,nivo,,,,
,,,,,,5d5496bdd84ebe0001f5fb20,676192165fb32c2e1fb7aee6,67d0cf7999003f58c0549c11,2025-03-11_17h14.57.045,Tarea de decisión léxica,2024.2.5,Win32,59.88023952,,,,,,,,,,,,,,,,,,,,,,,,332.0395,333.138,l,1,0.4199,1,333.1381,333.6379,,,,,,273,FEM,WORD,DIS,150,broma,,el,,0.4199,,333.638,333.6382,-0.017499987,-0.379166667,0,0,0,,0,106,106,272,1,frosa,,,,
,,,,,,5d5496bdd84ebe0001f5fb20,676192165fb32c2e1fb7aee6,67d0cf7999003f58c0549c11,2025-03-11_17h14.57.045,Tarea de decisión léxica,2024.2.5,Win32,59.88023952,,,,,,,,,,,,,,,,,,,,,,,,333.6396,334.8881,a,1,0.571,1,334.8883,335.388,,,,,,310,FEM,NOWORD,DIS,150,tirra,,el,,0.571,,335.39,335.391,-0.017499987,-0.379166667,0,0,0,,0,107,107,309,1,silla,,,,
,,,,,,5d5496bdd84ebe0001f5fb20,676192165fb32c2e1fb7aee6,67d0cf7999003f58c0549c11,2025-03-11_17h14.57.045,Tarea de decisión léxica,2024.2.5,Win32,59.88023952,,,,,,,,,,,,,,,,,,,,,,,,335.392,336.7044,a,1,0.6417,1,336.7046,337.2043,,,,,,286,MAS,NOWORD,DIS,150,echor,,la,,0.6417,,337.2044,337.2045,-0.017499987,-0.379166667,0,0,0,,0,108,108,285,1,error,,,,
,,,,,,5d5496bdd84ebe0001f5fb20,676192165fb32c2e1fb7aee6,67d0cf7999003f58c0549c11,2025-03-11_17h14.57.045,Tarea de decisión léxica,2024.2.5,Win32,59.88023952,,,,,,,,,,,,,,,,,,,,,,,,337.206,338.3207,a,1,0.4272,1,338.3208,338.821,,,,,,190,MAS,NOWORD,DIS,150,muvo,,la,,0.4272,,338.8212,338.8213,-0.017499987,-0.379166667,0,0,0,,0,109,109,189,1,puño,,,,
,,,,,,5d5496bdd84ebe0001f5fb20,676192165fb32c2e1fb7aee6,67d0cf7999003f58c0549c11,2025-03-11_17h14.57.045,Tarea de decisión léxica,2024.2.5,Win32,59.88023952,,,,,,,,,,,,,,,,,,,,,,,,338.8228,340.2704,a,1,0.7743,1,340.2706,340.7704,,,,,,220,FEM,NOWORD,AGR,150,miva,,la,,0.7743,,340.7704,340.7705,-0.017499987,-0.379166667,0,0,0,,0,110,110,219,1,pipa,,,,
,,,,,,5d5496bdd84ebe0001f5fb20,676192165fb32c2e1fb7aee6,67d0cf7999003f58c0549c11,2025-03-11_17h14.57.045,Tarea de decisión léxica,2024.2.5,Win32,59.88023952,,,,,,,,,,,,,,,,,,,,,,,,340.7719,341.9703,l,1,0.519,1,341.9704,342.4702,,,,,,87,MAS,WORD,AGR,150,vaso,,el,,0.519,,342.4702,342.4704,-0.017499987,-0.379166667,0,0,0,,0,111,111,86,1,damo,,,,
,,,,,,5d5496bdd84ebe0001f5fb20,676192165fb32c2e1fb7aee6,67d0cf7999003f58c0549c11,2025-03-11_17h14.57.045,Tarea de decisión léxica,2024.2.5,Win32,59.88023952,,,,,,,,,,,,,,,,,,,,,,,,342.4716,343.6203,l,1,0.4712,1,343.6204,344.12,,,,,,147,FEM,WORD,AGR,150,hoja,,la,,0.4712,,344.1217,344.1228,-0.017499987,-0.379166667,0,0,0,,0,112,112,146,1,pama,,,,
,,,,,,5d5496bdd84ebe0001f5fb20,676192165fb32c2e1fb7aee6,67d0cf7999003f58c0549c11,2025-03-11_17h14.57.045,Tarea de decisión léxica,2024.2.5,Win32,59.88023952,,,,,,,,,,,,,,,,,,,,,,,,344.1238,345.1532,l,1,0.3506,1,345.1533,345.6532,,,,,,467,MAS,WORD,AGR,150,piano,,el,,0.3506,,345.6532,345.6534,-0.017499987,-0.379166667,0,0,0,,0,113,113,466,1,peiso,,,,
,,,,,,5d5496bdd84ebe0001f5fb20,676192165fb32c2e1fb7aee6,67d0cf7999003f58c0549c11,2025-03-11_17h14.57.045,Tarea de decisión léxica,2024.2.5,Win32,59.88023952,,,,,,,,,,,,,,,,,,,,,,,,345.6547,346.7199,a,1,0.3957,1,346.7199,347.2197,,,,,,262,MAS,NOWORD,DIS,150,titio,,la,,0.3957,,347.2199,347.22,-0.017499987,-0.379166667,0,0,0,,0,114,114,261,1,sitio,,,,
,,,,,,5d5496bdd84ebe0001f5fb20,676192165fb32c2e1fb7aee6,67d0cf7999003f58c0549c11,2025-03-11_17h14.57.045,Tarea de decisión léxica,2024.2.5,Win32,59.88023952,,,,,,,,,,,,,,,,,,,,,,,,347.2213,348.4862,a,1,0.5906,1,348.4863,348.9862,,,,,,122,MAS,NOWORD,DIS,150,bomo,,la,,0.5906,,348.9863,348.9864,-0.017499987,-0.379166667,0,0,0,,0,115,115,121,1,hoyo,,,,
,,,,,,5d5496bdd84ebe0001f5fb20,676192165fb32c2e1fb7aee6,67d0cf7999003f58c0549c11,2025-03-11_17h14.57.045,Tarea de decisión léxica,2024.2.5,Win32,59.88023952,,,,,,,,,,,,,,,,,,,,,,,,348.9878,350.3362,a,1,0.6761,1,350.3362,350.8361,,,,,,454,FEM,NOWORD,DIS,150,pafia,,el,,0.6761,,350.8362,350.8363,-0.017499987,-0.379166667,0,0,0,,0,116,116,453,1,mafia,,,,
,,,,,,5d5496bdd84ebe0001f5fb20,676192165fb32c2e1fb7aee6,67d0cf7999003f58c0549c11,2025-03-11_17h14.57.045,Tarea de decisión léxica,2024.2.5,Win32,59.88023952,,,,,,,,,,,,,,,,,,,,,,,,350.8384,352.3359,l,1,0.8177,1,352.3361,352.8359,,,,,,121,MAS,WORD,DIS,150,hoyo,,la,,0.8177,,352.8378,352.839,-0.017499987,-0.379166667,0,0,0,,0,117,117,120,1,bomo,,,,
,,,,,,5d5496bdd84ebe0001f5fb20,676192165fb32c2e1fb7aee6,67d0cf7999003f58c0549c11,2025-03-11_17h14.57.045,Tarea de decisión léxica,2024.2.5,Win32,59.88023952,,,,,,,,,,,,,,,,,,,,,,,,352.8407,354.3364,l,1,0.8204,1,354.3365,354.8359,,,,,,149,MAS,WORD,DIS,150,cabo,,la,,0.8204,,354.836,354.8362,-0.017499987,-0.379166667,0,0,0,,0,118,118,148,1,pafo,,,,
,,,,,,5d5496bdd84ebe0001f5fb20,676192165fb32c2e1fb7aee6,67d0cf7999003f58c0549c11,2025-03-11_17h14.57.045,Tarea de decisión léxica,2024.2.5,Win32,59.88023952,,,,,,,,,,,,,,,,,,,,,,,,354.8376,356.1188,l,1,0.6039,1,356.1189,356.6189,,,,,,71,FEM,WORD,AGR,150,isla,,la,,0.6039,,356.619,356.6192,-0.017499987,-0.379166667,0,0,0,,0,119,119,70,1,urla,,,,
,,,,,,5d5496bdd84ebe0001f5fb20,676192165fb32c2e1fb7aee6,67d0cf7999003f58c0549c11,2025-03-11_17h14.57.045,Tarea de decisión léxica,2024.2.5,Win32,59.88023952,,,,,,,,,,,,,,,,,,,,,,,,356.6204,357.6352,l,1,0.3455,1,357.6354,358.1352,,,,,,253,MAS,WORD,DIS,150,chico,,la,,0.3455,,358.1352,358.1354,-0.017499987,-0.379166667,0,0,0,,0,120,120,252,1,trido,,,,
,,,,,,5d5496bdd84ebe0001f5fb20,676192165fb32c2e1fb7aee6,67d0cf7999003f58c0549c11,2025-03-11_17h14.57.045,Tarea de decisión léxica,2024.2.5,Win32,59.88023952,,,,,,,,,,,,,,,,,,,,,,,,358.1367,359.5186,a,1,0.7008,1,359.5188,360.0186,,,,,,240,MAS,NOWORD,AGR,150,poño,,el,,0.7008,,360.0186,360.0188,-0.017499987,-0.379166667,0,0,0,,0,121,121,239,1,mozo,,,,
,,,,,,5d5496bdd84ebe0001f5fb20,676192165fb32c2e1fb7aee6,67d0cf7999003f58c0549c11,2025-03-11_17h14.57.045,Tarea de decisión léxica,2024.2.5,Win32,59.88023952,,,,,,,,,,,,,,,,,,,,,,,,360.0204,361.3682,a,1,0.6693,1,361.3684,361.8682,,,,,,344,FEM,NOWORD,AGR,150,trada,,la,,0.6693,,361.8698,361.8706,-0.017499987,-0.379166667,0,0,0,,0,122,122,343,1,plata,,,,
,,,,,,5d5496bdd84ebe0001f5fb20,676192165fb32c2e1fb7aee6,67d0cf7999003f58c0549c11,2025-03-11_17h14.57.045,Tarea de decisión léxica,2024.2.5,Win32,59.88023952,,,,,,,,,,,,,,,,,,,,,,,,361.8716,363.0514,l,1,0.5042,1,363.0515,363.5513,,,,,,27,MAS,WORD,AGR,150,baño,,el,,0.5042,,363.5516,363.5517,-0.017499987,-0.379166667,0,0,0,,0,123,123,26,1,ravo,,,,
,,,,,,5d5496bdd84ebe0001f5fb20,676192165fb32c2e1fb7aee6,67d0cf7999003f58c0549c11,2025-03-11_17h14.57.045,Tarea de decisión léxica,2024.2.5,Win32,59.88023952,,,,,,,,,,,,,,,,,,,,,,,,363.5539,365.0014,a,1,0.7666,1,365.0016,365.5011,,,,,,238,MAS,NOWORD,DIS,150,huco,,la,,0.7666,,365.5011,365.5013,-0.017499987,-0.379166667,0,0,0,,0,124,124,237,1,nudo,,,,
,,,,,,5d5496bdd84ebe0001f5fb20,676192165fb32c2e1fb7aee6,67d0cf7999003f58c0549c11,2025-03-11_17h14.57.045,Tarea de decisión léxica,2024.2.5,Win32,59.88023952,,,,,,,,,,,,,,,,,,,,,,,,365.5025,368.1506,,0,0.7666,-1,368.1518,368.6507,,,,,,455,MAS,WORD,AGR,150,reino,,el,,,,368.6508,368.651,-0.017499987,-0.379166667,0,0,0,,0,125,125,454,1,riaso,,,,
,,,,,,5d5496bdd84ebe0001f5fb20,676192165fb32c2e1fb7aee6,67d0cf7999003f58c0549c11,2025-03-11_17h14.57.045,Tarea de decisión léxica,2024.2.5,Win32,59.88023952,,,,,,,,,,,,,,,,,,,,,,,,368.6529,370.0675,a,1,0.7402,1,370.0685,370.5672,,,,,,246,FEM,NOWORD,DIS,150,pafle,,el,,0.7402,,370.5673,370.5675,-0.017499987,-0.379166667,0,0,0,,0,126,126,245,1,madre,,,,
,,,,,,5d5496bdd84ebe0001f5fb20,676192165fb32c2e1fb7aee6,67d0cf7999003f58c0549c11,2025-03-11_17h14.57.045,Tarea de decisión léxica,2024.2.5,Win32,59.88023952,,,,,,,,,,,,,,,,,,,,,,,,370.5688,371.7836,a,1,0.546,1,371.7837,372.2837,,,,,,330,MAS,NOWORD,DIS,150,nueno,,la,,0.546,,372.285,372.2857,-0.017499987,-0.379166667,0,0,0,,0,127,127,329,1,hueso,,,,
,,,,,,5d5496bdd84ebe0001f5fb20,676192165fb32c2e1fb7aee6,67d0cf7999003f58c0549c11,2025-03-11_17h14.57.045,Tarea de decisión léxica,2024.2.5,Win32,59.88023952,,,,,,,,,,,,,,,,,,,,,,,,372.2866,373.417,l,1,0.4601,1,373.4171,373.9166,,,,,,101,MAS,WORD,DIS,150,tono,,la,,0.4601,,373.9166,373.9168,-0.017499987,-0.379166667,0,0,0,,0,128,128,100,1,gito,,,,
,,,,,,5d5496bdd84ebe0001f5fb20,676192165fb32c2e1fb7aee6,67d0cf7999003f58c0549c11,2025-03-11_17h14.57.045,Tarea de decisión léxica,2024.2.5,Win32,59.88023952,,,,,,,,,,,,,,,,,,,,,,,,373.9182,375.2831,l,1,0.684,1,375.2832,375.783,,,,,,477,MAS,WORD,DIS,150,botón,,la,,0.684,,375.783,375.7832,-0.017499987,-0.379166667,0,0,0,,0,129,129,476,1,hocon,,,,
,,,,,,5d5496bdd84ebe0001f5fb20,676192165fb32c2e1fb7aee6,67d0cf7999003f58c0549c11,2025-03-11_17h14.57.045,Tarea de decisión léxica,2024.2.5,Win32,59.88023952,,,,,,,,,,,,,,,,,,,,,,,,375.7845,376.9497,a,1,0.4843,1,376.9499,377.45,,,,,,100,MAS,NOWORD,AGR,150,soro,,el,,0.4843,,377.45,377.4502,-0.017499987,-0.379166667,0,0,0,,0,130,130,99,1,lobo,,,,
,,,,,,5d5496bdd84ebe0001f5fb20,676192165fb32c2e1fb7aee6,67d0cf7999003f58c0549c11,2025-03-11_17h14.57.045,Tarea de decisión léxica,2024.2.5,Win32,59.88023952,,,,,,,,,,,,,,,,,,,,,,,,377.4514,380.0992,,0,0.4843,-1,380.1004,380.5997,,,,,,270,MAS,NOWORD,DIS,150,mello,,la,,,,380.6015,380.6024,-0.017499987,-0.379166667,0,0,0,,0,131,131,269,1,perro,,,,
,,,,,,5d5496bdd84ebe0001f5fb20,676192165fb32c2e1fb7aee6,67d0cf7999003f58c0549c11,2025-03-11_17h14.57.045,Tarea de decisión léxica,2024.2.5,Win32,59.88023952,,,,,,,,,,,,,,,,,,,,,,,,380.6034,381.8494,a,1,0.5707,1,381.8506,382.3491,,,,,,312,MAS,NOWORD,AGR,150,nosor,,el,,0.5707,,382.3492,382.3494,-0.017499987,-0.379166667,0,0,0,,0,132,132,311,1,honor,,,,
,,,,,,5d5496bdd84ebe0001f5fb20,676192165fb32c2e1fb7aee6,67d0cf7999003f58c0549c11,2025-03-11_17h14.57.045,Tarea de decisión léxica,2024.2.5,Win32,59.88023952,,,,,,,,,,,,,,,,,,,,,,,,382.3507,383.5321,a,1,0.4997,1,383.5321,384.0324,,,,,,118,MAS,NOWORD,DIS,150,movo,,la,,0.4997,,384.0325,384.0326,-0.017499987,-0.379166667,0,0,0,,0,133,133,117,1,palo,,,,
,,,,,,5d5496bdd84ebe0001f5fb20,676192165fb32c2e1fb7aee6,67d0cf7999003f58c0549c11,2025-03-11_17h14.57.045,Tarea de decisión léxica,2024.2.5,Win32,59.88023952,,,,,,,,,,,,,,,,,,,,,,,,384.034,385.3493,a,1,0.6437,1,385.3494,385.8487,,,,,,480,MAS,NOWORD,AGR,150,rimpo,,el,,0.6437,,385.8487,385.8489,-0.017499987,-0.379166667,0,0,0,,0,134,134,479,1,rumbo,,,,
,,,,,,5d5496bdd84ebe0001f5fb20,676192165fb32c2e1fb7aee6,67d0cf7999003f58c0549c11,2025-03-11_17h14.57.045,Tarea de decisión léxica,2024.2.5,Win32,59.88023952,,,,,,,,,,,,,,,,,,,,,,,,385.8505,387.0485,l,1,0.5144,1,387.0486,387.5483,,,,,,347,FEM,WORD,AGR,150,pieza,,la,,0.5144,,387.5483,387.5485,-0.017499987,-0.379166667,0,0,0,,0,135,135,346,1,mueza,,,,
,,,,,,5d5496bdd84ebe0001f5fb20,676192165fb32c2e1fb7aee6,67d0cf7999003f58c0549c11,2025-03-11_17h14.57.045,Tarea de decisión léxica,2024.2.5,Win32,59.88023952,,,,,,,,,,,,,,,,,,,,,,,,387.5497,388.8317,l,1,0.6011,1,388.8318,389.3315,,,,,,15,FEM,WORD,AGR,150,idea,,la,,0.6011,,389.3336,389.3346,-0.017499987,-0.379166667,0,0,0,,0,136,136,14,1,odea,,,,
,,,,,,5d5496bdd84ebe0001f5fb20,676192165fb32c2e1fb7aee6,67d0cf7999003f58c0549c11,2025-03-11_17h14.57.045,Tarea de decisión léxica,2024.2.5,Win32,59.88023952,,,,,,,,,,,,,,,,,,,,,,,,389.3358,391.0815,a,0,1.0691,0,391.0826,391.581,,,,,,191,FEM,WORD,AGR,150,pila,,la,,1.0691,,391.5811,391.5813,-0.017499987,-0.379166667,0,0,0,,0,137,137,190,1,bila,,,,
,,,,,,5d5496bdd84ebe0001f5fb20,676192165fb32c2e1fb7aee6,67d0cf7999003f58c0549c11,2025-03-11_17h14.57.045,Tarea de decisión léxica,2024.2.5,Win32,59.88023952,,,,,,,,,,,,,,,,,,,,,,,,391.5827,392.7978,a,1,0.5467,1,392.799,393.2981,,,,,,308,MAS,NOWORD,AGR,150,holol,,el,,0.5467,,393.2981,393.2983,-0.017499987,-0.379166667,0,0,0,,0,138,138,307,1,hotel,,,,
,,,,,,5d5496bdd84ebe0001f5fb20,676192165fb32c2e1fb7aee6,67d0cf7999003f58c0549c11,2025-03-11_17h14.57.045,Tarea de decisión léxica,2024.2.5,Win32,59.88023952,,,,,,,,,,,,,,,,,,,,,,,,393.2998,394.5807,l,1,0.6111,1,394.5808,395.0806,,,,,,107,MAS,WORD,AGR,150,saco,,el,,0.6111,,395.0807,395.0809,-0.017499987,-0.379166667,0,0,0,,0,139,139,106,1,raot,,,,
,,,,,,5d5496bdd84ebe0001f5fb20,676192165fb32c2e1fb7aee6,67d0cf7999003f58c0549c11,2025-03-11_17h14.57.045,Tarea de decisión léxica,2024.2.5,Win32,59.88023952,,,,,,,,,,,,,,,,,,,,,,,,395.0822,396.4307,l,1,0.6672,1,396.4308,396.9307,,,,,,225,MAS,WORD,DIS,150,lodo,,la,,0.6672,,396.9309,396.931,-0.017499987,-0.379166667,0,0,0,,0,140,140,224,1,boco,,,,
,,,,,,5d5496bdd84ebe0001f5fb20,676192165fb32c2e1fb7aee6,67d0cf7999003f58c0549c11,2025-03-11_17h14.57.045,Tarea de decisión léxica,2024.2.5,Win32,59.88023952,,,,,,,,,,,,,,,,,,,,,,,,396.9323,398.1139,a,1,0.5124,1,398.1143,398.6137,,,,,,266,FEM,NOWORD,DIS,150,pitat,,el,,0.5124,,398.6155,398.6166,-0.017499987,-0.379166667,0,0,0,,0,141,141,265,1,mitad,,,,
,,,,,,5d5496bdd84ebe0001f5fb20,676192165fb32c2e1fb7aee6,67d0cf7999003f58c0549c11,2025-03-11_17h14.57.045,Tarea de decisión léxica,2024.2.5,Win32,59.88023952,,,,,,,,,,,,,,,,,,,,,,,,398.6179,399.9806,l,1,0.6851,1,399.9807,400.4805,,,,,,301,FEM,WORD,DIS,150,banda,,el,,0.6851,,400.4807,400.4809,-0.017499987,-0.379166667,0,0,0,,0,142,142,300,1,ranga,,,,
,,,,,,5d5496bdd84ebe0001f5fb20,676192165fb32c2e1fb7aee6,67d0cf7999003f58c0549c11,2025-03-11_17h14.57.045,Tarea de decisión léxica,2024.2.5,Win32,59.88023952,,,,,,,,,,,,,,,,,,,,,,,,400.4824,403.1297,,0,0.6851,-1,403.1307,403.6297,,,,,,223,FEM,WORD,AGR,150,cera,,la,,,,403.6298,403.6299,-0.017499987,-0.379166667,0,0,0,,0,143,143,222,1,cira,,,,
,,,,,,5d5496bdd84ebe0001f5fb20,676192165fb32c2e1fb7aee6,67d0cf7999003f58c0549c11,2025-03-11_17h14.57.045,Tarea de decisión léxica,2024.2.5,Win32,59.88023952,,,,,,,,,,,,,,,,,,,,,,,,403.6312,404.8294,l,1,0.5291,1,404.8304,405.3299,,,,,,361,FEM,WORD,DIS,150,torre,,el,,0.5291,,405.3299,405.33,-0.017499987,-0.379166667,0,0,0,,0,144,144,360,1,solle,,,,
,,,,,,5d5496bdd84ebe0001f5fb20,676192165fb32c2e1fb7aee6,67d0cf7999003f58c0549c11,2025-03-11_17h14.57.045,Tarea de decisión léxica,2024.2.5,Win32,59.88023952,,,,,,,,,,,,,,,,,,,,,,,,405.3315,406.3962,l,1,0.3873,1,406.3964,406.8959,,,,,,299,FEM,WORD,AGR,150,bolsa,,la,,0.3873,,406.896,406.8962,-0.017499987,-0.379166667,0,0,0,,0,145,145,298,1,bosga,,,,
,,,,,,5d5496bdd84ebe0001f5fb20,676192165fb32c2e1fb7aee6,67d0cf7999003f58c0549c11,2025-03-11_17h14.57.045,Tarea de decisión léxica,2024.2.5,Win32,59.88023952,,,,,,,,,,,,,,,,,,,,,,,,406.8973,407.9629,l,1,0.3829,1,407.9631,408.4628,,,,,,415,FEM,WORD,AGR,150,jaula,,la,,0.3829,,408.4644,408.4651,-0.017499987,-0.379166667,0,0,0,,0,146,146,414,1,juira,,,,
,,,,,,5d5496bdd84ebe0001f5fb20,676192165fb32c2e1fb7aee6,67d0cf7999003f58c0549c11,2025-03-11_17h14.57.045,Tarea de decisión léxica,2024.2.5,Win32,59.88023952,,,,,,,,,,,,,,,,,,,,,,,,408.4658,409.5623,l,0,0.426,0,409.5634,410.0623,,,,,,64,FEM,NOWORD,AGR,150,funa,,la,,0.426,,410.0624,410.0625,-0.017499987,-0.379166667,0,0,0,,0,147,147,63,1,luna,,,,
,,,,,,5d5496bdd84ebe0001f5fb20,676192165fb32c2e1fb7aee6,67d0cf7999003f58c0549c11,2025-03-11_17h14.57.045,Tarea de decisión léxica,2024.2.5,Win32,59.88023952,,,,,,,,,,,,,,,,,,,,,,,,410.0642,411.0788,l,1,0.334,1,411.0799,411.579,,,,,,331,MAS,WORD,AGR,150,éxito,,el,,0.334,,411.5791,411.5792,-0.017499987,-0.379166667,0,0,0,,0,148,148,330,1,erato,,,,
,,,,,,5d5496bdd84ebe0001f5fb20,676192165fb32c2e1fb7aee6,67d0cf7999003f58c0549c11,2025-03-11_17h14.57.045,Tarea de decisión léxica,2024.2.5,Win32,59.88023952,,,,,,,,,,,,,,,,,,,,,,,,411.5803,412.6786,a,1,0.4272,1,412.6787,413.1786,,,,,,38,MAS,NOWORD,DIS,150,gaco,,la,,0.4272,,413.1787,413.1788,-0.017499987,-0.379166667,0,0,0,,0,149,149,37,1,rato,,,,
,,,,,,5d5496bdd84ebe0001f5fb20,676192165fb32c2e1fb7aee6,67d0cf7999003f58c0549c11,2025-03-11_17h14.57.045,Tarea de decisión léxica,2024.2.5,Win32,59.88023952,,,,,,,,,,,,,,,,,,,,,,,,413.1802,414.4621,l,1,0.605,1,414.4623,414.9617,,,,,,91,FEM,WORD,AGR,150,taza,,la,,0.605,,414.9618,414.962,-0.017499987,-0.379166667,0,0,0,,0,150,150,90,1,sava,,,,
,,,,,,5d5496bdd84ebe0001f5fb20,676192165fb32c2e1fb7aee6,67d0cf7999003f58c0549c11,2025-03-11_17h14.57.045,Tarea de decisión léxica,2024.2.5,Win32,59.88023952,,,,,,,,,,,,,,,,,,,,,,,,414.9634,416.1452,a,1,0.5082,1,416.1452,416.6448,,,,,,72,FEM,NOWORD,AGR,150,urla,,la,,0.5082,,416.6464,416.6473,-0.017499987,-0.379166667,0,0,0,,0,151,151,71,1,isla,,,,
,,,,,,5d5496bdd84ebe0001f5fb20,676192165fb32c2e1fb7aee6,67d0cf7999003f58c0549c11,2025-03-11_17h14.57.045,Tarea de decisión léxica,2024.2.5,Win32,59.88023952,,,,,,,,,,,,,,,,,,,,,,,,416.6482,417.8116,a,1,0.4962,1,417.8118,418.3115,,,,,,406,FEM,NOWORD,DIS,150,rarra,,el,,0.4962,,418.3116,418.3117,-0.017499987,-0.379166667,0,0,0,,0,152,152,405,1,barra,,,,
,,,,,,5d5496bdd84ebe0001f5fb20,676192165fb32c2e1fb7aee6,67d0cf7999003f58c0549c11,2025-03-11_17h14.57.045,Tarea de decisión léxica,2024.2.5,Win32,59.88023952,,,,,,,,,,,,,,,,,,,,,,,,418.3131,419.9627,a,1,0.9683,1,419.9628,420.4614,,,,,,234,FEM,NOWORD,DIS,150,fasa,,el,,0.9683,,420.4614,420.4615,-0.017499987,-0.379166667,0,0,0,,0,153,153,233,1,lana,,,,
,,,,,,5d5496bdd84ebe0001f5fb20,676192165fb32c2e1fb7aee6,67d0cf7999003f58c0549c11,2025-03-11_17h14.57.045,Tarea de decisión léxica,2024.2.5,Win32,59.88023952,,,,,,,,,,,,,,,,,,,,,,,,420.4628,421.6277,l,0,0.4942,0,421.6287,422.1277,,,,,,460,MAS,NOWORD,AGR,150,fraco,,el,,0.4942,,422.1278,422.128,-0.017499987,-0.379166667,0,0,0,,0,154,154,459,1,grado,,,,
,,,,,,5d5496bdd84ebe0001f5fb20,676192165fb32c2e1fb7aee6,67d0cf7999003f58c0549c11,2025-03-11_17h14.57.045,Tarea de decisión léxica,2024.2.5,Win32,59.88023952,,,,,,,,,,,,,,,,,,,,,,,,422.1293,423.3605,a,1,0.5504,1,423.3616,423.8605,,,,,,322,MAS,NOWORD,DIS,150,rarco,,la,,0.5504,,423.862,423.863,-0.017499987,-0.379166667,0,0,0,,0,155,155,321,1,banco,,,,
,,,,,,5d5496bdd84ebe0001f5fb20,676192165fb32c2e1fb7aee6,67d0cf7999003f58c0549c11,2025-03-11_17h14.57.045,Tarea de decisión léxica,2024.2.5,Win32,59.88023952,,,,,,,,,,,,,,,,,,,,,,,,423.8645,425.0771,l,1,0.5341,1,425.0772,425.5769,,,,,,235,FEM,WORD,AGR,150,grúa,,la,,0.5341,,425.5771,425.5772,-0.017499987,-0.379166667,0,0,0,,0,156,156,234,1,tria,,,,
,,,,,,5d5496bdd84ebe0001f5fb20,676192165fb32c2e1fb7aee6,67d0cf7999003f58c0549c11,2025-03-11_17h14.57.045,Tarea de decisión léxica,2024.2.5,Win32,59.88023952,,,,,,,,,,,,,,,,,,,,,,,,425.5785,426.8106,l,1,0.5637,1,426.8107,427.3103,,,,,,333,FEM,WORD,DIS,150,tarea,,el,,0.5637,,427.3104,427.3104,-0.017499987,-0.379166667,0,0,0,,0,157,157,332,1,dalea,,,,
,,,,,,5d5496bdd84ebe0001f5fb20,676192165fb32c2e1fb7aee6,67d0cf7999003f58c0549c11,2025-03-11_17h14.57.045,Tarea de decisión léxica,2024.2.5,Win32,59.88023952,,,,,,,,,,,,,,,,,,,,,,,,427.3118,428.3768,l,1,0.3966,1,428.3769,428.8766,,,,,,287,FEM,WORD,AGR,150,lista,,la,,0.3966,,428.8767,428.8768,-0.017499987,-0.379166667,0,0,0,,0,158,158,286,1,fosta,,,,
,,,,,,5d5496bdd84ebe0001f5fb20,676192165fb32c2e1fb7aee6,67d0cf7999003f58c0549c11,2025-03-11_17h14.57.045,Tarea de decisión léxica,2024.2.5,Win32,59.88023952,,,,,,,,,,,,,,,,,,,,,,,,428.8782,429.9934,l,1,0.4468,1,429.9936,430.4931,,,,,,417,FEM,WORD,DIS,150,barba,,el,,0.4468,,430.4931,430.4932,-0.017499987,-0.379166667,0,0,0,,0,159,159,416,1,banja,,,,
,,,,,,5d5496bdd84ebe0001f5fb20,676192165fb32c2e1fb7aee6,67d0cf7999003f58c0549c11,2025-03-11_17h14.57.045,Tarea de decisión léxica,2024.2.5,Win32,59.88023952,,,,,,,,,,,,,,,,,,,,,,,,430.4944,432.0263,a,0,0.8571,0,432.0273,432.5261,,,,,,165,FEM,WORD,DIS,150,vela,,el,,0.8571,,432.5275,438.6422,0.063333321,-0.422500038,0,0,0,space,0,160,160,164,1,dera,6.0905,,,
,,,,,,5d5496bdd84ebe0001f5fb20,676192165fb32c2e1fb7aee6,67d0cf7999003f58c0549c11,2025-03-11_17h14.57.045,Tarea de decisión léxica,2024.2.5,Win32,59.88023952,,,,,,,,,,,,,,,,,,,,,,,,438.6438,439.8419,l,1,0.5167,1,439.8431,440.3423,,,,,,393,FEM,WORD,DIS,150,aldea,,el,,0.5167,,440.3424,440.3426,0.063333321,-0.422500038,0,0,0,,0,161,161,392,1,ashea,,,,
,,,,,,5d5496bdd84ebe0001f5fb20,676192165fb32c2e1fb7aee6,67d0cf7999003f58c0549c11,2025-03-11_17h14.57.045,Tarea de decisión léxica,2024.2.5,Win32,59.88023952,,,,,,,,,,,,,,,,,,,,,,,,440.3439,441.5087,a,1,0.4968,1,441.5089,442.0085,,,,,,346,FEM,NOWORD,DIS,150,anera,,el,,0.4968,,442.0085,442.0086,0.063333321,-0.422500038,0,0,0,,0,162,162,345,1,arena,,,,
,,,,,,5d5496bdd84ebe0001f5fb20,676192165fb32c2e1fb7aee6,67d0cf7999003f58c0549c11,2025-03-11_17h14.57.045,Tarea de decisión léxica,2024.2.5,Win32,59.88023952,,,,,,,,,,,,,,,,,,,,,,,,442.0099,443.3249,a,1,0.6424,1,443.3251,443.8252,,,,,,350,MAS,NOWORD,DIS,150,cosir,,la,,0.6424,,443.8252,443.8253,0.063333321,-0.422500038,0,0,0,,0,163,163,349,1,color,,,,
,,,,,,5d5496bdd84ebe0001f5fb20,676192165fb32c2e1fb7aee6,67d0cf7999003f58c0549c11,2025-03-11_17h14.57.045,Tarea de decisión léxica,2024.2.5,Win32,59.88023952,,,,,,,,,,,,,,,,,,,,,,,,443.8266,444.9916,a,1,0.484,1,444.9916,445.4912,,,,,,342,MAS,NOWORD,DIS,150,daror,,la,,0.484,,445.4913,445.4915,0.063333321,-0.422500038,0,0,0,,0,164,164,341,1,valor,,,,
,,,,,,5d5496bdd84ebe0001f5fb20,676192165fb32c2e1fb7aee6,67d0cf7999003f58c0549c11,2025-03-11_17h14.57.045,Tarea de decisión léxica,2024.2.5,Win32,59.88023952,,,,,,,,,,,,,,,,,,,,,,,,445.4927,446.6078,a,1,0.4383,1,446.6079,447.1078,,,,,,58,MAS,NOWORD,DIS,150,heco,,la,,0.4383,,447.1093,447.1102,0.063333321,-0.422500038,0,0,0,,0,165,165,57,1,dedo,,,,
,,,,,,5d5496bdd84ebe0001f5fb20,676192165fb32c2e1fb7aee6,67d0cf7999003f58c0549c11,2025-03-11_17h14.57.045,Tarea de decisión léxica,2024.2.5,Win32,59.88023952,,,,,,,,,,,,,,,,,,,,,,,,447.1111,448.1078,l,1,0.3174,1,448.108,448.6078,,,,,,247,FEM,WORD,AGR,150,chica,,la,,0.3174,,448.6079,448.6081,0.063333321,-0.422500038,0,0,0,,0,166,166,246,1,trida,,,,
,,,,,,5d5496bdd84ebe0001f5fb20,676192165fb32c2e1fb7aee6,67d0cf7999003f58c0549c11,2025-03-11_17h14.57.045,Tarea de decisión léxica,2024.2.5,Win32,59.88023952,,,,,,,,,,,,,,,,,,,,,,,,448.6094,449.8244,l,1,0.5346,1,449.8245,450.3244,,,,,,41,FEM,WORD,DIS,150,nave,,el,,0.5346,,450.3245,450.3247,0.063333321,-0.422500038,0,0,0,,0,167,167,40,1,haje,,,,
,,,,,,5d5496bdd84ebe0001f5fb20,676192165fb32c2e1fb7aee6,67d0cf7999003f58c0549c11,2025-03-11_17h14.57.045,Tarea de decisión léxica,2024.2.5,Win32,59.88023952,,,,,,,,,,,,,,,,,,,,,,,,450.3262,451.5241,l,1,0.5297,1,451.5243,452.0238,,,,,,341,MAS,WORD,DIS,150,valor,,la,,0.5297,,452.0239,452.0241,0.063333321,-0.422500038,0,0,0,,0,168,168,340,1,daror,,,,
,,,,,,5d5496bdd84ebe0001f5fb20,676192165fb32c2e1fb7aee6,67d0cf7999003f58c0549c11,2025-03-11_17h14.57.045,Tarea de decisión léxica,2024.2.5,Win32,59.88023952,,,,,,,,,,,,,,,,,,,,,,,,452.0253,453.157,a,1,0.4607,1,453.1571,453.6574,,,,,,370,MAS,NOWORD,DIS,150,rioco,,la,,0.4607,,453.6574,453.6575,0.063333321,-0.422500038,0,0,0,,0,169,169,369,1,ruido,,,,
,,,,,,5d5496bdd84ebe0001f5fb20,676192165fb32c2e1fb7aee6,67d0cf7999003f58c0549c11,2025-03-11_17h14.57.045,Tarea de decisión léxica,2024.2.5,Win32,59.88023952,,,,,,,,,,,,,,,,,,,,,,,,453.6587,454.9234,l,1,0.5848,1,454.9235,455.4232,,,,,,351,MAS,WORD,AGR,150,vuelo,,el,,0.5848,,455.4246,455.4255,0.063333321,-0.422500038,0,0,0,,0,170,170,350,1,duepo,,,,
,,,,,,5d5496bdd84ebe0001f5fb20,676192165fb32c2e1fb7aee6,67d0cf7999003f58c0549c11,2025-03-11_17h14.57.045,Tarea de decisión léxica,2024.2.5,Win32,59.88023952,,,,,,,,,,,,,,,,,,,,,,,,455.4264,456.6231,a,0,0.5204,0,456.624,457.1234,,,,,,63,FEM,WORD,AGR,150,luna,,la,,0.5204,,457.1235,457.1236,0.063333321,-0.422500038,0,0,0,,0,171,171,62,1,funa,,,,
,,,,,,5d5496bdd84ebe0001f5fb20,676192165fb32c2e1fb7aee6,67d0cf7999003f58c0549c11,2025-03-11_17h14.57.045,Tarea de decisión léxica,2024.2.5,Win32,59.88023952,,,,,,,,,,,,,,,,,,,,,,,,457.125,458.323,l,1,0.5268,1,458.324,458.8234,,,,,,181,FEM,WORD,DIS,150,seda,,el,,0.5268,,458.8234,458.8236,0.063333321,-0.422500038,0,0,0,,0,172,172,180,1,teda,,,,
,,,,,,5d5496bdd84ebe0001f5fb20,676192165fb32c2e1fb7aee6,67d0cf7999003f58c0549c11,2025-03-11_17h14.57.045,Tarea de decisión léxica,2024.2.5,Win32,59.88023952,,,,,,,,,,,,,,,,,,,,,,,,458.825,460.1064,a,1,0.614,1,460.1065,460.6061,,,,,,450,FEM,NOWORD,DIS,150,crusa,,el,,0.614,,460.6061,460.6063,0.063333321,-0.422500038,0,0,0,,0,173,173,449,1,pluma,,,,
,,,,,,5d5496bdd84ebe0001f5fb20,676192165fb32c2e1fb7aee6,67d0cf7999003f58c0549c11,2025-03-11_17h14.57.045,Tarea de decisión léxica,2024.2.5,Win32,59.88023952,,,,,,,,,,,,,,,,,,,,,,,,460.6076,461.8894,a,1,0.6007,1,461.8896,462.3894,,,,,,108,MAS,NOWORD,AGR,150,raot,,el,,0.6007,,462.3895,462.3897,0.063333321,-0.422500038,0,0,0,,0,174,174,107,1,saco,,,,
,,,,,,5d5496bdd84ebe0001f5fb20,676192165fb32c2e1fb7aee6,67d0cf7999003f58c0549c11,2025-03-11_17h14.57.045,Tarea de decisión léxica,2024.2.5,Win32,59.88023952,,,,,,,,,,,,,,,,,,,,,,,,462.3911,463.623,a,1,0.5508,1,463.623,464.1223,,,,,,394,FEM,NOWORD,DIS,150,ashea,,el,,0.5508,,464.1239,464.1248,0.063333321,-0.422500038,0,0,0,,0,175,175,393,1,aldea,,,,
,,,,,,5d5496bdd84ebe0001f5fb20,676192165fb32c2e1fb7aee6,67d0cf7999003f58c0549c11,2025-03-11_17h14.57.045,Tarea de decisión léxica,2024.2.5,Win32,59.88023952,,,,,,,,,,,,,,,,,,,,,,,,464.1257,465.4389,a,1,0.6388,1,465.439,465.9393,,,,,,6,FEM,NOWORD,DIS,150,poga,,el,,0.6388,,465.9394,465.9395,0.063333321,-0.422500038,0,0,0,,0,176,176,5,1,cosa,,,,
,,,,,,5d5496bdd84ebe0001f5fb20,676192165fb32c2e1fb7aee6,67d0cf7999003f58c0549c11,2025-03-11_17h14.57.045,Tarea de decisión léxica,2024.2.5,Win32,59.88023952,,,,,,,,,,,,,,,,,,,,,,,,465.9407,467.2058,a,1,0.5841,1,467.2059,467.7052,,,,,,258,FEM,NOWORD,DIS,150,asama,,el,,0.5841,,467.7053,467.7055,0.063333321,-0.422500038,0,0,0,,0,177,177,257,1,amiga,,,,
,,,,,,5d5496bdd84ebe0001f5fb20,676192165fb32c2e1fb7aee6,67d0cf7999003f58c0549c11,2025-03-11_17h14.57.045,Tarea de decisión léxica,2024.2.5,Win32,59.88023952,,,,,,,,,,,,,,,,,,,,,,,,467.7068,469.3718,l,1,0.9853,1,469.3719,469.872,,,,,,435,MAS,WORD,AGR,150,ritmo,,el,,0.9853,,469.872,469.8722,0.063333321,-0.422500038,0,0,0,,0,178,178,434,1,ricno,,,,
,,,,,,5d5496bdd84ebe0001f5fb20,676192165fb32c2e1fb7aee6,67d0cf7999003f58c0549c11,2025-03-11_17h14.57.045,Tarea de decisión léxica,2024.2.5,Win32,59.88023952,,,,,,,,,,,,,,,,,,,,,,,,469.8735,471.2882,l,1,0.7361,1,471.2884,471.788,,,,,,269,MAS,WORD,DIS,150,perro,,la,,0.7361,,471.7894,471.7901,0.063333321,-0.422500038,0,0,0,,0,179,179,268,1,mello,,,,
,,,,,,5d5496bdd84ebe0001f5fb20,676192165fb32c2e1fb7aee6,67d0cf7999003f58c0549c11,2025-03-11_17h14.57.045,Tarea de decisión léxica,2024.2.5,Win32,59.88023952,,,,,,,,,,,,,,,,,,,,,,,,471.7909,473.2213,a,0,0.7578,0,473.2224,473.7211,,,,,,195,FEM,WORD,AGR,150,tela,,la,,0.7578,,473.7212,473.7214,0.063333321,-0.422500038,0,0,0,,0,180,180,194,1,sira,,,,
,,,,,,5d5496bdd84ebe0001f5fb20,676192165fb32c2e1fb7aee6,67d0cf7999003f58c0549c11,2025-03-11_17h14.57.045,Tarea de decisión léxica,2024.2.5,Win32,59.88023952,,,,,,,,,,,,,,,,,,,,,,,,473.7227,474.855,l,1,0.4605,1,474.856,475.3547,,,,,,109,MAS,WORD,DIS,150,rayo,,la,,0.4605,,475.3548,475.355,0.063333321,-0.422500038,0,0,0,,0,181,181,108,1,suno,,,,
,,,,,,5d5496bdd84ebe0001f5fb20,676192165fb32c2e1fb7aee6,67d0cf7999003f58c0549c11,2025-03-11_17h14.57.045,Tarea de decisión léxica,2024.2.5,Win32,59.88023952,,,,,,,,,,,,,,,,,,,,,,,,475.3565,478.0038,,0,0.4605,-1,478.0052,478.504,,,,,,85,MAS,WORD,DIS,150,lago,,la,,,,478.504,478.5041,0.063333321,-0.422500038,0,0,0,,0,182,182,84,1,babo,,,,
,,,,,,5d5496bdd84ebe0001f5fb20,676192165fb32c2e1fb7aee6,67d0cf7999003f58c0549c11,2025-03-11_17h14.57.045,Tarea de decisión léxica,2024.2.5,Win32,59.88023952,,,,,,,,,,,,,,,,,,,,,,,,478.5054,479.7376,a,1,0.5494,1,479.7388,480.237,,,,,,380,MAS,NOWORD,AGR,150,tunso,,el,,0.5494,,480.2371,480.2372,0.063333321,-0.422500038,0,0,0,,0,183,183,379,1,turno,,,,
,,,,,,5d5496bdd84ebe0001f5fb20,676192165fb32c2e1fb7aee6,67d0cf7999003f58c0549c11,2025-03-11_17h14.57.045,Tarea de decisión léxica,2024.2.5,Win32,59.88023952,,,,,,,,,,,,,,,,,,,,,,,,480.2386,481.387,l,1,0.4672,1,481.3872,481.887,,,,,,95,FEM,WORD,AGR,151,moda,,la,,0.4672,,481.8888,481.8897,0.063333321,-0.422500038,0,0,0,,0,184,184,94,1,neda,,,,
,,,,,,5d5496bdd84ebe0001f5fb20,676192165fb32c2e1fb7aee6,67d0cf7999003f58c0549c11,2025-03-11_17h14.57.045,Tarea de decisión léxica,2024.2.5,Win32,59.88023952,,,,,,,,,,,,,,,,,,,,,,,,481.8907,482.9536,a,1,0.3872,1,482.9537,483.4534,,,,,,4,FEM,NOWORD,AGR,150,dica,,la,,0.3872,,483.4535,483.4535,0.063333321,-0.422500038,0,0,0,,0,185,185,3,1,vida,,,,
,,,,,,5d5496bdd84ebe0001f5fb20,676192165fb32c2e1fb7aee6,67d0cf7999003f58c0549c11,2025-03-11_17h14.57.045,Tarea de decisión léxica,2024.2.5,Win32,59.88023952,,,,,,,,,,,,,,,,,,,,,,,,483.4551,484.6702,l,1,0.5405,1,484.6704,485.17,,,,,,451,FEM,WORD,AGR,150,fruta,,la,,0.5405,,485.17,485.1701,0.063333321,-0.422500038,0,0,0,,0,186,186,450,1,clita,,,,
,,,,,,5d5496bdd84ebe0001f5fb20,676192165fb32c2e1fb7aee6,67d0cf7999003f58c0549c11,2025-03-11_17h14.57.045,Tarea de decisión léxica,2024.2.5,Win32,59.88023952,,,,,,,,,,,,,,,,,,,,,,,,485.1711,486.503,a,0,0.6621,0,486.5042,487.0031,,,,,,111,MAS,WORD,AGR,150,muro,,el,,0.6621,,487.0032,487.0033,0.063333321,-0.422500038,0,0,0,,0,187,187,110,1,siro,,,,
,,,,,,5d5496bdd84ebe0001f5fb20,676192165fb32c2e1fb7aee6,67d0cf7999003f58c0549c11,2025-03-11_17h14.57.045,Tarea de decisión léxica,2024.2.5,Win32,59.88023952,,,,,,,,,,,,,,,,,,,,,,,,487.0047,488.4696,a,1,0.7834,1,488.4707,488.9695,,,,,,28,MAS,NOWORD,AGR,150,ravo,,el,,0.7834,,488.9696,488.9697,0.063333321,-0.422500038,0,0,0,,0,188,188,27,1,baño,,,,
,,,,,,5d5496bdd84ebe0001f5fb20,676192165fb32c2e1fb7aee6,67d0cf7999003f58c0549c11,2025-03-11_17h14.57.045,Tarea de decisión léxica,2024.2.5,Win32,59.88023952,,,,,,,,,,,,,,,,,,,,,,,,488.9711,490.1026,l,1,0.4561,1,490.1028,490.6025,,,,,,367,MAS,WORD,AGR,150,reloj,,el,,0.4561,,490.6039,490.6047,0.063333321,-0.422500038,0,0,0,,0,189,189,366,1,rerob,,,,
,,,,,,5d5496bdd84ebe0001f5fb20,676192165fb32c2e1fb7aee6,67d0cf7999003f58c0549c11,2025-03-11_17h14.57.045,Tarea de decisión léxica,2024.2.5,Win32,59.88023952,,,,,,,,,,,,,,,,,,,,,,,,490.6057,491.8355,a,1,0.5602,1,491.8356,492.3356,,,,,,458,MAS,NOWORD,DIS,150,glaco,,la,,0.5602,,492.3356,492.3357,0.063333321,-0.422500038,0,0,0,,0,190,190,457,1,plato,,,,
,,,,,,5d5496bdd84ebe0001f5fb20,676192165fb32c2e1fb7aee6,67d0cf7999003f58c0549c11,2025-03-11_17h14.57.045,Tarea de decisión léxica,2024.2.5,Win32,59.88023952,,,,,,,,,,,,,,,,,,,,,,,,492.3371,493.9853,l,0,0.9795,0,493.9863,494.4856,,,,,,128,MAS,NOWORD,AGR,150,itio,,el,,0.9795,,494.4856,494.4859,0.063333321,-0.422500038,0,0,0,,0,191,191,127,1,pico,,,,
,,,,,,5d5496bdd84ebe0001f5fb20,676192165fb32c2e1fb7aee6,67d0cf7999003f58c0549c11,2025-03-11_17h14.57.045,Tarea de decisión léxica,2024.2.5,Win32,59.88023952,,,,,,,,,,,,,,,,,,,,,,,,494.4874,495.8185,l,1,0.6595,1,495.8197,496.3185,,,,,,457,MAS,WORD,DIS,150,plato,,la,,0.6595,,496.3185,496.3188,0.063333321,-0.422500038,0,0,0,,0,192,192,456,1,glaco,,,,
,,,,,,5d5496bdd84ebe0001f5fb20,676192165fb32c2e1fb7aee6,67d0cf7999003f58c0549c11,2025-03-11_17h14.57.045,Tarea de decisión léxica,2024.2.5,Win32,59.88023952,,,,,,,,,,,,,,,,,,,,,,,,496.3202,498.3848,a,1,1.3845,1,498.385,498.8847,,,,,,136,MAS,NOWORD,AGR,150,geso,,el,,1.3845,,498.8847,498.8848,0.063333321,-0.422500038,0,0,0,,0,193,193,135,1,tubo,,,,
,,,,,,5d5496bdd84ebe0001f5fb20,676192165fb32c2e1fb7aee6,67d0cf7999003f58c0549c11,2025-03-11_17h14.57.045,Tarea de decisión léxica,2024.2.5,Win32,59.88023952,,,,,,,,,,,,,,,,,,,,,,,,498.8863,500.1682,a,1,0.6003,1,500.1683,500.668,,,,,,184,FEM,NOWORD,AGR,150,raad,,la,,0.6003,,500.6693,500.6702,0.063333321,-0.422500038,0,0,0,,0,194,194,183,1,raya,,,,
,,,,,,5d5496bdd84ebe0001f5fb20,676192165fb32c2e1fb7aee6,67d0cf7999003f58c0549c11,2025-03-11_17h14.57.045,Tarea de decisión léxica,2024.2.5,Win32,59.88023952,,,,,,,,,,,,,,,,,,,,,,,,500.6711,502.3179,l,1,0.9735,1,502.3181,502.8175,,,,,,117,MAS,WORD,DIS,150,palo,,la,,0.9735,,502.8177,502.8178,0.063333321,-0.422500038,0,0,0,,0,195,195,116,1,movo,,,,
,,,,,,5d5496bdd84ebe0001f5fb20,676192165fb32c2e1fb7aee6,67d0cf7999003f58c0549c11,2025-03-11_17h14.57.045,Tarea de decisión léxica,2024.2.5,Win32,59.88023952,,,,,,,,,,,,,,,,,,,,,,,,502.8191,505.4674,,0,0.9735,-1,505.4687,505.9677,,,,,,317,FEM,WORD,DIS,150,playa,,el,,,,505.9677,505.9678,0.063333321,-0.422500038,0,0,0,,0,196,196,316,1,plaad,,,,
,,,,,,5d5496bdd84ebe0001f5fb20,676192165fb32c2e1fb7aee6,67d0cf7999003f58c0549c11,2025-03-11_17h14.57.045,Tarea de decisión léxica,2024.2.5,Win32,59.88023952,,,,,,,,,,,,,,,,,,,,,,,,505.969,507.2671,l,1,0.6287,1,507.2681,507.767,,,,,,11,MAS,WORD,AGR,150,lado,,el,,0.6287,,507.7671,507.7672,0.063333321,-0.422500038,0,0,0,,0,197,197,10,1,bapo,,,,
,,,,,,5d5496bdd84ebe0001f5fb20,676192165fb32c2e1fb7aee6,67d0cf7999003f58c0549c11,2025-03-11_17h14.57.045,Tarea de decisión léxica,2024.2.5,Win32,59.88023952,,,,,,,,,,,,,,,,,,,,,,,,507.7688,508.9837,l,1,0.5322,1,508.9838,509.4834,,,,,,201,FEM,WORD,DIS,150,cuna,,el,,0.5322,,509.4834,509.4836,0.063333321,-0.422500038,0,0,0,,0,198,198,200,1,cusa,,,,
,,,,,,5d5496bdd84ebe0001f5fb20,676192165fb32c2e1fb7aee6,67d0cf7999003f58c0549c11,2025-03-11_17h14.57.045,Tarea de decisión léxica,2024.2.5,Win32,59.88023952,,,,,,,,,,,,,,,,,,,,,,,,509.4848,510.6666,l,1,0.5005,1,510.6667,511.1669,,,,,,159,MAS,WORD,AGR,150,giro,,el,,0.5005,,511.1683,511.1691,0.063333321,-0.422500038,0,0,0,,0,199,199,158,1,bilo,,,,
,,,,,,5d5496bdd84ebe0001f5fb20,676192165fb32c2e1fb7aee6,67d0cf7999003f58c0549c11,2025-03-11_17h14.57.045,Tarea de decisión léxica,2024.2.5,Win32,59.88023952,,,,,,,,,,,,,,,,,,,,,,,,511.17,512.0998,l,0,0.2588,0,512.1008,512.6,,,,,,126,MAS,NOWORD,DIS,150,vudo,,la,,0.2588,,512.6,512.6003,0.063333321,-0.422500038,0,0,0,,0,200,200,125,1,lujo,,,,
,,,,,,5d5496bdd84ebe0001f5fb20,676192165fb32c2e1fb7aee6,67d0cf7999003f58c0549c11,2025-03-11_17h14.57.045,Tarea de decisión léxica,2024.2.5,Win32,59.88023952,,,,,,,,,,,,,,,,,,,,,,,,512.6016,513.6496,l,1,0.3673,1,513.6508,514.1499,,,,,,261,MAS,WORD,DIS,150,sitio,,la,,0.3673,,514.15,514.1501,0.063333321,-0.422500038,0,0,0,,0,201,201,260,1,titio,,,,
,,,,,,5d5496bdd84ebe0001f5fb20,676192165fb32c2e1fb7aee6,67d0cf7999003f58c0549c11,2025-03-11_17h14.57.045,Tarea de decisión léxica,2024.2.5,Win32,59.88023952,,,,,,,,,,,,,,,,,,,,,,,,514.1516,515.2829,a,1,0.4637,1,515.2829,515.7827,,,,,,182,FEM,NOWORD,DIS,150,teda,,el,,0.4637,,515.7828,515.783,0.063333321,-0.422500038,0,0,0,,0,202,202,181,1,seda,,,,
,,,,,,5d5496bdd84ebe0001f5fb20,676192165fb32c2e1fb7aee6,67d0cf7999003f58c0549c11,2025-03-11_17h14.57.045,Tarea de decisión léxica,2024.2.5,Win32,59.88023952,,,,,,,,,,,,,,,,,,,,,,,,515.7841,518.3494,a,0,1.8848,0,518.3505,518.8489,,,,,,473,FEM,WORD,DIS,150,feria,,el,,1.8848,,518.8503,518.8513,0.063333321,-0.422500038,0,0,0,,0,203,203,472,1,felia,,,,
,,,,,,5d5496bdd84ebe0001f5fb20,676192165fb32c2e1fb7aee6,67d0cf7999003f58c0549c11,2025-03-11_17h14.57.045,Tarea de decisión léxica,2024.2.5,Win32,59.88023952,,,,,,,,,,,,,,,,,,,,,,,,518.8525,520.4988,a,1,0.9777,1,520.4997,520.999,,,,,,154,MAS,NOWORD,DIS,150,tado,,la,,0.9777,,520.999,520.9992,0.063333321,-0.422500038,0,0,0,,0,204,204,153,1,pato,,,,
,,,,,,5d5496bdd84ebe0001f5fb20,676192165fb32c2e1fb7aee6,67d0cf7999003f58c0549c11,2025-03-11_17h14.57.045,Tarea de decisión léxica,2024.2.5,Win32,59.88023952,,,,,,,,,,,,,,,,,,,,,,,,521.0004,522.2153,a,1,0.536,1,522.2153,522.7154,,,,,,156,FEM,NOWORD,AGR,150,luma,,la,,0.536,,522.7154,522.7156,0.063333321,-0.422500038,0,0,0,,0,205,205,155,1,fuga,,,,
,,,,,,5d5496bdd84ebe0001f5fb20,676192165fb32c2e1fb7aee6,67d0cf7999003f58c0549c11,2025-03-11_17h14.57.045,Tarea de decisión léxica,2024.2.5,Win32,59.88023952,,,,,,,,,,,,,,,,,,,,,,,,522.7172,524.6485,l,0,1.2495,0,524.6498,525.1487,,,,,,368,MAS,NOWORD,AGR,150,rerob,,el,,1.2495,,525.1488,525.149,0.063333321,-0.422500038,0,0,0,,0,206,206,367,1,reloj,,,,
,,,,,,5d5496bdd84ebe0001f5fb20,676192165fb32c2e1fb7aee6,67d0cf7999003f58c0549c11,2025-03-11_17h14.57.045,Tarea de decisión léxica,2024.2.5,Win32,59.88023952,,,,,,,,,,,,,,,,,,,,,,,,525.1503,527.165,a,1,1.3334,1,527.166,527.6649,,,,,,22,MAS,NOWORD,DIS,150,blan,,la,,1.3334,,527.6649,527.6651,0.063333321,-0.422500038,0,0,0,,0,207,207,21,1,plan,,,,
,,,,,,5d5496bdd84ebe0001f5fb20,676192165fb32c2e1fb7aee6,67d0cf7999003f58c0549c11,2025-03-11_17h14.57.045,Tarea de decisión léxica,2024.2.5,Win32,59.88023952,,,,,,,,,,,,,,,,,,,,,,,,527.6666,529.131,a,1,0.7953,1,529.1312,529.6309,,,,,,416,FEM,NOWORD,AGR,150,juira,,la,,0.7953,,529.6325,529.6335,0.063333321,-0.422500038,0,0,0,,0,208,208,415,1,jaula,,,,
,,,,,,5d5496bdd84ebe0001f5fb20,676192165fb32c2e1fb7aee6,67d0cf7999003f58c0549c11,2025-03-11_17h14.57.045,Tarea de decisión léxica,2024.2.5,Win32,59.88023952,,,,,,,,,,,,,,,,,,,,,,,,529.6347,530.8642,l,1,0.5604,1,530.8644,531.3642,,,,,,1,FEM,WORD,DIS,150,casa,,el,,0.5604,,531.3642,531.3644,0.063333321,-0.422500038,0,0,0,,0,209,209,0,1,mada,,,,
,,,,,,5d5496bdd84ebe0001f5fb20,676192165fb32c2e1fb7aee6,67d0cf7999003f58c0549c11,2025-03-11_17h14.57.045,Tarea de decisión léxica,2024.2.5,Win32,59.88023952,,,,,,,,,,,,,,,,,,,,,,,,531.3658,532.8473,l,1,0.8079,1,532.8475,533.3471,,,,,,431,MAS,WORD,AGR,150,motor,,el,,0.8079,,533.3472,533.3473,0.063333321,-0.422500038,0,0,0,,0,210,210,430,1,tetor,,,,
,,,,,,5d5496bdd84ebe0001f5fb20,676192165fb32c2e1fb7aee6,67d0cf7999003f58c0549c11,2025-03-11_17h14.57.045,Tarea de decisión léxica,2024.2.5,Win32,59.88023952,,,,,,,,,,,,,,,,,,,,,,,,533.3488,534.514,l,1,0.4905,1,534.5141,535.0137,,,,,,185,MAS,WORD,DIS,150,baúl,,la,,0.4905,,535.0138,535.0139,0.063333321,-0.422500038,0,0,0,,0,211,211,184,1,raol,,,,
,,,,,,5d5496bdd84ebe0001f5fb20,676192165fb32c2e1fb7aee6,67d0cf7999003f58c0549c11,2025-03-11_17h14.57.045,Tarea de decisión léxica,2024.2.5,Win32,59.88023952,,,,,,,,,,,,,,,,,,,,,,,,535.0153,537.6634,,0,0.4905,-1,537.6643,538.1633,,,,,,173,FEM,WORD,DIS,150,rosa,,el,,,,538.1635,538.1636,0.063333321,-0.422500038,0,0,0,,0,212,212,172,1,boma,,,,
,,,,,,5d5496bdd84ebe0001f5fb20,676192165fb32c2e1fb7aee6,67d0cf7999003f58c0549c11,2025-03-11_17h14.57.045,Tarea de decisión léxica,2024.2.5,Win32,59.88023952,,,,,,,,,,,,,,,,,,,,,,,,538.1652,540.8129,,0,0.4905,-1,540.8131,541.3129,,,,,,363,FEM,WORD,AGR,150,deuda,,la,,,,541.3143,541.3152,0.063333321,-0.422500038,0,0,0,,0,213,213,362,1,veida,,,,
,,,,,,5d5496bdd84ebe0001f5fb20,676192165fb32c2e1fb7aee6,67d0cf7999003f58c0549c11,2025-03-11_17h14.57.045,Tarea de decisión léxica,2024.2.5,Win32,59.88023952,,,,,,,,,,,,,,,,,,,,,,,,541.3159,543.9626,,0,0.4905,-1,543.9627,544.4633,,,,,,265,FEM,WORD,DIS,150,mitad,,el,,,,544.4634,544.4636,0.063333321,-0.422500038,0,0,0,,0,214,214,264,1,pitat,,,,
,,,,,,5d5496bdd84ebe0001f5fb20,676192165fb32c2e1fb7aee6,67d0cf7999003f58c0549c11,2025-03-11_17h14.57.045,Tarea de decisión léxica,2024.2.5,Win32,59.88023952,,,,,,,,,,,,,,,,,,,,,,,,544.465,545.7792,l,1,0.6344,1,545.7803,546.2789,,,,,,385,FEM,WORD,DIS,150,letra,,el,,0.6344,,546.279,546.2791,0.063333321,-0.422500038,0,0,0,,0,215,215,384,1,febra,,,,
,,,,,,5d5496bdd84ebe0001f5fb20,676192165fb32c2e1fb7aee6,67d0cf7999003f58c0549c11,2025-03-11_17h14.57.045,Tarea de decisión léxica,2024.2.5,Win32,59.88023952,,,,,,,,,,,,,,,,,,,,,,,,546.2806,547.4458,a,1,0.484,1,547.4459,547.9461,,,,,,186,MAS,NOWORD,DIS,150,raol,,la,,0.484,,547.9462,547.9464,0.063333321,-0.422500038,0,0,0,,0,216,216,185,1,baúl,,,,
,,,,,,5d5496bdd84ebe0001f5fb20,676192165fb32c2e1fb7aee6,67d0cf7999003f58c0549c11,2025-03-11_17h14.57.045,Tarea de decisión léxica,2024.2.5,Win32,59.88023952,,,,,,,,,,,,,,,,,,,,,,,,547.9478,549.163,a,1,0.5342,1,549.1631,549.6621,,,,,,338,MAS,NOWORD,DIS,150,nuejo,,la,,0.5342,,549.6623,549.6624,0.063333321,-0.422500038,0,0,0,,0,217,217,337,1,huevo,,,,
,,,,,,5d5496bdd84ebe0001f5fb20,676192165fb32c2e1fb7aee6,67d0cf7999003f58c0549c11,2025-03-11_17h14.57.045,Tarea de decisión léxica,2024.2.5,Win32,59.88023952,,,,,,,,,,,,,,,,,,,,,,,,549.6638,550.8785,a,1,0.5342,1,550.8786,551.3785,,,,,,232,FEM,NOWORD,AGR,150,heta,,la,,0.5342,,551.3801,551.3809,0.063333321,-0.422500038,0,0,0,,0,218,218,231,1,bota,,,,
,,,,,,5d5496bdd84ebe0001f5fb20,676192165fb32c2e1fb7aee6,67d0cf7999003f58c0549c11,2025-03-11_17h14.57.045,Tarea de decisión léxica,2024.2.5,Win32,59.88023952,,,,,,,,,,,,,,,,,,,,,,,,551.3821,552.7117,l,1,0.65,1,552.7118,553.2115,,,,,,303,MAS,WORD,AGR,150,barco,,el,,0.65,,553.2115,553.2117,0.063333321,-0.422500038,0,0,0,,0,219,219,302,1,lanco,,,,
,,,,,,5d5496bdd84ebe0001f5fb20,676192165fb32c2e1fb7aee6,67d0cf7999003f58c0549c11,2025-03-11_17h14.57.045,Tarea de decisión léxica,2024.2.5,Win32,59.88023952,,,,,,,,,,,,,,,,,,,,,,,,553.213,554.9614,l,1,1.0699,1,554.9615,555.4612,,,,,,227,MAS,WORD,AGR,150,faro,,el,,1.0699,,555.4613,555.4614,0.063333321,-0.422500038,0,0,0,,0,220,220,226,1,laro,,,,
,,,,,,5d5496bdd84ebe0001f5fb20,676192165fb32c2e1fb7aee6,67d0cf7999003f58c0549c11,2025-03-11_17h14.57.045,Tarea de decisión léxica,2024.2.5,Win32,59.88023952,,,,,,,,,,,,,,,,,,,,,,,,555.4628,556.6611,a,1,0.5255,1,556.6612,557.1612,,,,,,176,FEM,NOWORD,AGR,150,hosa,,la,,0.5255,,557.1614,557.1615,0.063333321,-0.422500038,0,0,0,,0,221,221,175,1,goma,,,,
,,,,,,5d5496bdd84ebe0001f5fb20,676192165fb32c2e1fb7aee6,67d0cf7999003f58c0549c11,2025-03-11_17h14.57.045,Tarea de decisión léxica,2024.2.5,Win32,59.88023952,,,,,,,,,,,,,,,,,,,,,,,,557.1629,558.3279,a,1,0.4878,1,558.3279,558.8278,,,,,,280,FEM,NOWORD,AGR,150,grina,,la,,0.4878,,558.8279,558.828,0.063333321,-0.422500038,0,0,0,,0,222,222,279,1,prisa,,,,
,,,,,,5d5496bdd84ebe0001f5fb20,676192165fb32c2e1fb7aee6,67d0cf7999003f58c0549c11,2025-03-11_17h14.57.045,Tarea de decisión léxica,2024.2.5,Win32,59.88023952,,,,,,,,,,,,,,,,,,,,,,,,558.8293,560.3109,l,0,0.8108,0,560.312,560.8108,,,,,,2,FEM,NOWORD,DIS,150,mada,,el,,0.8108,,560.8123,560.813,0.063333321,-0.422500038,0,0,0,,0,223,223,1,1,casa,,,,
,,,,,,5d5496bdd84ebe0001f5fb20,676192165fb32c2e1fb7aee6,67d0cf7999003f58c0549c11,2025-03-11_17h14.57.045,Tarea de decisión léxica,2024.2.5,Win32,59.88023952,,,,,,,,,,,,,,,,,,,,,,,,560.8139,561.8438,l,1,0.3566,1,561.8449,562.3439,,,,,,405,FEM,WORD,DIS,150,barra,,el,,0.3566,,562.344,562.3442,0.063333321,-0.422500038,0,0,0,,0,224,224,404,1,rarra,,,,
,,,,,,5d5496bdd84ebe0001f5fb20,676192165fb32c2e1fb7aee6,67d0cf7999003f58c0549c11,2025-03-11_17h14.57.045,Tarea de decisión léxica,2024.2.5,Win32,59.88023952,,,,,,,,,,,,,,,,,,,,,,,,562.3455,564.9935,,0,0.3566,-1,564.9946,565.4937,,,,,,24,FEM,NOWORD,AGR,150,giva,,la,,,,565.4938,565.4939,0.063333321,-0.422500038,0,0,0,,0,225,225,23,1,hija,,,,
,,,,,,5d5496bdd84ebe0001f5fb20,676192165fb32c2e1fb7aee6,67d0cf7999003f58c0549c11,2025-03-11_17h14.57.045,Tarea de decisión léxica,2024.2.5,Win32,59.88023952,,,,,,,,,,,,,,,,,,,,,,,,565.4952,566.6265,l,1,0.4498,1,566.6275,567.1264,,,,,,199,MAS,WORD,AGR,150,lazo,,el,,0.4498,,567.1264,567.1267,0.063333321,-0.422500038,0,0,0,,0,226,226,198,1,fano,,,,
,,,,,,5d5496bdd84ebe0001f5fb20,676192165fb32c2e1fb7aee6,67d0cf7999003f58c0549c11,2025-03-11_17h14.57.045,Tarea de decisión léxica,2024.2.5,Win32,59.88023952,,,,,,,,,,,,,,,,,,,,,,,,567.128,569.7763,,0,0.4498,-1,569.7773,570.2762,,,,,,274,FEM,NOWORD,DIS,150,frosa,,el,,,,570.2779,570.2787,0.063333321,-0.422500038,0,0,0,,0,227,227,273,1,broma,,,,
,,,,,,5d5496bdd84ebe0001f5fb20,676192165fb32c2e1fb7aee6,67d0cf7999003f58c0549c11,2025-03-11_17h14.57.045,Tarea de decisión léxica,2024.2.5,Win32,59.88023952,,,,,,,,,,,,,,,,,,,,,,,,570.2798,572.2592,l,1,1.3121,1,572.2603,572.7591,,,,,,283,MAS,WORD,AGR,150,sueño,,el,,1.3121,,572.7592,572.7593,0.063333321,-0.422500038,0,0,0,,0,228,228,282,1,tuevo,,,,
,,,,,,5d5496bdd84ebe0001f5fb20,676192165fb32c2e1fb7aee6,67d0cf7999003f58c0549c11,2025-03-11_17h14.57.045,Tarea de decisión léxica,2024.2.5,Win32,59.88023952,,,,,,,,,,,,,,,,,,,,,,,,572.7606,573.8426,l,1,0.4044,1,573.8427,574.3424,,,,,,213,FEM,WORD,DIS,150,rama,,el,,0.4044,,574.3425,574.3426,0.063333321,-0.422500038,0,0,0,,0,229,229,212,1,bana,,,,
,,,,,,5d5496bdd84ebe0001f5fb20,676192165fb32c2e1fb7aee6,67d0cf7999003f58c0549c11,2025-03-11_17h14.57.045,Tarea de decisión léxica,2024.2.5,Win32,59.88023952,,,,,,,,,,,,,,,,,,,,,,,,574.3441,575.4425,l,1,0.4224,1,575.4426,575.9424,,,,,,391,MAS,WORD,AGR,150,dueño,,el,,0.4224,,575.9425,575.9426,0.063333321,-0.422500038,0,0,0,,0,230,230,390,1,dievo,,,,
,,,,,,5d5496bdd84ebe0001f5fb20,676192165fb32c2e1fb7aee6,67d0cf7999003f58c0549c11,2025-03-11_17h14.57.045,Tarea de decisión léxica,2024.2.5,Win32,59.88023952,,,,,,,,,,,,,,,,,,,,,,,,575.9438,576.9919,l,1,0.3672,1,576.992,577.4925,,,,,,21,MAS,WORD,DIS,150,plan,,la,,0.3672,,577.4926,577.4927,0.063333321,-0.422500038,0,0,0,,0,231,231,20,1,blan,,,,
,,,,,,5d5496bdd84ebe0001f5fb20,676192165fb32c2e1fb7aee6,67d0cf7999003f58c0549c11,2025-03-11_17h14.57.045,Tarea de decisión léxica,2024.2.5,Win32,59.88023952,,,,,,,,,,,,,,,,,,,,,,,,577.4939,580.1417,,0,0.3672,-1,580.1428,580.6413,,,,,,302,FEM,NOWORD,DIS,150,ranga,,el,,,,580.6424,580.6432,0.063333321,-0.422500038,0,0,0,,0,232,232,301,1,banda,,,,
,,,,,,5d5496bdd84ebe0001f5fb20,676192165fb32c2e1fb7aee6,67d0cf7999003f58c0549c11,2025-03-11_17h14.57.045,Tarea de decisión léxica,2024.2.5,Win32,59.88023952,,,,,,,,,,,,,,,,,,,,,,,,580.644,583.2914,,0,0.3672,-1,583.2915,583.7918,,,,,,179,MAS,WORD,AGR,150,toro,,el,,,,583.7918,583.7919,0.063333321,-0.422500038,0,0,0,,0,233,233,178,1,sono,,,,
,,,,,,5d5496bdd84ebe0001f5fb20,676192165fb32c2e1fb7aee6,67d0cf7999003f58c0549c11,2025-03-11_17h14.57.045,Tarea de decisión léxica,2024.2.5,Win32,59.88023952,,,,,,,,,,,,,,,,,,,,,,,,583.7934,586.0075,l,1,1.5339,1,586.0086,586.5073,,,,,,13,FEM,WORD,DIS,150,hora,,el,,1.5339,,586.5074,586.5076,0.063333321,-0.422500038,0,0,0,,0,234,234,12,1,nola,,,,
,,,,,,5d5496bdd84ebe0001f5fb20,676192165fb32c2e1fb7aee6,67d0cf7999003f58c0549c11,2025-03-11_17h14.57.045,Tarea de decisión léxica,2024.2.5,Win32,59.88023952,,,,,,,,,,,,,,,,,,,,,,,,586.5088,587.5576,l,1,0.3743,1,587.5578,588.0572,,,,,,113,FEM,WORD,DIS,150,miel,,el,,0.3743,,588.0572,588.0573,0.063333321,-0.422500038,0,0,0,,0,235,235,112,1,tada,,,,
,,,,,,5d5496bdd84ebe0001f5fb20,676192165fb32c2e1fb7aee6,67d0cf7999003f58c0549c11,2025-03-11_17h14.57.045,Tarea de decisión léxica,2024.2.5,Win32,59.88023952,,,,,,,,,,,,,,,,,,,,,,,,588.0585,589.0741,l,1,0.3407,1,589.0742,589.5739,,,,,,281,MAS,WORD,DIS,150,cielo,,la,,0.3407,,589.574,589.5741,0.063333321,-0.422500038,0,0,0,,0,236,236,280,1,cauro,,,,
,,,,,,5d5496bdd84ebe0001f5fb20,676192165fb32c2e1fb7aee6,67d0cf7999003f58c0549c11,2025-03-11_17h14.57.045,Tarea de decisión léxica,2024.2.5,Win32,59.88023952,,,,,,,,,,,,,,,,,,,,,,,,589.5755,590.6571,l,1,0.4051,1,590.6573,591.1573,,,,,,343,FEM,WORD,AGR,150,plata,,la,,0.4051,,591.1586,591.1598,0.063333321,-0.422500038,0,0,0,,0,237,237,342,1,trada,,,,
,,,,,,5d5496bdd84ebe0001f5fb20,676192165fb32c2e1fb7aee6,67d0cf7999003f58c0549c11,2025-03-11_17h14.57.045,Tarea de decisión léxica,2024.2.5,Win32,59.88023952,,,,,,,,,,,,,,,,,,,,,,,,591.1607,592.5734,l,0,0.742,0,592.5745,593.0734,,,,,,68,FEM,NOWORD,AGR,150,gesa,,la,,0.742,,593.0735,593.0736,0.063333321,-0.422500038,0,0,0,,0,238,238,67,1,nena,,,,
,,,,,,5d5496bdd84ebe0001f5fb20,676192165fb32c2e1fb7aee6,67d0cf7999003f58c0549c11,2025-03-11_17h14.57.045,Tarea de decisión léxica,2024.2.5,Win32,59.88023952,,,,,,,,,,,,,,,,,,,,,,,,593.075,594.2566,a,1,0.5006,1,594.2579,594.7563,,,,,,424,MAS,NOWORD,AGR,150,quigo,,el,,0.5006,,594.7564,594.7565,0.063333321,-0.422500038,0,0,0,,0,239,239,423,1,queso,,,,
,,,,,,5d5496bdd84ebe0001f5fb20,676192165fb32c2e1fb7aee6,67d0cf7999003f58c0549c11,2025-03-11_17h14.57.045,Tarea de decisión léxica,2024.2.5,Win32,59.88023952,,,,,,,,,,,,,,,,,,,,,,,,594.758,595.8066,a,1,0.3678,1,595.8066,596.3065,,,,,,272,FEM,NOWORD,AGR,150,refal,,la,,0.3678,,596.3066,596.3067,0.063333321,-0.422500038,0,0,0,,0,240,240,271,1,señal,,,,
,,,,,,5d5496bdd84ebe0001f5fb20,676192165fb32c2e1fb7aee6,67d0cf7999003f58c0549c11,2025-03-11_17h14.57.045,Tarea de decisión léxica,2024.2.5,Win32,59.88023952,,,,,,,,,,,,,,,,,,,,,,,,596.3079,597.7403,l,1,0.7552,1,597.7403,598.2398,,,,,,369,MAS,WORD,DIS,150,ruido,,la,,0.7552,,598.2399,598.2401,0.063333321,-0.422500038,0,0,0,,0,241,241,368,1,rioco,,,,
,,,,,,5d5496bdd84ebe0001f5fb20,676192165fb32c2e1fb7aee6,67d0cf7999003f58c0549c11,2025-03-11_17h14.57.045,Tarea de decisión léxica,2024.2.5,Win32,59.88023952,,,,,,,,,,,,,,,,,,,,,,,,598.2417,599.3062,l,1,0.3883,1,599.3063,599.806,,,,,,337,MAS,WORD,DIS,150,huevo,,la,,0.3883,,599.8074,599.8082,0.063333321,-0.422500038,0,0,0,,0,242,242,336,1,nuejo,,,,
,,,,,,5d5496bdd84ebe0001f5fb20,676192165fb32c2e1fb7aee6,67d0cf7999003f58c0549c11,2025-03-11_17h14.57.045,Tarea de decisión léxica,2024.2.5,Win32,59.88023952,,,,,,,,,,,,,,,,,,,,,,,,599.809,601.239,l,1,0.7548,1,601.2391,601.7389,,,,,,139,MAS,WORD,AGR,150,mago,,el,,0.7548,,601.7389,601.7391,0.063333321,-0.422500038,0,0,0,,0,243,243,138,1,nila,,,,
,,,,,,5d5496bdd84ebe0001f5fb20,676192165fb32c2e1fb7aee6,67d0cf7999003f58c0549c11,2025-03-11_17h14.57.045,Tarea de decisión léxica,2024.2.5,Win32,59.88023952,,,,,,,,,,,,,,,,,,,,,,,,601.7404,604.3893,,0,0.7548,-1,604.3907,604.8891,,,,,,453,FEM,WORD,DIS,150,mafia,,el,,,,604.8892,604.8895,0.063333321,-0.422500038,0,0,0,,0,244,244,452,1,pafia,,,,
,,,,,,5d5496bdd84ebe0001f5fb20,676192165fb32c2e1fb7aee6,67d0cf7999003f58c0549c11,2025-03-11_17h14.57.045,Tarea de decisión léxica,2024.2.5,Win32,59.88023952,,,,,,,,,,,,,,,,,,,,,,,,604.891,606.6218,l,0,1.0603,0,606.623,607.1216,,,,,,148,FEM,NOWORD,AGR,150,pama,,la,,1.0603,,607.1216,607.1218,0.063333321,-0.422500038,0,0,0,,0,245,245,147,1,hoja,,,,
,,,,,,5d5496bdd84ebe0001f5fb20,676192165fb32c2e1fb7aee6,67d0cf7999003f58c0549c11,2025-03-11_17h14.57.045,Tarea de decisión léxica,2024.2.5,Win32,59.88023952,,,,,,,,,,,,,,,,,,,,,,,,607.1234,608.1718,l,1,0.3698,1,608.1734,608.6714,,,,,,463,FEM,WORD,AGR,150,cabra,,la,,0.3698,,608.6714,608.6716,0.063333321,-0.422500038,0,0,0,,0,246,246,462,1,matla,,,,
,,,,,,5d5496bdd84ebe0001f5fb20,676192165fb32c2e1fb7aee6,67d0cf7999003f58c0549c11,2025-03-11_17h14.57.045,Tarea de decisión léxica,2024.2.5,Win32,59.88023952,,,,,,,,,,,,,,,,,,,,,,,,608.6727,609.888,a,1,0.5386,1,609.8881,610.3885,,,,,,376,FEM,NOWORD,AGR,150,sasna,,la,,0.5386,,610.39,610.391,0.063333321,-0.422500038,0,0,0,,0,247,247,375,1,salsa,,,,
,,,,,,5d5496bdd84ebe0001f5fb20,676192165fb32c2e1fb7aee6,67d0cf7999003f58c0549c11,2025-03-11_17h14.57.045,Tarea de decisión léxica,2024.2.5,Win32,59.88023952,,,,,,,,,,,,,,,,,,,,,,,,610.3924,611.6711,a,1,0.6111,1,611.6712,612.1713,,,,,,434,MAS,NOWORD,DIS,150,durco,,la,,0.6111,,612.1713,612.1715,0.063333321,-0.422500038,0,0,0,,0,248,248,433,1,disco,,,,
,,,,,,5d5496bdd84ebe0001f5fb20,676192165fb32c2e1fb7aee6,67d0cf7999003f58c0549c11,2025-03-11_17h14.57.045,Tarea de decisión léxica,2024.2.5,Win32,59.88023952,,,,,,,,,,,,,,,,,,,,,,,,612.1726,613.4874,a,1,0.6442,1,613.4876,613.9876,,,,,,412,MAS,NOWORD,AGR,150,mobro,,el,,0.6442,,613.9877,613.9878,0.063333321,-0.422500038,0,0,0,,0,249,249,411,1,pollo,,,,
,,,,,,5d5496bdd84ebe0001f5fb20,676192165fb32c2e1fb7aee6,67d0cf7999003f58c0549c11,2025-03-11_17h14.57.045,Tarea de decisión léxica,2024.2.5,Win32,59.88023952,,,,,,,,,,,,,,,,,,,,,,,,613.9893,615.021,l,1,0.3504,1,615.0212,615.5208,,,,,,325,FEM,WORD,DIS,150,magia,,el,,0.3504,,615.5208,615.521,0.063333321,-0.422500038,0,0,0,,0,250,250,324,1,mabia,,,,
,,,,,,5d5496bdd84ebe0001f5fb20,676192165fb32c2e1fb7aee6,67d0cf7999003f58c0549c11,2025-03-11_17h14.57.045,Tarea de decisión léxica,2024.2.5,Win32,59.88023952,,,,,,,,,,,,,,,,,,,,,,,,615.5223,616.6374,a,1,0.4398,1,616.6374,617.1372,,,,,,88,MAS,NOWORD,AGR,150,damo,,el,,0.4398,,617.1388,617.1395,0.063333321,-0.422500038,0,0,0,,0,251,251,87,1,vaso,,,,
,,,,,,5d5496bdd84ebe0001f5fb20,676192165fb32c2e1fb7aee6,67d0cf7999003f58c0549c11,2025-03-11_17h14.57.045,Tarea de decisión léxica,2024.2.5,Win32,59.88023952,,,,,,,,,,,,,,,,,,,,,,,,617.1404,618.3702,a,1,0.5535,1,618.3703,618.8702,,,,,,442,FEM,NOWORD,DIS,150,telza,,el,,0.5535,,618.8703,618.8705,0.063333321,-0.422500038,0,0,0,,0,252,252,441,1,selva,,,,
,,,,,,5d5496bdd84ebe0001f5fb20,676192165fb32c2e1fb7aee6,67d0cf7999003f58c0549c11,2025-03-11_17h14.57.045,Tarea de decisión léxica,2024.2.5,Win32,59.88023952,,,,,,,,,,,,,,,,,,,,,,,,618.8719,620.387,l,1,0.8335,1,620.3871,620.8867,,,,,,295,MAS,WORD,AGR,150,dolor,,el,,0.8335,,620.8867,620.8868,0.063333321,-0.422500038,0,0,0,,0,253,253,294,1,goler,,,,
,,,,,,5d5496bdd84ebe0001f5fb20,676192165fb32c2e1fb7aee6,67d0cf7999003f58c0549c11,2025-03-11_17h14.57.045,Tarea de decisión léxica,2024.2.5,Win32,59.88023952,,,,,,,,,,,,,,,,,,,,,,,,620.8883,622.2369,a,1,0.6709,1,622.237,622.7363,,,,,,214,FEM,NOWORD,DIS,150,bana,,el,,0.6709,,622.7363,622.7366,0.063333321,-0.422500038,0,0,0,,0,254,254,213,1,rama,,,,
,,,,,,5d5496bdd84ebe0001f5fb20,676192165fb32c2e1fb7aee6,67d0cf7999003f58c0549c11,2025-03-11_17h14.57.045,Tarea de decisión léxica,2024.2.5,Win32,59.88023952,,,,,,,,,,,,,,,,,,,,,,,,622.7381,624.1196,a,1,0.7042,1,624.1198,624.6194,,,,,,362,FEM,NOWORD,DIS,150,solle,,el,,0.7042,,624.6194,624.6195,0.063333321,-0.422500038,0,0,0,,0,255,255,361,1,torre,,,,
,,,,,,5d5496bdd84ebe0001f5fb20,676192165fb32c2e1fb7aee6,67d0cf7999003f58c0549c11,2025-03-11_17h14.57.045,Tarea de decisión léxica,2024.2.5,Win32,59.88023952,,,,,,,,,,,,,,,,,,,,,,,,624.6207,626.1529,a,1,0.8526,1,626.153,626.6529,,,,,,192,FEM,NOWORD,AGR,150,bila,,la,,0.8526,,626.6545,626.6554,0.063333321,-0.422500038,0,0,0,,0,256,256,191,1,pila,,,,
,,,,,,5d5496bdd84ebe0001f5fb20,676192165fb32c2e1fb7aee6,67d0cf7999003f58c0549c11,2025-03-11_17h14.57.045,Tarea de decisión léxica,2024.2.5,Win32,59.88023952,,,,,,,,,,,,,,,,,,,,,,,,626.6565,627.9194,l,1,0.5838,1,627.9195,628.4189,,,,,,23,FEM,WORD,AGR,150,hija,,la,,0.5838,,628.419,628.4192,0.063333321,-0.422500038,0,0,0,,0,257,257,22,1,giva,,,,
,,,,,,5d5496bdd84ebe0001f5fb20,676192165fb32c2e1fb7aee6,67d0cf7999003f58c0549c11,2025-03-11_17h14.57.045,Tarea de decisión léxica,2024.2.5,Win32,59.88023952,,,,,,,,,,,,,,,,,,,,,,,,628.4203,631.0686,,0,0.5838,-1,631.0697,631.5688,,,,,,340,MAS,NOWORD,AGR,150,plajo,,el,,,,631.5689,631.5691,0.063333321,-0.422500038,0,0,0,,0,258,258,339,1,brazo,,,,
,,,,,,5d5496bdd84ebe0001f5fb20,676192165fb32c2e1fb7aee6,67d0cf7999003f58c0549c11,2025-03-11_17h14.57.045,Tarea de decisión léxica,2024.2.5,Win32,59.88023952,,,,,,,,,,,,,,,,,,,,,,,,631.5704,633.2519,l,0,1.0098,0,633.253,633.7519,,,,,,392,MAS,NOWORD,AGR,150,dievo,,el,,1.0098,,633.752,633.7522,0.063333321,-0.422500038,0,0,0,,0,259,259,391,1,dueño,,,,
,,,,,,5d5496bdd84ebe0001f5fb20,676192165fb32c2e1fb7aee6,67d0cf7999003f58c0549c11,2025-03-11_17h14.57.045,Tarea de decisión léxica,2024.2.5,Win32,59.88023952,,,,,,,,,,,,,,,,,,,,,,,,633.7533,635.0852,l,1,0.6516,1,635.0862,635.5852,,,,,,257,FEM,WORD,DIS,150,amiga,,el,,0.6516,,635.5853,635.5855,0.063333321,-0.422500038,0,0,0,,0,260,260,256,1,asama,,,,
,,,,,,5d5496bdd84ebe0001f5fb20,676192165fb32c2e1fb7aee6,67d0cf7999003f58c0549c11,2025-03-11_17h14.57.045,Tarea de decisión léxica,2024.2.5,Win32,59.88023952,,,,,,,,,,,,,,,,,,,,,,,,635.5868,636.6013,l,1,0.3418,1,636.6014,637.1015,,,,,,187,MAS,WORD,AGR,150,mito,,el,,0.3418,,637.1029,637.1041,0.063333321,-0.422500038,0,0,0,,0,261,261,186,1,suto,,,,
,,,,,,5d5496bdd84ebe0001f5fb20,676192165fb32c2e1fb7aee6,67d0cf7999003f58c0549c11,2025-03-11_17h14.57.045,Tarea de decisión léxica,2024.2.5,Win32,59.88023952,,,,,,,,,,,,,,,,,,,,,,,,637.1053,638.0845,l,1,0.3119,1,638.0847,638.5844,,,,,,125,MAS,WORD,DIS,150,lujo,,la,,0.3119,,638.5845,638.5846,0.063333321,-0.422500038,0,0,0,,0,262,262,124,1,vudo,,,,
