counterbalancing_condition,consent_prescreening.block_1/declare_consent,consent_prescreening.block_1/age_years,consent_prescreening.block_1/gender,consent_prescreening.block_1/language_disorder,consent_prescreening.block_1/first_language,PROLIFIC_PID,STUDY_ID,SESSION_ID,date,expName,psychopyVersion,OS,frameRate,check_prescreening_answers.started,check_prescreening_answers.stopped,Instructions.started,Instructions.stopped,instr_done_keyboard.keys,instr_done_keyboard.rt,instr_done_keyboard.duration,instr_done_touch.x,instr_done_touch.y,instr_done_touch.leftButton,instr_done_touch.midButton,instr_done_touch.rightButton,instruction_pages.thisRepN,instruction_pages.thisTrialN,instruction_pages.thisN,instruction_pages.thisIndex,instruction_pages.ran,pageN,phase,instruct_text,has_image,instruct_image,presentTrial.started,presentTrial.stopped,response.keys,response.corr,rt,corr,feedback.started,feedback.stopped,practice_trials.thisRepN,practice_trials.thisTrialN,practice_trials.thisN,practice_trials.thisIndex,practice_trials.ran,TrialID,Gender,StimulusType,Condition,PrimeDuration,Prime,len,Flanker,corrAns,response.rt,response.duration,Break.started,Break.stopped,break_done_touch.x,break_done_touch.y,break_done_touch.leftButton,break_done_touch.midButton,break_done_touch.rightButton,break_done_keyboard.keys,experiment_trials.thisRepN,experiment_trials.thisTrialN,experiment_trials.thisN,experiment_trials.thisIndex,experiment_trials.ran,PairedWith,break_done_keyboard.rt,break_done_keyboard.duration,break_done_touch.clicked_name,End.started,End.stopped
3,"[""over_18"",""comfortable"",""read_info"",""consent_given""]",25,M,"[""none""]","[""spanish""]",5d936374253d0a0017f32d96,676192165fb32c2e1fb7aee6,67d1ab7be052c53961de06c7,2025-03-12_16h43.26.413,Tarea de decisión léxica,2024.2.5,Win32,60.0240096,,,,,,,,,,,,,,,,,,,,,,,,,,,,,,,,,,,,,,,,,,,,,,,,,,,,,,,,,,,,,,,,,
,,,,,,5d936374253d0a0017f32d96,676192165fb32c2e1fb7aee6,67d1ab7be052c53961de06c7,2025-03-12_16h43.26.413,Tarea de decisión léxica,2024.2.5,Win32,60.0240096,27.053,27.053,,,,,,,,,,,,,,,,,,,,,,,,,,,,,,,,,,,,,,,,,,,,,,,,,,,,,,,,,,,,,,,
,,,,,,5d936374253d0a0017f32d96,676192165fb32c2e1fb7aee6,67d1ab7be052c53961de06c7,2025-03-12_16h43.26.413,Tarea de decisión léxica,2024.2.5,Win32,60.0240096,,,27.069,30.624,space,3.488,,0.20462963,-0.096296296,0,0,0,0,0,0,0,1,1,instructions,"INSTRUCCIONES
Va a realizar una prueba de decisión léxica. Desde el comienzo de la prueba mire siempre al centro de la pantalla. Se presentará una serie de cadenas de letras, una a la vez, en la pantalla. Su tarea consiste en determinar si cada cadena de letras constituye una palabra real en español o una no-palabra (una secuencia de letras que no constituye una palabra real). 

Pulse la tecla ESPACIO para continuar.",0,keyboardresponseWN.png,,,,,,,,,,,,,,,,,,,,,,,,,,,,,,,,,,,,,,,,,,,
,,,,,,5d936374253d0a0017f32d96,676192165fb32c2e1fb7aee6,67d1ab7be052c53961de06c7,2025-03-12_16h43.26.413,Tarea de decisión léxica,2024.2.5,Win32,60.0240096,,,30.631,51.486,space,20.817,,0.321296296,-0.141666667,0,0,0,0,1,1,1,1,2,instructions,"El procedimiento es el siguiente: Aparecerán dos barras verticales posicionadas en el centro de la pantalla, separadas por un pequeño espacio.Por favor, enfoque su atención en el espacio entre las barras. Esto preparará sus ojos para la siguiente cadena de letras, que aparecerá entre las dos barras durante un instante.

Pulse la tecla ESPACIO para continuar.",0,keyboardresponseWN.png,,,,,,,,,,,,,,,,,,,,,,,,,,,,,,,,,,,,,,,,,,,
,,,,,,5d936374253d0a0017f32d96,676192165fb32c2e1fb7aee6,67d1ab7be052c53961de06c7,2025-03-12_16h43.26.413,Tarea de decisión léxica,2024.2.5,Win32,60.0240096,,,51.49,56.253,space,4.713,,0.321296296,-0.141666667,0,0,0,0,2,2,2,1,3,instructions,"En el teclado de su dispositivo, pulse la tecla ""A"" si la cadena de letras es una palabra real en español (por ejemplo: ""mano"") y la tecla ""L"" si la cadena de letras es una no-palabra (por ejemplo: ""minu"").
Pulse la tecla ESPACIO para continuar.",1,keyboardresponseWN.png,,,,,,,,,,,,,,,,,,,,,,,,,,,,,,,,,,,,,,,,,,,
,,,,,,5d936374253d0a0017f32d96,676192165fb32c2e1fb7aee6,67d1ab7be052c53961de06c7,2025-03-12_16h43.26.413,Tarea de decisión léxica,2024.2.5,Win32,60.0240096,,,56.259,61.838,space,5.536,,0.321296296,-0.141666667,0,0,0,0,3,3,3,1,4,instructions,"Es muy importante que responda con la mayor rapidez y precisión posibles. Si no responde dentro de 2 segundos, aparecerá el mensaje ""Muy lento"" y el experimento pasará a la siguiente palabra. Inmediatamente después de su respuesta se indicará si fue correcta o no. Los primeros 15 intentos serán de práctica y habrá dos descansos durante la prueba.

Pulse la tecla ESPACIO  para iniciar la parte de práctica.",0,keyboardresponseWN.png,,,,,,,,,,,,,,,,,,,,,,,,,,,,,,,,,,,,,,,,,,,
,,,,,,5d936374253d0a0017f32d96,676192165fb32c2e1fb7aee6,67d1ab7be052c53961de06c7,2025-03-12_16h43.26.413,Tarea de decisión léxica,2024.2.5,Win32,60.0240096,,,,,,,,,,,,,,,,,,,,,,,61.869,64.52,,0,,-1,64.522,65.02,0,0,0,6,1,1007,MAS,WORD,DIS,150,masa,4,la,l,,,,,,,,,,,,,,,,,,,,,
,,,,,,5d936374253d0a0017f32d96,676192165fb32c2e1fb7aee6,67d1ab7be052c53961de06c7,2025-03-12_16h43.26.413,Tarea de decisión léxica,2024.2.5,Win32,60.0240096,,,,,,,,,,,,,,,,,,,,,,,65.023,66.87,l,1,1.17,1,66.878,67.37,0,1,1,1,1,1002,FEM,NOWORD,DIS,150,mabo,4,el,a,1.17,,,,,,,,,,,,,,,,,,,,
,,,,,,5d936374253d0a0017f32d96,676192165fb32c2e1fb7aee6,67d1ab7be052c53961de06c7,2025-03-12_16h43.26.413,Tarea de decisión léxica,2024.2.5,Win32,60.0240096,,,,,,,,,,,,,,,,,,,,,,,67.372,69.303,l,0,1.247,0,69.305,69.803,0,2,2,9,1,1010,MAS,WORD,DIS,150,video,5,la,l,1.247,,,,,,,,,,,,,,,,,,,,
,,,,,,5d936374253d0a0017f32d96,676192165fb32c2e1fb7aee6,67d1ab7be052c53961de06c7,2025-03-12_16h43.26.413,Tarea de decisión léxica,2024.2.5,Win32,60.0240096,,,,,,,,,,,,,,,,,,,,,,,69.804,71.153,l,1,0.671,1,71.154,71.653,0,3,3,2,1,1003,FEM,NOWORD,DIS,150,muvor,5,el,a,0.671,,,,,,,,,,,,,,,,,,,,
,,,,,,5d936374253d0a0017f32d96,676192165fb32c2e1fb7aee6,67d1ab7be052c53961de06c7,2025-03-12_16h43.26.413,Tarea de decisión léxica,2024.2.5,Win32,60.0240096,,,,,,,,,,,,,,,,,,,,,,,71.655,73.62,a,1,1.284,1,73.621,74.12,0,4,4,8,1,1009,FEM,WORD,AGR,150,viejo,5,la,l,1.284,,,,,,,,,,,,,,,,,,,,
,,,,,,5d936374253d0a0017f32d96,676192165fb32c2e1fb7aee6,67d1ab7be052c53961de06c7,2025-03-12_16h43.26.413,Tarea de decisión léxica,2024.2.5,Win32,60.0240096,,,,,,,,,,,,,,,,,,,,,,,74.127,75.42,l,1,0.616,1,75.42,75.92,0,5,5,3,1,1004,FEM,NOWORD,AGR,150,bireo,5,la,a,0.616,,,,,,,,,,,,,,,,,,,,
,,,,,,5d936374253d0a0017f32d96,676192165fb32c2e1fb7aee6,67d1ab7be052c53961de06c7,2025-03-12_16h43.26.413,Tarea de decisión léxica,2024.2.5,Win32,60.0240096,,,,,,,,,,,,,,,,,,,,,,,75.924,77.536,l,1,0.936,1,77.538,78.036,0,6,6,4,1,1005,MAS,NOWORD,DIS,150,nobad,5,la,a,0.936,,,,,,,,,,,,,,,,,,,,
,,,,,,5d936374253d0a0017f32d96,676192165fb32c2e1fb7aee6,67d1ab7be052c53961de06c7,2025-03-12_16h43.26.413,Tarea de decisión léxica,2024.2.5,Win32,60.0240096,,,,,,,,,,,,,,,,,,,,,,,78.037,79.237,l,1,0.52,1,79.237,79.736,0,7,7,0,1,1001,FEM,NOWORD,AGR,150,croz,4,la,a,0.52,,,,,,,,,,,,,,,,,,,,
,,,,,,5d936374253d0a0017f32d96,676192165fb32c2e1fb7aee6,67d1ab7be052c53961de06c7,2025-03-12_16h43.26.413,Tarea de decisión léxica,2024.2.5,Win32,60.0240096,,,,,,,,,,,,,,,,,,,,,,,79.737,80.786,a,1,0.387,1,80.786,81.286,0,8,8,5,1,1006,FEM,WORD,AGR,150,cara,4,la,l,0.387,,,,,,,,,,,,,,,,,,,,
,,,,,,5d936374253d0a0017f32d96,676192165fb32c2e1fb7aee6,67d1ab7be052c53961de06c7,2025-03-12_16h43.26.413,Tarea de decisión léxica,2024.2.5,Win32,60.0240096,,,,,,,,,,,,,,,,,,,,,,,81.288,82.353,a,1,0.385,1,82.354,82.853,0,9,9,7,1,1008,MAS,WORD,DIS,150,frío,4,la,l,0.385,,,,,,,,,,,,,,,,,,,,
,,,,,,5d936374253d0a0017f32d96,676192165fb32c2e1fb7aee6,67d1ab7be052c53961de06c7,2025-03-12_16h43.26.413,Tarea de decisión léxica,2024.2.5,Win32,60.0240096,,,107.042,109.302,space,2.232,,0.321296296,-0.141666667,0,0,0,,,,,,,,,,,109.395,110.586,a,1,0.518,1,110.588,111.086,,,,,,173,FEM,WORD,AGR,150,rosa,,la,,0.518,,111.086,111.094,0.321296296,-0.141666667,0,0,0,,0,0,0,172,1,boma,,,,,
,,,,,,5d936374253d0a0017f32d96,676192165fb32c2e1fb7aee6,67d1ab7be052c53961de06c7,2025-03-12_16h43.26.413,Tarea de decisión léxica,2024.2.5,Win32,60.0240096,,,,,,,,,,,,,,,,,,,,,,,111.096,112.302,l,1,0.536,1,112.304,112.803,,,,,,160,MAS,NOWORD,DIS,150,bilo,,la,,0.536,,112.803,112.803,0.321296296,-0.141666667,0,0,0,,0,1,1,159,1,giro,,,,,
,,,,,,5d936374253d0a0017f32d96,676192165fb32c2e1fb7aee6,67d1ab7be052c53961de06c7,2025-03-12_16h43.26.413,Tarea de decisión léxica,2024.2.5,Win32,60.0240096,,,,,,,,,,,,,,,,,,,,,,,112.805,113.935,l,1,0.451,1,113.935,114.436,,,,,,340,MAS,NOWORD,DIS,150,plajo,,la,,0.451,,114.438,114.441,0.321296296,-0.141666667,0,0,0,,0,2,2,339,1,brazo,,,,,
,,,,,,5d936374253d0a0017f32d96,676192165fb32c2e1fb7aee6,67d1ab7be052c53961de06c7,2025-03-12_16h43.26.413,Tarea de decisión léxica,2024.2.5,Win32,60.0240096,,,,,,,,,,,,,,,,,,,,,,,114.443,115.436,a,1,0.32,1,115.437,115.936,,,,,,451,FEM,WORD,DIS,150,fruta,,el,,0.32,,115.936,115.936,0.321296296,-0.141666667,0,0,0,,0,3,3,450,1,clita,,,,,
,,,,,,5d936374253d0a0017f32d96,676192165fb32c2e1fb7aee6,67d1ab7be052c53961de06c7,2025-03-12_16h43.26.413,Tarea de decisión léxica,2024.2.5,Win32,60.0240096,,,,,,,,,,,,,,,,,,,,,,,115.94,116.936,a,1,0.32,1,116.937,117.436,,,,,,79,FEM,WORD,DIS,150,piel,,el,,0.32,,117.437,117.437,0.321296296,-0.141666667,0,0,0,,0,4,4,78,1,ciel,,,,,
,,,,,,5d936374253d0a0017f32d96,676192165fb32c2e1fb7aee6,67d1ab7be052c53961de06c7,2025-03-12_16h43.26.413,Tarea de decisión léxica,2024.2.5,Win32,60.0240096,,,,,,,,,,,,,,,,,,,,,,,117.439,118.42,l,1,0.3,1,118.421,118.92,,,,,,294,MAS,NOWORD,AGR,150,cacso,,el,,0.3,,118.92,118.92,0.321296296,-0.141666667,0,0,0,,0,5,5,293,1,campo,,,,,
,,,,,,5d936374253d0a0017f32d96,676192165fb32c2e1fb7aee6,67d1ab7be052c53961de06c7,2025-03-12_16h43.26.413,Tarea de decisión léxica,2024.2.5,Win32,60.0240096,,,,,,,,,,,,,,,,,,,,,,,118.921,119.935,l,1,0.336,1,119.936,120.436,,,,,,70,FEM,NOWORD,AGR,150,ñola,,la,,0.336,,120.437,120.437,0.321296296,-0.141666667,0,0,0,,0,6,6,69,1,zona,,,,,
,,,,,,5d936374253d0a0017f32d96,676192165fb32c2e1fb7aee6,67d1ab7be052c53961de06c7,2025-03-12_16h43.26.413,Tarea de decisión léxica,2024.2.5,Win32,60.0240096,,,,,,,,,,,,,,,,,,,,,,,120.439,121.436,a,1,0.316,1,121.437,121.935,,,,,,145,MAS,WORD,AGR,150,león,,el,,0.316,,121.937,121.939,0.321296296,-0.141666667,0,0,0,,0,7,7,144,1,nobo,,,,,
,,,,,,5d936374253d0a0017f32d96,676192165fb32c2e1fb7aee6,67d1ab7be052c53961de06c7,2025-03-12_16h43.26.413,Tarea de decisión léxica,2024.2.5,Win32,60.0240096,,,,,,,,,,,,,,,,,,,,,,,121.94,122.986,a,1,0.37,1,122.988,123.485,,,,,,455,MAS,WORD,DIS,150,reino,,la,,0.37,,123.486,123.486,0.321296296,-0.141666667,0,0,0,,0,8,8,454,1,riaso,,,,,
,,,,,,5d936374253d0a0017f32d96,676192165fb32c2e1fb7aee6,67d1ab7be052c53961de06c7,2025-03-12_16h43.26.413,Tarea de decisión léxica,2024.2.5,Win32,60.0240096,,,,,,,,,,,,,,,,,,,,,,,123.491,124.502,a,1,0.338,1,124.502,125.003,,,,,,189,MAS,WORD,AGR,150,puño,,el,,0.338,,125.003,125.004,0.321296296,-0.141666667,0,0,0,,0,9,9,188,1,muvo,,,,,
,,,,,,5d936374253d0a0017f32d96,676192165fb32c2e1fb7aee6,67d1ab7be052c53961de06c7,2025-03-12_16h43.26.413,Tarea de decisión léxica,2024.2.5,Win32,60.0240096,,,,,,,,,,,,,,,,,,,,,,,125.006,126.043,l,1,0.357,1,126.043,126.536,,,,,,400,MAS,NOWORD,DIS,150,serro,,la,,0.357,,126.536,126.536,0.321296296,-0.141666667,0,0,0,,0,10,10,399,1,techo,,,,,
,,,,,,5d936374253d0a0017f32d96,676192165fb32c2e1fb7aee6,67d1ab7be052c53961de06c7,2025-03-12_16h43.26.413,Tarea de decisión léxica,2024.2.5,Win32,60.0240096,,,,,,,,,,,,,,,,,,,,,,,126.538,127.586,l,1,0.37,1,127.588,128.086,,,,,,132,FEM,NOWORD,DIS,150,fada,,el,,0.37,,128.089,128.093,0.321296296,-0.141666667,0,0,0,,0,11,11,131,1,mina,,,,,
,,,,,,5d936374253d0a0017f32d96,676192165fb32c2e1fb7aee6,67d1ab7be052c53961de06c7,2025-03-12_16h43.26.413,Tarea de decisión léxica,2024.2.5,Win32,60.0240096,,,,,,,,,,,,,,,,,,,,,,,128.094,129.186,a,1,0.421,1,129.186,129.686,,,,,,169,MAS,WORD,AGR,150,cubo,,el,,0.421,,129.686,129.686,0.321296296,-0.141666667,0,0,0,,0,12,12,168,1,mibo,,,,,
,,,,,,5d936374253d0a0017f32d96,676192165fb32c2e1fb7aee6,67d1ab7be052c53961de06c7,2025-03-12_16h43.26.413,Tarea de decisión léxica,2024.2.5,Win32,60.0240096,,,,,,,,,,,,,,,,,,,,,,,129.689,130.786,l,1,0.418,1,130.786,131.285,,,,,,144,MAS,NOWORD,DIS,150,pezo,,la,,0.418,,131.285,131.286,0.321296296,-0.141666667,0,0,0,,0,13,13,143,1,pavo,,,,,
,,,,,,5d936374253d0a0017f32d96,676192165fb32c2e1fb7aee6,67d1ab7be052c53961de06c7,2025-03-12_16h43.26.413,Tarea de decisión léxica,2024.2.5,Win32,60.0240096,,,,,,,,,,,,,,,,,,,,,,,131.287,132.252,l,1,0.291,1,132.253,132.753,,,,,,212,FEM,NOWORD,DIS,150,joad,,el,,0.291,,132.753,132.754,0.321296296,-0.141666667,0,0,0,,0,14,14,211,1,joya,,,,,
,,,,,,5d936374253d0a0017f32d96,676192165fb32c2e1fb7aee6,67d1ab7be052c53961de06c7,2025-03-12_16h43.26.413,Tarea de decisión léxica,2024.2.5,Win32,60.0240096,,,,,,,,,,,,,,,,,,,,,,,132.757,133.752,a,1,0.318,1,133.753,134.253,,,,,,461,FEM,WORD,AGR,150,tabla,,la,,0.318,,134.253,134.253,0.321296296,-0.141666667,0,0,0,,0,15,15,460,1,pagra,,,,,
,,,,,,5d936374253d0a0017f32d96,676192165fb32c2e1fb7aee6,67d1ab7be052c53961de06c7,2025-03-12_16h43.26.413,Tarea de decisión léxica,2024.2.5,Win32,60.0240096,,,,,,,,,,,,,,,,,,,,,,,134.255,135.469,a,1,0.534,1,135.469,135.97,,,,,,143,MAS,WORD,DIS,150,pavo,,la,,0.534,,135.971,135.975,0.321296296,-0.141666667,0,0,0,,0,16,16,142,1,pezo,,,,,
,,,,,,5d936374253d0a0017f32d96,676192165fb32c2e1fb7aee6,67d1ab7be052c53961de06c7,2025-03-12_16h43.26.413,Tarea de decisión léxica,2024.2.5,Win32,60.0240096,,,,,,,,,,,,,,,,,,,,,,,135.977,137.07,a,1,0.424,1,137.071,137.57,,,,,,211,FEM,WORD,DIS,150,joya,,el,,0.424,,137.57,137.57,0.321296296,-0.141666667,0,0,0,,0,17,17,210,1,joad,,,,,
,,,,,,5d936374253d0a0017f32d96,676192165fb32c2e1fb7aee6,67d1ab7be052c53961de06c7,2025-03-12_16h43.26.413,Tarea de decisión léxica,2024.2.5,Win32,60.0240096,,,,,,,,,,,,,,,,,,,,,,,137.573,138.619,a,1,0.367,1,138.619,139.119,,,,,,133,FEM,WORD,AGR,150,vaca,,la,,0.367,,139.119,139.12,0.321296296,-0.141666667,0,0,0,,0,18,18,132,1,vesa,,,,,
,,,,,,5d936374253d0a0017f32d96,676192165fb32c2e1fb7aee6,67d1ab7be052c53961de06c7,2025-03-12_16h43.26.413,Tarea de decisión léxica,2024.2.5,Win32,60.0240096,,,,,,,,,,,,,,,,,,,,,,,139.122,140.202,l,1,0.402,1,140.202,140.702,,,,,,146,MAS,NOWORD,AGR,150,nobo,,el,,0.402,,140.702,140.703,0.321296296,-0.141666667,0,0,0,,0,19,19,145,1,león,,,,,
,,,,,,5d936374253d0a0017f32d96,676192165fb32c2e1fb7aee6,67d1ab7be052c53961de06c7,2025-03-12_16h43.26.413,Tarea de decisión léxica,2024.2.5,Win32,60.0240096,,,,,,,,,,,,,,,,,,,,,,,140.704,141.703,l,1,0.316,1,141.703,142.204,,,,,,416,FEM,NOWORD,DIS,150,juira,,el,,0.316,,142.204,142.204,0.321296296,-0.141666667,0,0,0,,0,20,20,415,1,jaula,,,,,
,,,,,,5d936374253d0a0017f32d96,676192165fb32c2e1fb7aee6,67d1ab7be052c53961de06c7,2025-03-12_16h43.26.413,Tarea de decisión léxica,2024.2.5,Win32,60.0240096,,,,,,,,,,,,,,,,,,,,,,,142.207,143.336,a,1,0.454,1,143.336,143.835,,,,,,197,MAS,WORD,AGR,150,bate,,el,,0.454,,143.836,143.838,0.321296296,-0.141666667,0,0,0,,0,21,21,196,1,dade,,,,,
,,,,,,5d936374253d0a0017f32d96,676192165fb32c2e1fb7aee6,67d1ab7be052c53961de06c7,2025-03-12_16h43.26.413,Tarea de decisión léxica,2024.2.5,Win32,60.0240096,,,,,,,,,,,,,,,,,,,,,,,143.84,144.92,a,1,0.402,1,144.92,145.419,,,,,,1,FEM,WORD,AGR,150,casa,,la,,0.402,,145.419,145.419,0.321296296,-0.141666667,0,0,0,,0,22,22,0,1,mada,,,,,
,,,,,,5d936374253d0a0017f32d96,676192165fb32c2e1fb7aee6,67d1ab7be052c53961de06c7,2025-03-12_16h43.26.413,Tarea de decisión léxica,2024.2.5,Win32,60.0240096,,,,,,,,,,,,,,,,,,,,,,,145.421,146.586,l,1,0.486,1,146.586,147.086,,,,,,254,MAS,NOWORD,AGR,150,trido,,el,,0.486,,147.086,147.086,0.321296296,-0.141666667,0,0,0,,0,23,23,253,1,chico,,,,,
,,,,,,5d936374253d0a0017f32d96,676192165fb32c2e1fb7aee6,67d1ab7be052c53961de06c7,2025-03-12_16h43.26.413,Tarea de decisión léxica,2024.2.5,Win32,60.0240096,,,,,,,,,,,,,,,,,,,,,,,147.089,148.202,l,1,0.434,1,148.203,148.702,,,,,,326,FEM,NOWORD,AGR,150,mabia,,la,,0.434,,148.702,148.703,0.321296296,-0.141666667,0,0,0,,0,24,24,325,1,magia,,,,,
,,,,,,5d936374253d0a0017f32d96,676192165fb32c2e1fb7aee6,67d1ab7be052c53961de06c7,2025-03-12_16h43.26.413,Tarea de decisión léxica,2024.2.5,Win32,60.0240096,,,,,,,,,,,,,,,,,,,,,,,148.705,149.836,l,1,0.448,1,149.836,150.336,,,,,,358,FEM,NOWORD,AGR,150,gruba,,la,,0.448,,150.336,150.336,0.321296296,-0.141666667,0,0,0,,0,25,25,357,1,bruja,,,,,
,,,,,,5d936374253d0a0017f32d96,676192165fb32c2e1fb7aee6,67d1ab7be052c53961de06c7,2025-03-12_16h43.26.413,Tarea de decisión léxica,2024.2.5,Win32,60.0240096,,,,,,,,,,,,,,,,,,,,,,,150.339,151.319,a,1,0.301,1,151.319,151.818,,,,,,315,FEM,WORD,DIS,150,reina,,el,,0.301,,151.82,151.822,0.321296296,-0.141666667,0,0,0,,0,26,26,314,1,riosa,,,,,
,,,,,,5d936374253d0a0017f32d96,676192165fb32c2e1fb7aee6,67d1ab7be052c53961de06c7,2025-03-12_16h43.26.413,Tarea de decisión léxica,2024.2.5,Win32,60.0240096,,,,,,,,,,,,,,,,,,,,,,,151.824,152.852,l,1,0.35,1,152.852,153.352,,,,,,332,MAS,NOWORD,DIS,150,erato,,la,,0.35,,153.352,153.352,0.321296296,-0.141666667,0,0,0,,0,27,27,331,1,éxito,,,,,
,,,,,,5d936374253d0a0017f32d96,676192165fb32c2e1fb7aee6,67d1ab7be052c53961de06c7,2025-03-12_16h43.26.413,Tarea de decisión léxica,2024.2.5,Win32,60.0240096,,,,,,,,,,,,,,,,,,,,,,,153.354,154.368,l,1,0.334,1,154.369,154.87,,,,,,52,FEM,NOWORD,DIS,150,mava,,el,,0.334,,154.871,154.872,0.321296296,-0.141666667,0,0,0,,0,28,28,51,1,caja,,,,,
,,,,,,5d936374253d0a0017f32d96,676192165fb32c2e1fb7aee6,67d1ab7be052c53961de06c7,2025-03-12_16h43.26.413,Tarea de decisión léxica,2024.2.5,Win32,60.0240096,,,,,,,,,,,,,,,,,,,,,,,154.879,155.92,l,1,0.366,1,155.922,156.419,,,,,,30,MAS,NOWORD,AGR,150,pono,,el,,0.366,,156.419,156.42,0.321296296,-0.141666667,0,0,0,,0,29,29,29,1,modo,,,,,
,,,,,,5d936374253d0a0017f32d96,676192165fb32c2e1fb7aee6,67d1ab7be052c53961de06c7,2025-03-12_16h43.26.413,Tarea de decisión léxica,2024.2.5,Win32,60.0240096,,,,,,,,,,,,,,,,,,,,,,,156.423,157.42,l,1,0.317,1,157.42,157.921,,,,,,402,MAS,NOWORD,AGR,150,pirvo,,el,,0.317,,157.921,157.921,0.321296296,-0.141666667,0,0,0,,0,30,30,401,1,polvo,,,,,
,,,,,,5d936374253d0a0017f32d96,676192165fb32c2e1fb7aee6,67d1ab7be052c53961de06c7,2025-03-12_16h43.26.413,Tarea de decisión léxica,2024.2.5,Win32,60.0240096,,,,,,,,,,,,,,,,,,,,,,,157.924,159.053,a,1,0.45,1,159.053,159.552,,,,,,363,FEM,WORD,DIS,150,deuda,,el,,0.45,,159.555,159.559,0.321296296,-0.141666667,0,0,0,,0,31,31,362,1,veida,,,,,
,,,,,,5d936374253d0a0017f32d96,676192165fb32c2e1fb7aee6,67d1ab7be052c53961de06c7,2025-03-12_16h43.26.413,Tarea de decisión léxica,2024.2.5,Win32,60.0240096,,,,,,,,,,,,,,,,,,,,,,,159.561,160.552,l,1,0.32,1,160.553,161.053,,,,,,102,MAS,NOWORD,AGR,150,gito,,el,,0.32,,161.053,161.053,0.321296296,-0.141666667,0,0,0,,0,32,32,101,1,tono,,,,,
,,,,,,5d936374253d0a0017f32d96,676192165fb32c2e1fb7aee6,67d1ab7be052c53961de06c7,2025-03-12_16h43.26.413,Tarea de decisión léxica,2024.2.5,Win32,60.0240096,,,,,,,,,,,,,,,,,,,,,,,161.056,162.003,a,1,0.268,1,162.004,162.502,,,,,,431,MAS,WORD,DIS,150,motor,,la,,0.268,,162.502,162.503,0.321296296,-0.141666667,0,0,0,,0,33,33,430,1,tetor,,,,,
,,,,,,5d936374253d0a0017f32d96,676192165fb32c2e1fb7aee6,67d1ab7be052c53961de06c7,2025-03-12_16h43.26.413,Tarea de decisión léxica,2024.2.5,Win32,60.0240096,,,,,,,,,,,,,,,,,,,,,,,162.505,163.503,l,1,0.318,1,163.503,164.002,,,,,,260,MAS,NOWORD,DIS,150,jaumo,,la,,0.318,,164.002,164.002,0.321296296,-0.141666667,0,0,0,,0,34,34,259,1,juego,,,,,
,,,,,,5d936374253d0a0017f32d96,676192165fb32c2e1fb7aee6,67d1ab7be052c53961de06c7,2025-03-12_16h43.26.413,Tarea de decisión léxica,2024.2.5,Win32,60.0240096,,,,,,,,,,,,,,,,,,,,,,,164.003,164.969,l,1,0.299,1,164.969,165.468,,,,,,192,FEM,NOWORD,DIS,150,bila,,el,,0.299,,165.47,165.472,0.321296296,-0.141666667,0,0,0,,0,35,35,191,1,pila,,,,,
,,,,,,5d936374253d0a0017f32d96,676192165fb32c2e1fb7aee6,67d1ab7be052c53961de06c7,2025-03-12_16h43.26.413,Tarea de decisión léxica,2024.2.5,Win32,60.0240096,,,,,,,,,,,,,,,,,,,,,,,165.474,166.469,l,1,0.319,1,166.469,166.969,,,,,,430,FEM,NOWORD,AGR,150,tenta,,la,,0.319,,166.969,166.969,0.321296296,-0.141666667,0,0,0,,0,36,36,429,1,tarta,,,,,
,,,,,,5d936374253d0a0017f32d96,676192165fb32c2e1fb7aee6,67d1ab7be052c53961de06c7,2025-03-12_16h43.26.413,Tarea de decisión léxica,2024.2.5,Win32,60.0240096,,,,,,,,,,,,,,,,,,,,,,,166.971,167.969,l,1,0.338,1,167.969,168.469,,,,,,386,FEM,NOWORD,AGR,150,febra,,la,,0.338,,168.469,168.469,0.321296296,-0.141666667,0,0,0,,0,37,37,385,1,letra,,,,,
,,,,,,5d936374253d0a0017f32d96,676192165fb32c2e1fb7aee6,67d1ab7be052c53961de06c7,2025-03-12_16h43.26.413,Tarea de decisión léxica,2024.2.5,Win32,60.0240096,,,,,,,,,,,,,,,,,,,,,,,168.47,169.469,l,1,0.339,1,169.469,169.969,,,,,,114,FEM,NOWORD,AGR,150,tada,,la,,0.339,,169.969,169.97,0.321296296,-0.141666667,0,0,0,,0,38,38,113,1,miel,,,,,
,,,,,,5d936374253d0a0017f32d96,676192165fb32c2e1fb7aee6,67d1ab7be052c53961de06c7,2025-03-12_16h43.26.413,Tarea de decisión léxica,2024.2.5,Win32,60.0240096,,,,,,,,,,,,,,,,,,,,,,,169.973,171.119,a,1,0.469,1,171.119,171.62,,,,,,269,MAS,WORD,AGR,150,perro,,el,,0.469,,171.62,171.62,0.321296296,-0.141666667,0,0,0,,0,39,39,268,1,mello,,,,,
,,,,,,5d936374253d0a0017f32d96,676192165fb32c2e1fb7aee6,67d1ab7be052c53961de06c7,2025-03-12_16h43.26.413,Tarea de decisión léxica,2024.2.5,Win32,60.0240096,,,,,,,,,,,,,,,,,,,,,,,171.621,172.752,l,1,0.449,1,172.752,173.252,,,,,,366,FEM,NOWORD,AGR,150,gulla,,la,,0.449,,173.253,173.255,0.321296296,-0.141666667,0,0,0,,0,40,40,365,1,ducha,,,,,
,,,,,,5d936374253d0a0017f32d96,676192165fb32c2e1fb7aee6,67d1ab7be052c53961de06c7,2025-03-12_16h43.26.413,Tarea de decisión léxica,2024.2.5,Win32,60.0240096,,,,,,,,,,,,,,,,,,,,,,,173.258,174.252,a,1,0.318,1,174.253,174.752,,,,,,275,MAS,WORD,DIS,150,punto,,la,,0.318,,174.752,174.753,0.321296296,-0.141666667,0,0,0,,0,41,41,274,1,musto,,,,,
,,,,,,5d936374253d0a0017f32d96,676192165fb32c2e1fb7aee6,67d1ab7be052c53961de06c7,2025-03-12_16h43.26.413,Tarea de decisión léxica,2024.2.5,Win32,60.0240096,,,,,,,,,,,,,,,,,,,,,,,174.754,175.719,l,0,0.287,0,175.722,176.22,,,,,,157,MAS,WORD,AGR,150,nido,,el,,0.287,,176.22,176.22,0.321296296,-0.141666667,0,0,0,,0,42,42,156,1,hico,,,,,
,,,,,,5d936374253d0a0017f32d96,676192165fb32c2e1fb7aee6,67d1ab7be052c53961de06c7,2025-03-12_16h43.26.413,Tarea de decisión léxica,2024.2.5,Win32,60.0240096,,,,,,,,,,,,,,,,,,,,,,,176.222,177.27,a,1,0.367,1,177.271,177.77,,,,,,249,FEM,WORD,AGR,150,clase,,la,,0.367,,177.77,177.77,0.321296296,-0.141666667,0,0,0,,0,43,43,248,1,plane,,,,,
,,,,,,5d936374253d0a0017f32d96,676192165fb32c2e1fb7aee6,67d1ab7be052c53961de06c7,2025-03-12_16h43.26.413,Tarea de decisión léxica,2024.2.5,Win32,60.0240096,,,,,,,,,,,,,,,,,,,,,,,177.774,178.936,l,1,0.483,1,178.937,179.436,,,,,,378,MAS,NOWORD,AGR,150,gaulo,,el,,0.483,,179.436,179.436,0.321296296,-0.141666667,0,0,0,,0,44,44,377,1,hielo,,,,,
,,,,,,5d936374253d0a0017f32d96,676192165fb32c2e1fb7aee6,67d1ab7be052c53961de06c7,2025-03-12_16h43.26.413,Tarea de decisión léxica,2024.2.5,Win32,60.0240096,,,,,,,,,,,,,,,,,,,,,,,179.438,180.519,l,1,0.402,1,180.52,181.019,,,,,,14,FEM,NOWORD,AGR,150,nola,,la,,0.402,,181.02,181.023,0.321296296,-0.141666667,0,0,0,,0,45,45,13,1,hora,,,,,
,,,,,,5d936374253d0a0017f32d96,676192165fb32c2e1fb7aee6,67d1ab7be052c53961de06c7,2025-03-12_16h43.26.413,Tarea de decisión léxica,2024.2.5,Win32,60.0240096,,,,,,,,,,,,,,,,,,,,,,,181.025,182.069,l,1,0.369,1,182.069,182.57,,,,,,134,FEM,NOWORD,AGR,150,vesa,,la,,0.369,,182.57,182.57,0.321296296,-0.141666667,0,0,0,,0,46,46,133,1,vaca,,,,,
,,,,,,5d936374253d0a0017f32d96,676192165fb32c2e1fb7aee6,67d1ab7be052c53961de06c7,2025-03-12_16h43.26.413,Tarea de decisión léxica,2024.2.5,Win32,60.0240096,,,,,,,,,,,,,,,,,,,,,,,182.573,183.636,a,1,0.391,1,183.637,184.136,,,,,,465,FEM,WORD,AGR,150,aguja,,la,,0.391,,184.136,184.136,0.321296296,-0.141666667,0,0,0,,0,47,47,464,1,asuba,,,,,
,,,,,,5d936374253d0a0017f32d96,676192165fb32c2e1fb7aee6,67d1ab7be052c53961de06c7,2025-03-12_16h43.26.413,Tarea de decisión léxica,2024.2.5,Win32,60.0240096,,,,,,,,,,,,,,,,,,,,,,,184.137,185.186,l,1,0.37,1,185.186,185.685,,,,,,190,MAS,NOWORD,AGR,150,muvo,,el,,0.37,,185.686,185.686,0.321296296,-0.141666667,0,0,0,,0,48,48,189,1,puño,,,,,
,,,,,,5d936374253d0a0017f32d96,676192165fb32c2e1fb7aee6,67d1ab7be052c53961de06c7,2025-03-12_16h43.26.413,Tarea de decisión léxica,2024.2.5,Win32,60.0240096,,,,,,,,,,,,,,,,,,,,,,,185.689,186.769,l,1,0.403,1,186.769,187.272,,,,,,174,FEM,NOWORD,AGR,150,boma,,la,,0.403,,187.274,187.275,0.321296296,-0.141666667,0,0,0,,0,49,49,173,1,rosa,,,,,
,,,,,,5d936374253d0a0017f32d96,676192165fb32c2e1fb7aee6,67d1ab7be052c53961de06c7,2025-03-12_16h43.26.413,Tarea de decisión léxica,2024.2.5,Win32,60.0240096,,,,,,,,,,,,,,,,,,,,,,,187.281,188.37,l,1,0.416,1,188.371,188.869,,,,,,86,MAS,NOWORD,AGR,150,babo,,el,,0.416,,188.872,188.876,0.321296296,-0.141666667,0,0,0,,0,50,50,85,1,lago,,,,,
,,,,,,5d936374253d0a0017f32d96,676192165fb32c2e1fb7aee6,67d1ab7be052c53961de06c7,2025-03-12_16h43.26.413,Tarea de decisión léxica,2024.2.5,Win32,60.0240096,,,,,,,,,,,,,,,,,,,,,,,188.878,189.953,a,1,0.403,1,189.953,190.453,,,,,,357,FEM,WORD,AGR,150,bruja,,la,,0.403,,190.453,190.453,0.321296296,-0.141666667,0,0,0,,0,51,51,356,1,gruba,,,,,
,,,,,,5d936374253d0a0017f32d96,676192165fb32c2e1fb7aee6,67d1ab7be052c53961de06c7,2025-03-12_16h43.26.413,Tarea de decisión léxica,2024.2.5,Win32,60.0240096,,,,,,,,,,,,,,,,,,,,,,,190.455,191.652,l,1,0.517,1,191.652,192.153,,,,,,204,FEM,NOWORD,DIS,150,beja,,el,,0.517,,192.153,192.154,0.321296296,-0.141666667,0,0,0,,0,52,52,203,1,leña,,,,,
,,,,,,5d936374253d0a0017f32d96,676192165fb32c2e1fb7aee6,67d1ab7be052c53961de06c7,2025-03-12_16h43.26.413,Tarea de decisión léxica,2024.2.5,Win32,60.0240096,,,,,,,,,,,,,,,,,,,,,,,192.156,193.12,a,1,0.29,1,193.122,193.619,,,,,,253,MAS,WORD,AGR,150,chico,,el,,0.29,,193.619,193.619,0.321296296,-0.141666667,0,0,0,,0,53,53,252,1,trido,,,,,
,,,,,,5d936374253d0a0017f32d96,676192165fb32c2e1fb7aee6,67d1ab7be052c53961de06c7,2025-03-12_16h43.26.413,Tarea de decisión léxica,2024.2.5,Win32,60.0240096,,,,,,,,,,,,,,,,,,,,,,,193.622,194.586,a,1,0.285,1,194.586,195.085,,,,,,277,MAS,WORD,AGR,150,fuego,,el,,0.285,,195.085,195.085,0.321296296,-0.141666667,0,0,0,,0,54,54,276,1,vuemo,,,,,
,,,,,,5d936374253d0a0017f32d96,676192165fb32c2e1fb7aee6,67d1ab7be052c53961de06c7,2025-03-12_16h43.26.413,Tarea de decisión léxica,2024.2.5,Win32,60.0240096,,,,,,,,,,,,,,,,,,,,,,,195.088,196.235,a,1,0.479,1,196.236,196.736,,,,,,335,FEM,WORD,DIS,150,costa,,el,,0.479,,196.738,196.74,0.321296296,-0.141666667,0,0,0,,0,55,55,334,1,pesta,,,,,
,,,,,,5d936374253d0a0017f32d96,676192165fb32c2e1fb7aee6,67d1ab7be052c53961de06c7,2025-03-12_16h43.26.413,Tarea de decisión léxica,2024.2.5,Win32,60.0240096,,,,,,,,,,,,,,,,,,,,,,,196.743,197.753,l,1,0.339,1,197.753,198.253,,,,,,476,FEM,NOWORD,DIS,150,mucta,,el,,0.339,,198.253,198.253,0.321296296,-0.141666667,0,0,0,,0,56,56,475,1,manta,,,,,
,,,,,,5d936374253d0a0017f32d96,676192165fb32c2e1fb7aee6,67d1ab7be052c53961de06c7,2025-03-12_16h43.26.413,Tarea de decisión léxica,2024.2.5,Win32,60.0240096,,,,,,,,,,,,,,,,,,,,,,,198.255,199.286,l,1,0.354,1,199.286,199.785,,,,,,364,FEM,NOWORD,DIS,150,veida,,el,,0.354,,199.785,199.786,0.321296296,-0.141666667,0,0,0,,0,57,57,363,1,deuda,,,,,
,,,,,,5d936374253d0a0017f32d96,676192165fb32c2e1fb7aee6,67d1ab7be052c53961de06c7,2025-03-12_16h43.26.413,Tarea de decisión léxica,2024.2.5,Win32,60.0240096,,,,,,,,,,,,,,,,,,,,,,,199.788,200.869,l,1,0.405,1,200.869,201.369,,,,,,444,MAS,NOWORD,DIS,150,taron,,la,,0.405,,201.369,201.369,0.321296296,-0.141666667,0,0,0,,0,58,58,443,1,salón,,,,,
,,,,,,5d936374253d0a0017f32d96,676192165fb32c2e1fb7aee6,67d1ab7be052c53961de06c7,2025-03-12_16h43.26.413,Tarea de decisión léxica,2024.2.5,Win32,60.0240096,,,,,,,,,,,,,,,,,,,,,,,201.372,202.435,l,1,0.391,1,202.435,202.936,,,,,,336,FEM,NOWORD,DIS,150,pesta,,el,,0.391,,202.938,202.941,0.321296296,-0.141666667,0,0,0,,0,59,59,335,1,costa,,,,,
,,,,,,5d936374253d0a0017f32d96,676192165fb32c2e1fb7aee6,67d1ab7be052c53961de06c7,2025-03-12_16h43.26.413,Tarea de decisión léxica,2024.2.5,Win32,60.0240096,,,,,,,,,,,,,,,,,,,,,,,202.944,203.969,a,1,0.351,1,203.969,204.469,,,,,,185,MAS,WORD,AGR,150,baúl,,el,,0.351,,204.469,204.469,0.321296296,-0.141666667,0,0,0,,0,60,60,184,1,raol,,,,,
,,,,,,5d936374253d0a0017f32d96,676192165fb32c2e1fb7aee6,67d1ab7be052c53961de06c7,2025-03-12_16h43.26.413,Tarea de decisión léxica,2024.2.5,Win32,60.0240096,,,,,,,,,,,,,,,,,,,,,,,204.471,205.736,a,1,0.586,1,205.738,206.236,,,,,,221,FEM,WORD,AGR,150,mula,,la,,0.586,,206.236,206.236,0.321296296,-0.141666667,0,0,0,,0,61,61,220,1,puca,,,,,
,,,,,,5d936374253d0a0017f32d96,676192165fb32c2e1fb7aee6,67d1ab7be052c53961de06c7,2025-03-12_16h43.26.413,Tarea de decisión léxica,2024.2.5,Win32,60.0240096,,,,,,,,,,,,,,,,,,,,,,,206.238,207.269,a,1,0.35,1,207.269,207.769,,,,,,65,MAS,WORD,AGR,150,dios,,el,,0.35,,207.769,207.769,0.321296296,-0.141666667,0,0,0,,0,62,62,64,1,nios,,,,,
,,,,,,5d936374253d0a0017f32d96,676192165fb32c2e1fb7aee6,67d1ab7be052c53961de06c7,2025-03-12_16h43.26.413,Tarea de decisión léxica,2024.2.5,Win32,60.0240096,,,,,,,,,,,,,,,,,,,,,,,207.772,208.819,l,1,0.376,1,208.82,209.318,,,,,,180,MAS,NOWORD,DIS,150,sono,,la,,0.376,,209.319,209.319,0.321296296,-0.141666667,0,0,0,,0,63,63,179,1,toro,,,,,
,,,,,,5d936374253d0a0017f32d96,676192165fb32c2e1fb7aee6,67d1ab7be052c53961de06c7,2025-03-12_16h43.26.413,Tarea de decisión léxica,2024.2.5,Win32,60.0240096,,,,,,,,,,,,,,,,,,,,,,,209.321,210.335,l,1,0.335,1,210.335,210.836,,,,,,84,FEM,NOWORD,DIS,150,taga,,el,,0.335,,210.838,210.841,0.321296296,-0.141666667,0,0,0,,0,64,64,83,1,bala,,,,,
,,,,,,5d936374253d0a0017f32d96,676192165fb32c2e1fb7aee6,67d1ab7be052c53961de06c7,2025-03-12_16h43.26.413,Tarea de decisión léxica,2024.2.5,Win32,60.0240096,,,,,,,,,,,,,,,,,,,,,,,210.842,211.885,l,1,0.37,1,211.885,212.386,,,,,,468,MAS,NOWORD,DIS,150,peiso,,la,,0.37,,212.386,212.386,0.321296296,-0.141666667,0,0,0,,0,65,65,467,1,piano,,,,,
,,,,,,5d936374253d0a0017f32d96,676192165fb32c2e1fb7aee6,67d1ab7be052c53961de06c7,2025-03-12_16h43.26.413,Tarea de decisión léxica,2024.2.5,Win32,60.0240096,,,,,,,,,,,,,,,,,,,,,,,212.39,213.386,l,1,0.318,1,213.387,213.885,,,,,,252,MAS,NOWORD,DIS,150,refor,,la,,0.318,,213.885,213.885,0.321296296,-0.141666667,0,0,0,,0,66,66,251,1,señor,,,,,
,,,,,,5d936374253d0a0017f32d96,676192165fb32c2e1fb7aee6,67d1ab7be052c53961de06c7,2025-03-12_16h43.26.413,Tarea de decisión léxica,2024.2.5,Win32,60.0240096,,,,,,,,,,,,,,,,,,,,,,,213.887,215.152,a,1,0.587,1,215.152,215.652,,,,,,19,MAS,WORD,DIS,150,niño,,la,,0.587,,215.652,215.653,0.321296296,-0.141666667,0,0,0,,0,67,67,18,1,himo,,,,,
,,,,,,5d936374253d0a0017f32d96,676192165fb32c2e1fb7aee6,67d1ab7be052c53961de06c7,2025-03-12_16h43.26.413,Tarea de decisión léxica,2024.2.5,Win32,60.0240096,,,,,,,,,,,,,,,,,,,,,,,215.655,216.635,a,1,0.301,1,216.635,217.136,,,,,,147,FEM,WORD,DIS,150,hoja,,el,,0.301,,217.136,217.136,0.321296296,-0.141666667,0,0,0,,0,68,68,146,1,pama,,,,,
,,,,,,5d936374253d0a0017f32d96,676192165fb32c2e1fb7aee6,67d1ab7be052c53961de06c7,2025-03-12_16h43.26.413,Tarea de decisión léxica,2024.2.5,Win32,60.0240096,,,,,,,,,,,,,,,,,,,,,,,217.137,218.253,l,1,0.45,1,218.256,218.752,,,,,,226,MAS,NOWORD,AGR,150,boco,,el,,0.45,,218.757,218.761,0.321296296,-0.141666667,0,0,0,,0,69,69,225,1,lodo,,,,,
,,,,,,5d936374253d0a0017f32d96,676192165fb32c2e1fb7aee6,67d1ab7be052c53961de06c7,2025-03-12_16h43.26.413,Tarea de decisión léxica,2024.2.5,Win32,60.0240096,,,,,,,,,,,,,,,,,,,,,,,218.764,219.885,a,1,0.453,1,219.886,220.386,,,,,,323,FEM,WORD,DIS,150,cinta,,el,,0.453,,220.386,220.387,0.321296296,-0.141666667,0,0,0,,0,70,70,322,1,certa,,,,,
,,,,,,5d936374253d0a0017f32d96,676192165fb32c2e1fb7aee6,67d1ab7be052c53961de06c7,2025-03-12_16h43.26.413,Tarea de decisión léxica,2024.2.5,Win32,60.0240096,,,,,,,,,,,,,,,,,,,,,,,220.389,221.387,a,1,0.32,1,221.387,221.885,,,,,,85,MAS,WORD,AGR,150,lago,,el,,0.32,,221.886,221.886,0.321296296,-0.141666667,0,0,0,,0,71,71,84,1,babo,,,,,
,,,,,,5d936374253d0a0017f32d96,676192165fb32c2e1fb7aee6,67d1ab7be052c53961de06c7,2025-03-12_16h43.26.413,Tarea de decisión léxica,2024.2.5,Win32,60.0240096,,,,,,,,,,,,,,,,,,,,,,,221.889,223.002,l,1,0.434,1,223.003,223.503,,,,,,24,FEM,NOWORD,DIS,150,giva,,el,,0.434,,223.503,223.503,0.321296296,-0.141666667,0,0,0,,0,72,72,23,1,hija,,,,,
,,,,,,5d936374253d0a0017f32d96,676192165fb32c2e1fb7aee6,67d1ab7be052c53961de06c7,2025-03-12_16h43.26.413,Tarea de decisión léxica,2024.2.5,Win32,60.0240096,,,,,,,,,,,,,,,,,,,,,,,223.506,224.518,l,1,0.335,1,224.519,225.019,,,,,,92,FEM,NOWORD,DIS,150,sava,,el,,0.335,,225.019,225.019,0.321296296,-0.141666667,0,0,0,,0,73,73,91,1,taza,,,,,
,,,,,,5d936374253d0a0017f32d96,676192165fb32c2e1fb7aee6,67d1ab7be052c53961de06c7,2025-03-12_16h43.26.413,Tarea de decisión léxica,2024.2.5,Win32,60.0240096,,,,,,,,,,,,,,,,,,,,,,,225.022,226.036,l,1,0.333,1,226.036,226.536,,,,,,22,MAS,NOWORD,AGR,150,blan,,el,,0.333,,226.537,226.54,0.321296296,-0.141666667,0,0,0,,0,74,74,21,1,plan,,,,,
,,,,,,5d936374253d0a0017f32d96,676192165fb32c2e1fb7aee6,67d1ab7be052c53961de06c7,2025-03-12_16h43.26.413,Tarea de decisión léxica,2024.2.5,Win32,60.0240096,,,,,,,,,,,,,,,,,,,,,,,226.543,227.669,l,1,0.455,1,227.669,228.169,,,,,,392,MAS,NOWORD,DIS,150,dievo,,la,,0.455,,228.17,228.17,0.321296296,-0.141666667,0,0,0,,0,75,75,391,1,dueño,,,,,
,,,,,,5d936374253d0a0017f32d96,676192165fb32c2e1fb7aee6,67d1ab7be052c53961de06c7,2025-03-12_16h43.26.413,Tarea de decisión léxica,2024.2.5,Win32,60.0240096,,,,,,,,,,,,,,,,,,,,,,,228.172,229.252,a,1,0.406,1,229.253,229.752,,,,,,415,FEM,WORD,DIS,150,jaula,,el,,0.406,,229.752,229.752,0.321296296,-0.141666667,0,0,0,,0,76,76,414,1,juira,,,,,
,,,,,,5d936374253d0a0017f32d96,676192165fb32c2e1fb7aee6,67d1ab7be052c53961de06c7,2025-03-12_16h43.26.413,Tarea de decisión léxica,2024.2.5,Win32,60.0240096,,,,,,,,,,,,,,,,,,,,,,,229.755,230.836,a,1,0.397,1,230.836,231.336,,,,,,359,MAS,WORD,DIS,150,calor,,la,,0.397,,231.336,231.336,0.321296296,-0.141666667,0,0,0,,0,77,77,358,1,cacer,,,,,
,,,,,,5d936374253d0a0017f32d96,676192165fb32c2e1fb7aee6,67d1ab7be052c53961de06c7,2025-03-12_16h43.26.413,Tarea de decisión léxica,2024.2.5,Win32,60.0240096,,,,,,,,,,,,,,,,,,,,,,,231.337,232.501,a,1,0.486,1,232.501,233.002,,,,,,353,FEM,WORD,AGR,150,celda,,la,,0.486,,233.002,233.002,0.321296296,-0.141666667,0,0,0,,0,78,78,352,1,cezca,,,,,
,,,,,,5d936374253d0a0017f32d96,676192165fb32c2e1fb7aee6,67d1ab7be052c53961de06c7,2025-03-12_16h43.26.413,Tarea de decisión léxica,2024.2.5,Win32,60.0240096,,,,,,,,,,,,,,,,,,,,,,,233.003,234.051,a,1,0.373,1,234.052,234.552,,,,,,387,FEM,WORD,DIS,150,crema,,el,,0.373,,234.554,234.557,0.321296296,-0.141666667,0,0,0,,0,79,79,386,1,bresa,,,,,
,,,,,,5d936374253d0a0017f32d96,676192165fb32c2e1fb7aee6,67d1ab7be052c53961de06c7,2025-03-12_16h43.26.413,Tarea de decisión léxica,2024.2.5,Win32,60.0240096,,,,,,,,,,,,,,,,,,,,,,,234.558,235.552,a,1,0.317,1,235.552,236.052,,,,,,49,FEM,WORD,AGR,150,edad,,la,,0.317,,236.052,236.052,0.321296296,-0.141666667,0,0,0,,0,80,80,48,1,ecat,,,,,
,,,,,,5d936374253d0a0017f32d96,676192165fb32c2e1fb7aee6,67d1ab7be052c53961de06c7,2025-03-12_16h43.26.413,Tarea de decisión léxica,2024.2.5,Win32,60.0240096,,,,,,,,,,,,,,,,,,,,,,,236.054,237.035,a,1,0.308,1,237.036,237.535,,,,,,177,MAS,WORD,AGR,150,reto,,el,,0.308,,237.535,237.535,0.321296296,-0.141666667,0,0,0,,0,81,81,176,1,bito,,,,,
,,,,,,5d936374253d0a0017f32d96,676192165fb32c2e1fb7aee6,67d1ab7be052c53961de06c7,2025-03-12_16h43.26.413,Tarea de decisión léxica,2024.2.5,Win32,60.0240096,,,,,,,,,,,,,,,,,,,,,,,237.537,238.619,l,1,0.4,1,238.62,239.119,,,,,,362,FEM,NOWORD,AGR,150,solle,,la,,0.4,,239.119,239.119,0.321296296,-0.141666667,0,0,0,,0,82,82,361,1,torre,,,,,
,,,,,,5d936374253d0a0017f32d96,676192165fb32c2e1fb7aee6,67d1ab7be052c53961de06c7,2025-03-12_16h43.26.413,Tarea de decisión léxica,2024.2.5,Win32,60.0240096,,,,,,,,,,,,,,,,,,,,,,,239.12,240.102,l,1,0.305,1,240.102,240.601,,,,,,196,FEM,NOWORD,DIS,150,sira,,el,,0.305,,240.603,240.605,0.321296296,-0.141666667,0,0,0,,0,83,83,195,1,tela,,,,,
,,,,,,5d936374253d0a0017f32d96,676192165fb32c2e1fb7aee6,67d1ab7be052c53961de06c7,2025-03-12_16h43.26.413,Tarea de decisión léxica,2024.2.5,Win32,60.0240096,,,,,,,,,,,,,,,,,,,,,,,240.607,241.553,a,1,0.269,1,241.553,242.052,,,,,,303,MAS,WORD,DIS,150,barco,,la,,0.269,,242.052,242.052,0.321296296,-0.141666667,0,0,0,,0,84,84,302,1,lanco,,,,,
,,,,,,5d936374253d0a0017f32d96,676192165fb32c2e1fb7aee6,67d1ab7be052c53961de06c7,2025-03-12_16h43.26.413,Tarea de decisión léxica,2024.2.5,Win32,60.0240096,,,,,,,,,,,,,,,,,,,,,,,242.055,243.056,a,1,0.327,1,243.056,243.552,,,,,,71,FEM,WORD,DIS,150,isla,,el,,0.327,,243.552,243.552,0.321296296,-0.141666667,0,0,0,,0,85,85,70,1,urla,,,,,
,,,,,,5d936374253d0a0017f32d96,676192165fb32c2e1fb7aee6,67d1ab7be052c53961de06c7,2025-03-12_16h43.26.413,Tarea de decisión léxica,2024.2.5,Win32,60.0240096,,,,,,,,,,,,,,,,,,,,,,,243.553,244.519,a,1,0.286,1,244.519,245.018,,,,,,153,MAS,WORD,AGR,150,pato,,el,,0.286,,245.018,245.019,0.321296296,-0.141666667,0,0,0,,0,86,86,152,1,tado,,,,,
,,,,,,5d936374253d0a0017f32d96,676192165fb32c2e1fb7aee6,67d1ab7be052c53961de06c7,2025-03-12_16h43.26.413,Tarea de decisión léxica,2024.2.5,Win32,60.0240096,,,,,,,,,,,,,,,,,,,,,,,245.021,246.005,a,1,0.308,1,246.006,246.502,,,,,,385,FEM,WORD,AGR,150,letra,,la,,0.308,,246.502,246.502,0.321296296,-0.141666667,0,0,0,,0,87,87,384,1,febra,,,,,
,,,,,,5d936374253d0a0017f32d96,676192165fb32c2e1fb7aee6,67d1ab7be052c53961de06c7,2025-03-12_16h43.26.413,Tarea de decisión léxica,2024.2.5,Win32,60.0240096,,,,,,,,,,,,,,,,,,,,,,,246.505,247.519,l,1,0.335,1,247.519,248.018,,,,,,464,FEM,NOWORD,DIS,150,matla,,el,,0.335,,248.02,248.021,0.321296296,-0.141666667,0,0,0,,0,88,88,463,1,cabra,,,,,
,,,,,,5d936374253d0a0017f32d96,676192165fb32c2e1fb7aee6,67d1ab7be052c53961de06c7,2025-03-12_16h43.26.413,Tarea de decisión léxica,2024.2.5,Win32,60.0240096,,,,,,,,,,,,,,,,,,,,,,,248.022,248.956,a,1,0.257,1,248.958,249.452,,,,,,341,MAS,WORD,AGR,150,valor,,el,,0.257,,249.452,249.453,0.321296296,-0.141666667,0,0,0,,0,89,89,340,1,daror,,,,,
,,,,,,5d936374253d0a0017f32d96,676192165fb32c2e1fb7aee6,67d1ab7be052c53961de06c7,2025-03-12_16h43.26.413,Tarea de decisión léxica,2024.2.5,Win32,60.0240096,,,,,,,,,,,,,,,,,,,,,,,249.459,250.519,a,1,0.383,1,250.52,251.018,,,,,,271,FEM,WORD,DIS,150,señal,,el,,0.383,,251.018,251.019,0.321296296,-0.141666667,0,0,0,,0,90,90,270,1,refal,,,,,
,,,,,,5d936374253d0a0017f32d96,676192165fb32c2e1fb7aee6,67d1ab7be052c53961de06c7,2025-03-12_16h43.26.413,Tarea de decisión léxica,2024.2.5,Win32,60.0240096,,,,,,,,,,,,,,,,,,,,,,,251.021,252.252,l,1,0.567,1,252.252,252.752,,,,,,82,FEM,NOWORD,AGR,150,vasa,,la,,0.567,,252.752,252.752,0.321296296,-0.141666667,0,0,0,,0,91,91,81,1,dama,,,,,
,,,,,,5d936374253d0a0017f32d96,676192165fb32c2e1fb7aee6,67d1ab7be052c53961de06c7,2025-03-12_16h43.26.413,Tarea de decisión léxica,2024.2.5,Win32,60.0240096,,,,,,,,,,,,,,,,,,,,,,,252.754,254.252,a,1,0.818,1,254.253,254.751,,,,,,403,FEM,WORD,DIS,150,prima,,el,,0.818,,254.752,254.752,0.321296296,-0.141666667,0,0,0,,0,92,92,402,1,grisa,,,,,
,,,,,,5d936374253d0a0017f32d96,676192165fb32c2e1fb7aee6,67d1ab7be052c53961de06c7,2025-03-12_16h43.26.413,Tarea de decisión léxica,2024.2.5,Win32,60.0240096,,,,,,,,,,,,,,,,,,,,,,,254.755,255.768,a,1,0.332,1,255.768,256.269,,,,,,285,MAS,WORD,AGR,150,error,,el,,0.332,,256.272,256.275,0.321296296,-0.141666667,0,0,0,,0,93,93,284,1,echor,,,,,
,,,,,,5d936374253d0a0017f32d96,676192165fb32c2e1fb7aee6,67d1ab7be052c53961de06c7,2025-03-12_16h43.26.413,Tarea de decisión léxica,2024.2.5,Win32,60.0240096,,,,,,,,,,,,,,,,,,,,,,,256.276,257.302,l,1,0.355,1,257.302,257.802,,,,,,222,FEM,NOWORD,AGR,150,puca,,la,,0.355,,257.803,257.803,0.321296296,-0.141666667,0,0,0,,0,94,94,221,1,mula,,,,,
,,,,,,5d936374253d0a0017f32d96,676192165fb32c2e1fb7aee6,67d1ab7be052c53961de06c7,2025-03-12_16h43.26.413,Tarea de decisión léxica,2024.2.5,Win32,60.0240096,,,,,,,,,,,,,,,,,,,,,,,257.804,258.872,a,1,0.389,1,258.873,259.371,,,,,,289,FEM,WORD,AGR,150,bomba,,la,,0.389,,259.371,259.371,0.321296296,-0.141666667,0,0,0,,0,95,95,288,1,bumpa,,,,,
,,,,,,5d936374253d0a0017f32d96,676192165fb32c2e1fb7aee6,67d1ab7be052c53961de06c7,2025-03-12_16h43.26.413,Tarea de decisión léxica,2024.2.5,Win32,60.0240096,,,,,,,,,,,,,,,,,,,,,,,259.373,260.451,l,1,0.402,1,260.452,260.952,,,,,,454,FEM,NOWORD,AGR,150,pafia,,la,,0.402,,260.952,260.952,0.321296296,-0.141666667,0,0,0,,0,96,96,453,1,mafia,,,,,
,,,,,,5d936374253d0a0017f32d96,676192165fb32c2e1fb7aee6,67d1ab7be052c53961de06c7,2025-03-12_16h43.26.413,Tarea de decisión léxica,2024.2.5,Win32,60.0240096,,,,,,,,,,,,,,,,,,,,,,,260.954,262.135,a,1,0.503,1,262.136,262.635,,,,,,61,FEM,WORD,AGR,150,obra,,la,,0.503,,262.635,262.635,0.321296296,-0.141666667,0,0,0,,0,97,97,60,1,efla,,,,,
,,,,,,5d936374253d0a0017f32d96,676192165fb32c2e1fb7aee6,67d1ab7be052c53961de06c7,2025-03-12_16h43.26.413,Tarea de decisión léxica,2024.2.5,Win32,60.0240096,,,,,,,,,,,,,,,,,,,,,,,262.637,263.719,l,1,0.404,1,263.719,264.219,,,,,,166,FEM,NOWORD,AGR,150,dera,,la,,0.404,,264.22,264.222,0.321296296,-0.141666667,0,0,0,,0,98,98,165,1,vela,,,,,
,,,,,,5d936374253d0a0017f32d96,676192165fb32c2e1fb7aee6,67d1ab7be052c53961de06c7,2025-03-12_16h43.26.413,Tarea de decisión léxica,2024.2.5,Win32,60.0240096,,,,,,,,,,,,,,,,,,,,,,,264.224,265.318,a,1,0.416,1,265.32,265.819,,,,,,131,FEM,WORD,DIS,150,mina,,el,,0.416,,265.819,265.819,0.321296296,-0.141666667,0,0,0,,0,99,99,130,1,fada,,,,,
,,,,,,5d936374253d0a0017f32d96,676192165fb32c2e1fb7aee6,67d1ab7be052c53961de06c7,2025-03-12_16h43.26.413,Tarea de decisión léxica,2024.2.5,Win32,60.0240096,,,,,,,,,,,,,,,,,,,,,,,265.823,266.886,l,1,0.39,1,266.886,267.386,,,,,,390,MAS,NOWORD,AGR,150,cenco,,el,,0.39,,267.386,267.386,0.321296296,-0.141666667,0,0,0,,0,100,100,389,1,cerdo,,,,,
,,,,,,5d936374253d0a0017f32d96,676192165fb32c2e1fb7aee6,67d1ab7be052c53961de06c7,2025-03-12_16h43.26.413,Tarea de decisión léxica,2024.2.5,Win32,60.0240096,,,,,,,,,,,,,,,,,,,,,,,267.388,268.402,a,1,0.336,1,268.402,268.903,,,,,,205,FEM,WORD,AGR,150,rana,,la,,0.336,,268.903,268.904,0.321296296,-0.141666667,0,0,0,,0,101,101,204,1,bara,,,,,
,,,,,,5d936374253d0a0017f32d96,676192165fb32c2e1fb7aee6,67d1ab7be052c53961de06c7,2025-03-12_16h43.26.413,Tarea de decisión léxica,2024.2.5,Win32,60.0240096,,,,,,,,,,,,,,,,,,,,,,,268.907,270.119,l,1,0.534,1,270.12,270.618,,,,,,440,FEM,NOWORD,DIS,150,prema,,el,,0.534,,270.619,270.619,0.321296296,-0.141666667,0,0,0,,0,102,102,439,1,presa,,,,,
,,,,,,5d936374253d0a0017f32d96,676192165fb32c2e1fb7aee6,67d1ab7be052c53961de06c7,2025-03-12_16h43.26.413,Tarea de decisión léxica,2024.2.5,Win32,60.0240096,,,,,,,,,,,,,,,,,,,,,,,270.621,271.668,l,1,0.371,1,271.668,272.17,,,,,,432,MAS,NOWORD,DIS,150,tetor,,la,,0.371,,272.172,272.175,0.321296296,-0.141666667,0,0,0,,0,103,103,431,1,motor,,,,,
,,,,,,5d936374253d0a0017f32d96,676192165fb32c2e1fb7aee6,67d1ab7be052c53961de06c7,2025-03-12_16h43.26.413,Tarea de decisión léxica,2024.2.5,Win32,60.0240096,,,,,,,,,,,,,,,,,,,,,,,272.175,273.251,l,1,0.405,1,273.252,273.751,,,,,,470,MAS,NOWORD,AGR,150,matia,,el,,0.405,,273.752,273.752,0.321296296,-0.141666667,0,0,0,,0,104,104,469,1,patio,,,,,
,,,,,,5d936374253d0a0017f32d96,676192165fb32c2e1fb7aee6,67d1ab7be052c53961de06c7,2025-03-12_16h43.26.413,Tarea de decisión léxica,2024.2.5,Win32,60.0240096,,,,,,,,,,,,,,,,,,,,,,,273.753,274.752,a,1,0.318,1,274.753,275.252,,,,,,321,MAS,WORD,AGR,150,banco,,el,,0.318,,275.252,275.252,0.321296296,-0.141666667,0,0,0,,0,105,105,320,1,rarco,,,,,
,,,,,,5d936374253d0a0017f32d96,676192165fb32c2e1fb7aee6,67d1ab7be052c53961de06c7,2025-03-12_16h43.26.413,Tarea de decisión léxica,2024.2.5,Win32,60.0240096,,,,,,,,,,,,,,,,,,,,,,,275.254,276.285,l,1,0.352,1,276.285,276.785,,,,,,342,MAS,NOWORD,AGR,150,daror,,el,,0.352,,276.785,276.785,0.321296296,-0.141666667,0,0,0,,0,106,106,341,1,valor,,,,,
,,,,,,5d936374253d0a0017f32d96,676192165fb32c2e1fb7aee6,67d1ab7be052c53961de06c7,2025-03-12_16h43.26.413,Tarea de decisión léxica,2024.2.5,Win32,60.0240096,,,,,,,,,,,,,,,,,,,,,,,276.787,277.802,l,1,0.334,1,277.802,278.302,,,,,,50,FEM,NOWORD,AGR,150,ecat,,la,,0.334,,278.303,278.305,0.321296296,-0.141666667,0,0,0,,0,107,107,49,1,edad,,,,,
,,,,,,5d936374253d0a0017f32d96,676192165fb32c2e1fb7aee6,67d1ab7be052c53961de06c7,2025-03-12_16h43.26.413,Tarea de decisión léxica,2024.2.5,Win32,60.0240096,,,,,,,,,,,,,,,,,,,,,,,278.306,279.303,l,1,0.323,1,279.304,279.803,,,,,,374,FEM,NOWORD,AGR,150,pogza,,la,,0.323,,279.803,279.803,0.321296296,-0.141666667,0,0,0,,0,108,108,373,1,pizza,,,,,
,,,,,,5d936374253d0a0017f32d96,676192165fb32c2e1fb7aee6,67d1ab7be052c53961de06c7,2025-03-12_16h43.26.413,Tarea de decisión léxica,2024.2.5,Win32,60.0240096,,,,,,,,,,,,,,,,,,,,,,,279.809,280.869,l,0,0.389,0,280.872,281.368,,,,,,175,FEM,WORD,DIS,150,goma,,el,,0.389,,281.368,281.368,0.321296296,-0.141666667,0,0,0,,0,109,109,174,1,hosa,,,,,
,,,,,,5d936374253d0a0017f32d96,676192165fb32c2e1fb7aee6,67d1ab7be052c53961de06c7,2025-03-12_16h43.26.413,Tarea de decisión léxica,2024.2.5,Win32,60.0240096,,,,,,,,,,,,,,,,,,,,,,,281.372,282.435,l,1,0.386,1,282.437,282.935,,,,,,456,MAS,NOWORD,DIS,150,riaso,,la,,0.386,,282.935,282.936,0.321296296,-0.141666667,0,0,0,,0,110,110,455,1,reino,,,,,
,,,,,,5d936374253d0a0017f32d96,676192165fb32c2e1fb7aee6,67d1ab7be052c53961de06c7,2025-03-12_16h43.26.413,Tarea de decisión léxica,2024.2.5,Win32,60.0240096,,,,,,,,,,,,,,,,,,,,,,,282.938,284.02,l,1,0.408,1,284.02,284.519,,,,,,162,MAS,NOWORD,AGR,150,bopo,,el,,0.408,,284.519,284.519,0.321296296,-0.141666667,0,0,0,,0,111,111,161,1,coro,,,,,
,,,,,,5d936374253d0a0017f32d96,676192165fb32c2e1fb7aee6,67d1ab7be052c53961de06c7,2025-03-12_16h43.26.413,Tarea de decisión léxica,2024.2.5,Win32,60.0240096,,,,,,,,,,,,,,,,,,,,,,,284.521,285.602,l,1,0.401,1,285.602,286.102,,,,,,372,FEM,NOWORD,DIS,150,mosta,,el,,0.401,,286.103,286.107,0.321296296,-0.141666667,0,0,0,,0,112,112,371,1,pasta,,,,,
,,,,,,5d936374253d0a0017f32d96,676192165fb32c2e1fb7aee6,67d1ab7be052c53961de06c7,2025-03-12_16h43.26.413,Tarea de decisión léxica,2024.2.5,Win32,60.0240096,,,,,,,,,,,,,,,,,,,,,,,286.109,287.185,a,1,0.401,1,287.185,287.685,,,,,,183,FEM,WORD,DIS,150,raya,,el,,0.401,,287.685,287.686,0.321296296,-0.141666667,0,0,0,,0,113,113,182,1,raad,,,,,
,,,,,,5d936374253d0a0017f32d96,676192165fb32c2e1fb7aee6,67d1ab7be052c53961de06c7,2025-03-12_16h43.26.413,Tarea de decisión léxica,2024.2.5,Win32,60.0240096,,,,,,,,,,,,,,,,,,,,,,,287.687,288.785,l,1,0.417,1,288.786,289.285,,,,,,202,FEM,NOWORD,AGR,150,cusa,,la,,0.417,,289.285,289.285,0.321296296,-0.141666667,0,0,0,,0,114,114,201,1,cuna,,,,,
,,,,,,5d936374253d0a0017f32d96,676192165fb32c2e1fb7aee6,67d1ab7be052c53961de06c7,2025-03-12_16h43.26.413,Tarea de decisión léxica,2024.2.5,Win32,60.0240096,,,,,,,,,,,,,,,,,,,,,,,289.287,290.37,a,1,0.4,1,290.371,290.869,,,,,,417,FEM,WORD,AGR,150,barba,,la,,0.4,,290.869,290.869,0.321296296,-0.141666667,0,0,0,,0,115,115,416,1,banja,,,,,
,,,,,,5d936374253d0a0017f32d96,676192165fb32c2e1fb7aee6,67d1ab7be052c53961de06c7,2025-03-12_16h43.26.413,Tarea de decisión léxica,2024.2.5,Win32,60.0240096,,,,,,,,,,,,,,,,,,,,,,,290.873,292.085,l,1,0.535,1,292.085,292.586,,,,,,434,MAS,NOWORD,AGR,150,durco,,el,,0.535,,292.586,292.586,0.321296296,-0.141666667,0,0,0,,0,116,116,433,1,disco,,,,,
,,,,,,5d936374253d0a0017f32d96,676192165fb32c2e1fb7aee6,67d1ab7be052c53961de06c7,2025-03-12_16h43.26.413,Tarea de decisión léxica,2024.2.5,Win32,60.0240096,,,,,,,,,,,,,,,,,,,,,,,292.589,293.868,a,1,0.603,1,293.87,294.368,,,,,,67,FEM,WORD,DIS,150,nena,,el,,0.603,,294.371,294.373,0.321296296,-0.141666667,0,0,0,,0,117,117,66,1,gesa,,,,,
,,,,,,5d936374253d0a0017f32d96,676192165fb32c2e1fb7aee6,67d1ab7be052c53961de06c7,2025-03-12_16h43.26.413,Tarea de decisión léxica,2024.2.5,Win32,60.0240096,,,,,,,,,,,,,,,,,,,,,,,294.375,295.552,l,1,0.501,1,295.552,296.052,,,,,,310,FEM,NOWORD,AGR,150,tirra,,la,,0.501,,296.052,296.052,0.321296296,-0.141666667,0,0,0,,0,118,118,309,1,silla,,,,,
,,,,,,5d936374253d0a0017f32d96,676192165fb32c2e1fb7aee6,67d1ab7be052c53961de06c7,2025-03-12_16h43.26.413,Tarea de decisión léxica,2024.2.5,Win32,60.0240096,,,,,,,,,,,,,,,,,,,,,,,296.054,297.135,a,1,0.404,1,297.135,297.635,,,,,,203,FEM,WORD,DIS,150,leña,,el,,0.404,,297.635,297.635,0.321296296,-0.141666667,0,0,0,,0,119,119,202,1,beja,,,,,
,,,,,,5d936374253d0a0017f32d96,676192165fb32c2e1fb7aee6,67d1ab7be052c53961de06c7,2025-03-12_16h43.26.413,Tarea de decisión léxica,2024.2.5,Win32,60.0240096,,,,,,,,,,,,,,,,,,,,,,,297.636,298.618,a,1,0.307,1,298.618,299.118,,,,,,445,MAS,WORD,AGR,150,actor,,el,,0.307,,299.119,299.119,0.321296296,-0.141666667,0,0,0,,0,120,120,444,1,ascor,,,,,
,,,,,,5d936374253d0a0017f32d96,676192165fb32c2e1fb7aee6,67d1ab7be052c53961de06c7,2025-03-12_16h43.26.413,Tarea de decisión léxica,2024.2.5,Win32,60.0240096,,,,,,,,,,,,,,,,,,,,,,,299.12,300.168,l,1,0.369,1,300.169,300.668,,,,,,12,MAS,NOWORD,DIS,150,bapo,,la,,0.369,,300.668,300.669,0.321296296,-0.141666667,0,0,0,,0,121,121,11,1,lado,,,,,
,,,,,,5d936374253d0a0017f32d96,676192165fb32c2e1fb7aee6,67d1ab7be052c53961de06c7,2025-03-12_16h43.26.413,Tarea de decisión léxica,2024.2.5,Win32,60.0240096,,,,,,,,,,,,,,,,,,,,,,,300.67,301.669,l,1,0.317,1,301.669,302.168,,,,,,186,MAS,NOWORD,AGR,150,raol,,el,,0.317,,302.171,302.176,0.321296296,-0.141666667,0,0,0,,0,122,122,185,1,baúl,,,,,
,,,,,,5d936374253d0a0017f32d96,676192165fb32c2e1fb7aee6,67d1ab7be052c53961de06c7,2025-03-12_16h43.26.413,Tarea de decisión léxica,2024.2.5,Win32,60.0240096,,,,,,,,,,,,,,,,,,,,,,,302.177,303.169,a,1,0.318,1,303.17,303.668,,,,,,295,MAS,WORD,DIS,150,dolor,,la,,0.318,,303.668,303.669,0.321296296,-0.141666667,0,0,0,,0,123,123,294,1,goler,,,,,
,,,,,,5d936374253d0a0017f32d96,676192165fb32c2e1fb7aee6,67d1ab7be052c53961de06c7,2025-03-12_16h43.26.413,Tarea de decisión léxica,2024.2.5,Win32,60.0240096,,,,,,,,,,,,,,,,,,,,,,,303.67,304.635,l,1,0.283,1,304.636,305.135,,,,,,324,FEM,NOWORD,DIS,150,certa,,el,,0.283,,305.135,305.136,0.321296296,-0.141666667,0,0,0,,0,124,124,323,1,cinta,,,,,
,,,,,,5d936374253d0a0017f32d96,676192165fb32c2e1fb7aee6,67d1ab7be052c53961de06c7,2025-03-12_16h43.26.413,Tarea de decisión léxica,2024.2.5,Win32,60.0240096,,,,,,,,,,,,,,,,,,,,,,,305.138,306.152,a,1,0.336,1,306.152,306.651,,,,,,405,FEM,WORD,AGR,150,barra,,la,,0.336,,306.651,306.651,0.321296296,-0.141666667,0,0,0,,0,125,125,404,1,rarra,,,,,
,,,,,,5d936374253d0a0017f32d96,676192165fb32c2e1fb7aee6,67d1ab7be052c53961de06c7,2025-03-12_16h43.26.413,Tarea de decisión léxica,2024.2.5,Win32,60.0240096,,,,,,,,,,,,,,,,,,,,,,,306.653,307.669,l,1,0.333,1,307.669,308.168,,,,,,112,MAS,NOWORD,DIS,150,siro,,la,,0.333,,308.169,308.169,0.321296296,-0.141666667,0,0,0,,0,126,126,111,1,muro,,,,,
,,,,,,5d936374253d0a0017f32d96,676192165fb32c2e1fb7aee6,67d1ab7be052c53961de06c7,2025-03-12_16h43.26.413,Tarea de decisión léxica,2024.2.5,Win32,60.0240096,,,,,,,,,,,,,,,,,,,,,,,308.171,309.255,a,1,0.41,1,309.257,309.753,,,,,,93,FEM,WORD,AGR,150,bola,,la,,0.41,,309.758,309.763,0.321296296,-0.141666667,0,0,0,,0,127,127,92,1,rona,,,,,
,,,,,,5d936374253d0a0017f32d96,676192165fb32c2e1fb7aee6,67d1ab7be052c53961de06c7,2025-03-12_16h43.26.413,Tarea de decisión léxica,2024.2.5,Win32,60.0240096,,,,,,,,,,,,,,,,,,,,,,,309.766,310.835,a,1,0.402,1,310.837,311.335,,,,,,311,MAS,WORD,DIS,150,honor,,la,,0.402,,311.335,311.335,0.321296296,-0.141666667,0,0,0,,0,128,128,310,1,nosor,,,,,
,,,,,,5d936374253d0a0017f32d96,676192165fb32c2e1fb7aee6,67d1ab7be052c53961de06c7,2025-03-12_16h43.26.413,Tarea de decisión léxica,2024.2.5,Win32,60.0240096,,,,,,,,,,,,,,,,,,,,,,,311.337,312.252,a,1,0.243,1,312.252,312.752,,,,,,291,FEM,WORD,DIS,150,pista,,el,,0.243,,312.752,312.753,0.321296296,-0.141666667,0,0,0,,0,129,129,290,1,mesta,,,,,
,,,,,,5d936374253d0a0017f32d96,676192165fb32c2e1fb7aee6,67d1ab7be052c53961de06c7,2025-03-12_16h43.26.413,Tarea de decisión léxica,2024.2.5,Win32,60.0240096,,,,,,,,,,,,,,,,,,,,,,,312.756,313.785,a,1,0.352,1,313.785,314.286,,,,,,129,MAS,WORD,AGR,150,oído,,el,,0.352,,314.286,314.286,0.321296296,-0.141666667,0,0,0,,0,130,130,128,1,pima,,,,,
,,,,,,5d936374253d0a0017f32d96,676192165fb32c2e1fb7aee6,67d1ab7be052c53961de06c7,2025-03-12_16h43.26.413,Tarea de decisión léxica,2024.2.5,Win32,60.0240096,,,,,,,,,,,,,,,,,,,,,,,314.289,315.269,a,1,0.299,1,315.27,315.768,,,,,,477,MAS,WORD,AGR,150,botón,,el,,0.299,,315.77,315.772,0.321296296,-0.141666667,0,0,0,,0,131,131,476,1,hocon,,,,,
,,,,,,5d936374253d0a0017f32d96,676192165fb32c2e1fb7aee6,67d1ab7be052c53961de06c7,2025-03-12_16h43.26.413,Tarea de decisión léxica,2024.2.5,Win32,60.0240096,,,,,,,,,,,,,,,,,,,,,,,315.773,316.819,l,1,0.367,1,316.82,317.319,,,,,,194,FEM,NOWORD,AGR,150,foda,,la,,0.367,,317.319,317.319,0.321296296,-0.141666667,0,0,0,,0,132,132,193,1,loca,,,,,
,,,,,,5d936374253d0a0017f32d96,676192165fb32c2e1fb7aee6,67d1ab7be052c53961de06c7,2025-03-12_16h43.26.413,Tarea de decisión léxica,2024.2.5,Win32,60.0240096,,,,,,,,,,,,,,,,,,,,,,,317.321,318.485,a,1,0.485,1,318.485,318.985,,,,,,191,FEM,WORD,DIS,150,pila,,el,,0.485,,318.985,318.986,0.321296296,-0.141666667,0,0,0,,0,133,133,190,1,bila,,,,,
,,,,,,5d936374253d0a0017f32d96,676192165fb32c2e1fb7aee6,67d1ab7be052c53961de06c7,2025-03-12_16h43.26.413,Tarea de decisión léxica,2024.2.5,Win32,60.0240096,,,,,,,,,,,,,,,,,,,,,,,318.988,320.052,l,1,0.386,1,320.053,320.551,,,,,,316,FEM,NOWORD,DIS,150,riosa,,el,,0.386,,320.551,320.552,0.321296296,-0.141666667,0,0,0,,0,134,134,315,1,reina,,,,,
,,,,,,5d936374253d0a0017f32d96,676192165fb32c2e1fb7aee6,67d1ab7be052c53961de06c7,2025-03-12_16h43.26.413,Tarea de decisión léxica,2024.2.5,Win32,60.0240096,,,,,,,,,,,,,,,,,,,,,,,320.553,321.652,l,1,0.417,1,321.653,322.151,,,,,,88,MAS,NOWORD,DIS,150,damo,,la,,0.417,,322.151,322.151,0.321296296,-0.141666667,0,0,0,,0,135,135,87,1,vaso,,,,,
,,,,,,5d936374253d0a0017f32d96,676192165fb32c2e1fb7aee6,67d1ab7be052c53961de06c7,2025-03-12_16h43.26.413,Tarea de decisión léxica,2024.2.5,Win32,60.0240096,,,,,,,,,,,,,,,,,,,,,,,322.153,323.302,l,1,0.468,1,323.302,323.801,,,,,,6,FEM,NOWORD,AGR,150,poga,,la,,0.468,,323.803,323.804,0.321296296,-0.141666667,0,0,0,,0,136,136,5,1,cosa,,,,,
,,,,,,5d936374253d0a0017f32d96,676192165fb32c2e1fb7aee6,67d1ab7be052c53961de06c7,2025-03-12_16h43.26.413,Tarea de decisión léxica,2024.2.5,Win32,60.0240096,,,,,,,,,,,,,,,,,,,,,,,323.806,324.835,l,1,0.352,1,324.835,325.335,,,,,,96,FEM,NOWORD,DIS,151,neda,,el,,0.352,,325.335,325.335,0.321296296,-0.141666667,0,0,0,,0,137,137,95,1,moda,,,,,
,,,,,,5d936374253d0a0017f32d96,676192165fb32c2e1fb7aee6,67d1ab7be052c53961de06c7,2025-03-12_16h43.26.413,Tarea de decisión léxica,2024.2.5,Win32,60.0240096,,,,,,,,,,,,,,,,,,,,,,,325.336,326.735,l,1,0.721,1,326.736,327.235,,,,,,28,MAS,NOWORD,DIS,150,ravo,,la,,0.721,,327.235,327.235,0.321296296,-0.141666667,0,0,0,,0,138,138,27,1,baño,,,,,
,,,,,,5d936374253d0a0017f32d96,676192165fb32c2e1fb7aee6,67d1ab7be052c53961de06c7,2025-03-12_16h43.26.413,Tarea de decisión léxica,2024.2.5,Win32,60.0240096,,,,,,,,,,,,,,,,,,,,,,,327.236,328.936,a,1,1.023,1,328.936,329.435,,,,,,151,MAS,WORD,DIS,150,tomo,,la,,1.023,,329.435,329.435,0.321296296,-0.141666667,0,0,0,,0,139,139,150,1,sogo,,,,,
,,,,,,5d936374253d0a0017f32d96,676192165fb32c2e1fb7aee6,67d1ab7be052c53961de06c7,2025-03-12_16h43.26.413,Tarea de decisión léxica,2024.2.5,Win32,60.0240096,,,,,,,,,,,,,,,,,,,,,,,329.438,330.551,a,1,0.432,1,330.552,331.052,,,,,,343,FEM,WORD,DIS,150,plata,,el,,0.432,,331.052,331.052,0.321296296,-0.141666667,0,0,0,,0,140,140,342,1,trada,,,,,
,,,,,,5d936374253d0a0017f32d96,676192165fb32c2e1fb7aee6,67d1ab7be052c53961de06c7,2025-03-12_16h43.26.413,Tarea de decisión léxica,2024.2.5,Win32,60.0240096,,,,,,,,,,,,,,,,,,,,,,,331.053,332.168,l,1,0.433,1,332.169,332.668,,,,,,176,FEM,NOWORD,DIS,150,hosa,,el,,0.433,,332.67,332.672,0.321296296,-0.141666667,0,0,0,,0,141,141,175,1,goma,,,,,
,,,,,,5d936374253d0a0017f32d96,676192165fb32c2e1fb7aee6,67d1ab7be052c53961de06c7,2025-03-12_16h43.26.413,Tarea de decisión léxica,2024.2.5,Win32,60.0240096,,,,,,,,,,,,,,,,,,,,,,,332.674,333.702,a,1,0.348,1,333.702,334.202,,,,,,259,MAS,WORD,DIS,150,juego,,la,,0.348,,334.202,334.202,0.321296296,-0.141666667,0,0,0,,0,142,142,258,1,jaumo,,,,,
,,,,,,5d936374253d0a0017f32d96,676192165fb32c2e1fb7aee6,67d1ab7be052c53961de06c7,2025-03-12_16h43.26.413,Tarea de decisión léxica,2024.2.5,Win32,60.0240096,,,,,,,,,,,,,,,,,,,,,,,334.204,335.235,l,1,0.352,1,335.235,335.735,,,,,,398,FEM,NOWORD,AGR,150,trigi,,la,,0.352,,335.735,335.735,0.321296296,-0.141666667,0,0,0,,0,143,143,397,1,tribu,,,,,
,,,,,,5d936374253d0a0017f32d96,676192165fb32c2e1fb7aee6,67d1ab7be052c53961de06c7,2025-03-12_16h43.26.413,Tarea de decisión léxica,2024.2.5,Win32,60.0240096,,,,,,,,,,,,,,,,,,,,,,,335.736,336.769,l,1,0.369,1,336.769,337.268,,,,,,72,FEM,NOWORD,DIS,150,urla,,el,,0.369,,337.268,337.268,0.321296296,-0.141666667,0,0,0,,0,144,144,71,1,isla,,,,,
,,,,,,5d936374253d0a0017f32d96,676192165fb32c2e1fb7aee6,67d1ab7be052c53961de06c7,2025-03-12_16h43.26.413,Tarea de decisión léxica,2024.2.5,Win32,60.0240096,,,,,,,,,,,,,,,,,,,,,,,337.269,338.418,l,1,0.466,1,338.419,338.919,,,,,,304,MAS,NOWORD,DIS,150,lanco,,la,,0.466,,338.919,338.919,0.321296296,-0.141666667,0,0,0,,0,145,145,303,1,barco,,,,,
,,,,,,5d936374253d0a0017f32d96,676192165fb32c2e1fb7aee6,67d1ab7be052c53961de06c7,2025-03-12_16h43.26.413,Tarea de decisión léxica,2024.2.5,Win32,60.0240096,,,,,,,,,,,,,,,,,,,,,,,338.92,340.051,a,1,0.456,1,340.052,340.552,,,,,,209,MAS,WORD,AGR,150,velo,,el,,0.456,,340.553,340.555,0.321296296,-0.141666667,0,0,0,,0,146,146,208,1,dero,,,,,
,,,,,,5d936374253d0a0017f32d96,676192165fb32c2e1fb7aee6,67d1ab7be052c53961de06c7,2025-03-12_16h43.26.413,Tarea de decisión léxica,2024.2.5,Win32,60.0240096,,,,,,,,,,,,,,,,,,,,,,,340.556,341.751,l,1,0.518,1,341.752,342.252,,,,,,424,MAS,NOWORD,DIS,150,quigo,,la,,0.518,,342.252,342.252,0.321296296,-0.141666667,0,0,0,,0,147,147,423,1,queso,,,,,
,,,,,,5d936374253d0a0017f32d96,676192165fb32c2e1fb7aee6,67d1ab7be052c53961de06c7,2025-03-12_16h43.26.413,Tarea de decisión léxica,2024.2.5,Win32,60.0240096,,,,,,,,,,,,,,,,,,,,,,,342.254,343.387,l,1,0.453,1,343.388,343.885,,,,,,140,MAS,NOWORD,DIS,150,nila,,la,,0.453,,343.885,343.886,0.321296296,-0.141666667,0,0,0,,0,148,148,139,1,mago,,,,,
,,,,,,5d936374253d0a0017f32d96,676192165fb32c2e1fb7aee6,67d1ab7be052c53961de06c7,2025-03-12_16h43.26.413,Tarea de decisión léxica,2024.2.5,Win32,60.0240096,,,,,,,,,,,,,,,,,,,,,,,343.89,345.002,l,1,0.436,1,345.002,345.502,,,,,,238,MAS,NOWORD,AGR,150,huco,,el,,0.436,,345.502,345.502,0.321296296,-0.141666667,0,0,0,,0,149,149,237,1,nudo,,,,,
,,,,,,5d936374253d0a0017f32d96,676192165fb32c2e1fb7aee6,67d1ab7be052c53961de06c7,2025-03-12_16h43.26.413,Tarea de decisión léxica,2024.2.5,Win32,60.0240096,,,,,,,,,,,,,,,,,,,,,,,345.504,346.535,a,1,0.347,1,346.535,347.035,,,,,,377,MAS,WORD,AGR,150,hielo,,el,,0.347,,347.035,347.036,0.321296296,-0.141666667,0,0,0,,0,150,150,376,1,gaulo,,,,,
,,,,,,5d936374253d0a0017f32d96,676192165fb32c2e1fb7aee6,67d1ab7be052c53961de06c7,2025-03-12_16h43.26.413,Tarea de decisión léxica,2024.2.5,Win32,60.0240096,,,,,,,,,,,,,,,,,,,,,,,347.038,348.052,a,1,0.334,1,348.053,348.552,,,,,,141,FEM,WORD,AGR,150,cruz,,la,,0.334,,348.554,348.558,0.321296296,-0.141666667,0,0,0,,0,151,151,140,1,sina,,,,,
,,,,,,5d936374253d0a0017f32d96,676192165fb32c2e1fb7aee6,67d1ab7be052c53961de06c7,2025-03-12_16h43.26.413,Tarea de decisión léxica,2024.2.5,Win32,60.0240096,,,,,,,,,,,,,,,,,,,,,,,348.56,349.586,l,1,0.352,1,349.587,350.085,,,,,,110,MAS,NOWORD,AGR,150,suno,,el,,0.352,,350.085,350.085,0.321296296,-0.141666667,0,0,0,,0,152,152,109,1,rayo,,,,,
,,,,,,5d936374253d0a0017f32d96,676192165fb32c2e1fb7aee6,67d1ab7be052c53961de06c7,2025-03-12_16h43.26.413,Tarea de decisión léxica,2024.2.5,Win32,60.0240096,,,,,,,,,,,,,,,,,,,,,,,350.086,351.119,l,1,0.351,1,351.119,351.618,,,,,,34,FEM,NOWORD,AGR,150,loda,,la,,0.351,,351.618,351.618,0.321296296,-0.141666667,0,0,0,,0,153,153,33,1,boca,,,,,
,,,,,,5d936374253d0a0017f32d96,676192165fb32c2e1fb7aee6,67d1ab7be052c53961de06c7,2025-03-12_16h43.26.413,Tarea de decisión léxica,2024.2.5,Win32,60.0240096,,,,,,,,,,,,,,,,,,,,,,,351.62,352.568,a,1,0.27,1,352.568,353.068,,,,,,329,MAS,WORD,AGR,150,hueso,,el,,0.27,,353.068,353.068,0.321296296,-0.141666667,0,0,0,,0,154,154,328,1,nueno,,,,,
,,,,,,5d936374253d0a0017f32d96,676192165fb32c2e1fb7aee6,67d1ab7be052c53961de06c7,2025-03-12_16h43.26.413,Tarea de decisión léxica,2024.2.5,Win32,60.0240096,,,,,,,,,,,,,,,,,,,,,,,353.07,354.101,l,1,0.351,1,354.102,354.602,,,,,,128,MAS,NOWORD,DIS,150,itio,,la,,0.351,,354.604,354.606,0.321296296,-0.141666667,0,0,0,,0,155,155,127,1,pico,,,,,
,,,,,,5d936374253d0a0017f32d96,676192165fb32c2e1fb7aee6,67d1ab7be052c53961de06c7,2025-03-12_16h43.26.413,Tarea de decisión léxica,2024.2.5,Win32,60.0240096,,,,,,,,,,,,,,,,,,,,,,,354.608,355.751,l,1,0.469,1,355.752,356.252,,,,,,164,FEM,NOWORD,DIS,150,laga,,el,,0.469,,356.252,356.252,0.321296296,-0.141666667,0,0,0,,0,156,156,163,1,fama,,,,,
,,,,,,5d936374253d0a0017f32d96,676192165fb32c2e1fb7aee6,67d1ab7be052c53961de06c7,2025-03-12_16h43.26.413,Tarea de decisión léxica,2024.2.5,Win32,60.0240096,,,,,,,,,,,,,,,,,,,,,,,356.255,357.285,a,1,0.358,1,357.286,357.786,,,,,,135,MAS,WORD,DIS,150,tubo,,la,,0.358,,357.786,357.786,0.321296296,-0.141666667,0,0,0,,0,157,157,134,1,geso,,,,,
,,,,,,5d936374253d0a0017f32d96,676192165fb32c2e1fb7aee6,67d1ab7be052c53961de06c7,2025-03-12_16h43.26.413,Tarea de decisión léxica,2024.2.5,Win32,60.0240096,,,,,,,,,,,,,,,,,,,,,,,357.788,358.818,l,1,0.353,1,358.819,359.319,,,,,,208,MAS,NOWORD,DIS,150,kedo,,la,,0.353,,359.319,359.319,0.321296296,-0.141666667,0,0,0,,0,158,158,207,1,kilo,,,,,
,,,,,,5d936374253d0a0017f32d96,676192165fb32c2e1fb7aee6,67d1ab7be052c53961de06c7,2025-03-12_16h43.26.413,Tarea de decisión léxica,2024.2.5,Win32,60.0240096,,,,,,,,,,,,,,,,,,,,,,,359.321,360.985,a,1,0.986,1,360.985,361.485,,,,,,47,MAS,WORD,DIS,150,club,,la,,0.986,,361.485,361.485,0.321296296,-0.141666667,0,0,0,,0,159,159,46,1,chub,,,,,
,,,,,,5d936374253d0a0017f32d96,676192165fb32c2e1fb7aee6,67d1ab7be052c53961de06c7,2025-03-12_16h43.26.413,Tarea de decisión léxica,2024.2.5,Win32,60.0240096,,,,,,,,,,,,,,,,,,,,,,,361.488,362.618,l,1,0.452,1,362.619,363.118,,,,,,276,MAS,NOWORD,DIS,150,musto,,la,,0.452,,363.12,367.185,0.321296296,-0.141666667,0,0,0,space,0,160,160,275,1,punto,4.03,,,,
,,,,,,5d936374253d0a0017f32d96,676192165fb32c2e1fb7aee6,67d1ab7be052c53961de06c7,2025-03-12_16h43.26.413,Tarea de decisión léxica,2024.2.5,Win32,60.0240096,,,,,,,,,,,,,,,,,,,,,,,367.188,368.435,l,1,0.569,1,368.436,368.935,,,,,,480,MAS,NOWORD,DIS,150,rimpo,,la,,0.569,,368.935,368.936,0.321296296,-0.141666667,0,0,0,,0,161,161,479,1,rumbo,,,,,
,,,,,,5d936374253d0a0017f32d96,676192165fb32c2e1fb7aee6,67d1ab7be052c53961de06c7,2025-03-12_16h43.26.413,Tarea de decisión léxica,2024.2.5,Win32,60.0240096,,,,,,,,,,,,,,,,,,,,,,,368.938,369.918,a,1,0.304,1,369.918,370.418,,,,,,373,FEM,WORD,AGR,150,pizza,,la,,0.304,,370.419,370.419,0.321296296,-0.141666667,0,0,0,,0,162,162,372,1,pogza,,,,,
,,,,,,5d936374253d0a0017f32d96,676192165fb32c2e1fb7aee6,67d1ab7be052c53961de06c7,2025-03-12_16h43.26.413,Tarea de decisión léxica,2024.2.5,Win32,60.0240096,,,,,,,,,,,,,,,,,,,,,,,370.421,371.42,a,1,0.316,1,371.42,371.918,,,,,,43,FEM,WORD,DIS,150,pena,,el,,0.316,,371.919,371.919,0.321296296,-0.141666667,0,0,0,,0,163,163,42,1,meda,,,,,
,,,,,,5d936374253d0a0017f32d96,676192165fb32c2e1fb7aee6,67d1ab7be052c53961de06c7,2025-03-12_16h43.26.413,Tarea de decisión léxica,2024.2.5,Win32,60.0240096,,,,,,,,,,,,,,,,,,,,,,,371.921,372.918,l,1,0.318,1,372.921,373.418,,,,,,396,FEM,NOWORD,DIS,150,paeda,,el,,0.318,,373.418,373.418,0.321296296,-0.141666667,0,0,0,,0,164,164,395,1,caída,,,,,
,,,,,,5d936374253d0a0017f32d96,676192165fb32c2e1fb7aee6,67d1ab7be052c53961de06c7,2025-03-12_16h43.26.413,Tarea de decisión léxica,2024.2.5,Win32,60.0240096,,,,,,,,,,,,,,,,,,,,,,,373.421,374.417,a,1,0.316,1,374.417,374.918,,,,,,33,FEM,WORD,AGR,150,boca,,la,,0.316,,374.92,374.923,0.321296296,-0.141666667,0,0,0,,0,165,165,32,1,loda,,,,,
,,,,,,5d936374253d0a0017f32d96,676192165fb32c2e1fb7aee6,67d1ab7be052c53961de06c7,2025-03-12_16h43.26.413,Tarea de decisión léxica,2024.2.5,Win32,60.0240096,,,,,,,,,,,,,,,,,,,,,,,374.925,375.935,a,1,0.338,1,375.935,376.435,,,,,,31,FEM,WORD,DIS,150,ropa,,el,,0.338,,376.435,376.435,0.321296296,-0.141666667,0,0,0,,0,166,166,30,1,bova,,,,,
,,,,,,5d936374253d0a0017f32d96,676192165fb32c2e1fb7aee6,67d1ab7be052c53961de06c7,2025-03-12_16h43.26.413,Tarea de decisión léxica,2024.2.5,Win32,60.0240096,,,,,,,,,,,,,,,,,,,,,,,376.437,377.436,l,1,0.317,1,377.437,377.935,,,,,,8,MAS,NOWORD,DIS,150,nivo,,la,,0.317,,377.936,377.937,0.321296296,-0.141666667,0,0,0,,0,167,167,7,1,hijo,,,,,
,,,,,,5d936374253d0a0017f32d96,676192165fb32c2e1fb7aee6,67d1ab7be052c53961de06c7,2025-03-12_16h43.26.413,Tarea de decisión léxica,2024.2.5,Win32,60.0240096,,,,,,,,,,,,,,,,,,,,,,,377.942,378.968,l,1,0.353,1,378.968,379.468,,,,,,426,FEM,NOWORD,AGR,150,virca,,la,,0.353,,379.468,379.469,0.321296296,-0.141666667,0,0,0,,0,168,168,425,1,viuda,,,,,
,,,,,,5d936374253d0a0017f32d96,676192165fb32c2e1fb7aee6,67d1ab7be052c53961de06c7,2025-03-12_16h43.26.413,Tarea de decisión léxica,2024.2.5,Win32,60.0240096,,,,,,,,,,,,,,,,,,,,,,,379.471,380.434,a,1,0.288,1,380.435,380.934,,,,,,231,FEM,WORD,DIS,150,bota,,el,,0.288,,380.934,380.935,0.321296296,-0.141666667,0,0,0,,0,169,169,230,1,heta,,,,,
,,,,,,5d936374253d0a0017f32d96,676192165fb32c2e1fb7aee6,67d1ab7be052c53961de06c7,2025-03-12_16h43.26.413,Tarea de decisión léxica,2024.2.5,Win32,60.0240096,,,,,,,,,,,,,,,,,,,,,,,380.936,381.951,a,1,0.352,1,381.952,382.451,,,,,,215,FEM,WORD,DIS,150,raíz,,el,,0.352,,382.452,382.455,0.321296296,-0.141666667,0,0,0,,0,170,170,214,1,raua,,,,,
,,,,,,5d936374253d0a0017f32d96,676192165fb32c2e1fb7aee6,67d1ab7be052c53961de06c7,2025-03-12_16h43.26.413,Tarea de decisión léxica,2024.2.5,Win32,60.0240096,,,,,,,,,,,,,,,,,,,,,,,382.457,383.485,l,0,0.355,0,383.486,383.985,,,,,,149,MAS,WORD,AGR,150,cabo,,el,,0.355,,383.985,383.986,0.321296296,-0.141666667,0,0,0,,0,171,171,148,1,pafo,,,,,
,,,,,,5d936374253d0a0017f32d96,676192165fb32c2e1fb7aee6,67d1ab7be052c53961de06c7,2025-03-12_16h43.26.413,Tarea de decisión léxica,2024.2.5,Win32,60.0240096,,,,,,,,,,,,,,,,,,,,,,,383.988,384.985,a,1,0.32,1,384.986,385.485,,,,,,369,MAS,WORD,AGR,150,ruido,,el,,0.32,,385.485,385.485,0.321296296,-0.141666667,0,0,0,,0,172,172,368,1,rioco,,,,,
,,,,,,5d936374253d0a0017f32d96,676192165fb32c2e1fb7aee6,67d1ab7be052c53961de06c7,2025-03-12_16h43.26.413,Tarea de decisión léxica,2024.2.5,Win32,60.0240096,,,,,,,,,,,,,,,,,,,,,,,385.488,386.585,a,1,0.433,1,386.586,387.085,,,,,,81,FEM,WORD,AGR,150,dama,,la,,0.433,,387.085,387.085,0.321296296,-0.141666667,0,0,0,,0,173,173,80,1,vasa,,,,,
,,,,,,5d936374253d0a0017f32d96,676192165fb32c2e1fb7aee6,67d1ab7be052c53961de06c7,2025-03-12_16h43.26.413,Tarea de decisión léxica,2024.2.5,Win32,60.0240096,,,,,,,,,,,,,,,,,,,,,,,387.088,388.152,l,0,0.384,0,388.154,388.651,,,,,,397,FEM,WORD,AGR,150,tribu,,la,,0.384,,388.651,388.651,0.321296296,-0.141666667,0,0,0,,0,174,174,396,1,trigi,,,,,
,,,,,,5d936374253d0a0017f32d96,676192165fb32c2e1fb7aee6,67d1ab7be052c53961de06c7,2025-03-12_16h43.26.413,Tarea de decisión léxica,2024.2.5,Win32,60.0240096,,,,,,,,,,,,,,,,,,,,,,,388.654,389.668,a,1,0.339,1,389.669,390.168,,,,,,163,FEM,WORD,DIS,150,fama,,el,,0.339,,390.169,390.172,0.321296296,-0.141666667,0,0,0,,0,175,175,162,1,laga,,,,,
,,,,,,5d936374253d0a0017f32d96,676192165fb32c2e1fb7aee6,67d1ab7be052c53961de06c7,2025-03-12_16h43.26.413,Tarea de decisión léxica,2024.2.5,Win32,60.0240096,,,,,,,,,,,,,,,,,,,,,,,390.173,391.351,l,1,0.502,1,391.352,391.851,,,,,,244,MAS,NOWORD,DIS,150,asamo,,la,,0.502,,391.851,391.851,0.321296296,-0.141666667,0,0,0,,0,176,176,243,1,amigo,,,,,
,,,,,,5d936374253d0a0017f32d96,676192165fb32c2e1fb7aee6,67d1ab7be052c53961de06c7,2025-03-12_16h43.26.413,Tarea de decisión léxica,2024.2.5,Win32,60.0240096,,,,,,,,,,,,,,,,,,,,,,,391.854,392.951,l,1,0.418,1,392.951,393.452,,,,,,478,MAS,NOWORD,AGR,150,hocon,,el,,0.418,,393.452,393.452,0.321296296,-0.141666667,0,0,0,,0,177,177,477,1,botón,,,,,
,,,,,,5d936374253d0a0017f32d96,676192165fb32c2e1fb7aee6,67d1ab7be052c53961de06c7,2025-03-12_16h43.26.413,Tarea de decisión léxica,2024.2.5,Win32,60.0240096,,,,,,,,,,,,,,,,,,,,,,,393.454,394.468,a,1,0.331,1,394.468,394.968,,,,,,463,FEM,WORD,DIS,150,cabra,,el,,0.331,,394.968,394.968,0.321296296,-0.141666667,0,0,0,,0,178,178,462,1,matla,,,,,
,,,,,,5d936374253d0a0017f32d96,676192165fb32c2e1fb7aee6,67d1ab7be052c53961de06c7,2025-03-12_16h43.26.413,Tarea de decisión léxica,2024.2.5,Win32,60.0240096,,,,,,,,,,,,,,,,,,,,,,,394.97,395.952,a,1,0.3,1,395.952,396.451,,,,,,51,FEM,WORD,DIS,150,caja,,el,,0.3,,396.452,396.454,0.321296296,-0.141666667,0,0,0,,0,179,179,50,1,mava,,,,,
,,,,,,5d936374253d0a0017f32d96,676192165fb32c2e1fb7aee6,67d1ab7be052c53961de06c7,2025-03-12_16h43.26.413,Tarea de decisión léxica,2024.2.5,Win32,60.0240096,,,,,,,,,,,,,,,,,,,,,,,396.456,397.518,l,1,0.383,1,397.519,398.018,,,,,,26,FEM,NOWORD,AGR,150,paza,,la,,0.383,,398.018,398.018,0.321296296,-0.141666667,0,0,0,,0,180,180,25,1,cama,,,,,
,,,,,,5d936374253d0a0017f32d96,676192165fb32c2e1fb7aee6,67d1ab7be052c53961de06c7,2025-03-12_16h43.26.413,Tarea de decisión léxica,2024.2.5,Win32,60.0240096,,,,,,,,,,,,,,,,,,,,,,,398.02,399.184,l,1,0.483,1,399.184,399.684,,,,,,446,MAS,NOWORD,AGR,150,ascor,,el,,0.483,,399.685,399.685,0.321296296,-0.141666667,0,0,0,,0,181,181,445,1,actor,,,,,
,,,,,,5d936374253d0a0017f32d96,676192165fb32c2e1fb7aee6,67d1ab7be052c53961de06c7,2025-03-12_16h43.26.413,Tarea de decisión léxica,2024.2.5,Win32,60.0240096,,,,,,,,,,,,,,,,,,,,,,,399.685,400.701,l,1,0.339,1,400.702,401.202,,,,,,150,MAS,NOWORD,AGR,150,pafo,,el,,0.339,,401.202,401.202,0.321296296,-0.141666667,0,0,0,,0,182,182,149,1,cabo,,,,,
,,,,,,5d936374253d0a0017f32d96,676192165fb32c2e1fb7aee6,67d1ab7be052c53961de06c7,2025-03-12_16h43.26.413,Tarea de decisión léxica,2024.2.5,Win32,60.0240096,,,,,,,,,,,,,,,,,,,,,,,401.204,402.168,l,1,0.305,1,402.169,402.668,,,,,,394,FEM,NOWORD,AGR,150,ashea,,la,,0.305,,402.668,402.668,0.321296296,-0.141666667,0,0,0,,0,183,183,393,1,aldea,,,,,
,,,,,,5d936374253d0a0017f32d96,676192165fb32c2e1fb7aee6,67d1ab7be052c53961de06c7,2025-03-12_16h43.26.413,Tarea de decisión léxica,2024.2.5,Win32,60.0240096,,,,,,,,,,,,,,,,,,,,,,,402.669,403.769,l,1,0.415,1,403.769,404.267,,,,,,420,MAS,NOWORD,DIS,150,chudo,,la,,0.415,,404.269,404.27,0.321296296,-0.141666667,0,0,0,,0,184,184,419,1,truco,,,,,
,,,,,,5d936374253d0a0017f32d96,676192165fb32c2e1fb7aee6,67d1ab7be052c53961de06c7,2025-03-12_16h43.26.413,Tarea de decisión léxica,2024.2.5,Win32,60.0240096,,,,,,,,,,,,,,,,,,,,,,,404.272,405.251,a,1,0.303,1,405.252,405.752,,,,,,389,MAS,WORD,AGR,150,cerdo,,el,,0.303,,405.752,405.753,0.321296296,-0.141666667,0,0,0,,0,185,185,388,1,cenco,,,,,
,,,,,,5d936374253d0a0017f32d96,676192165fb32c2e1fb7aee6,67d1ab7be052c53961de06c7,2025-03-12_16h43.26.413,Tarea de decisión léxica,2024.2.5,Win32,60.0240096,,,,,,,,,,,,,,,,,,,,,,,405.754,406.837,a,1,0.405,1,406.838,407.334,,,,,,439,FEM,WORD,DIS,150,presa,,el,,0.405,,407.335,407.336,0.321296296,-0.141666667,0,0,0,,0,186,186,438,1,prema,,,,,
,,,,,,5d936374253d0a0017f32d96,676192165fb32c2e1fb7aee6,67d1ab7be052c53961de06c7,2025-03-12_16h43.26.413,Tarea de decisión léxica,2024.2.5,Win32,60.0240096,,,,,,,,,,,,,,,,,,,,,,,407.342,408.318,a,1,0.302,1,408.319,408.818,,,,,,77,MAS,WORD,AGR,150,loco,,el,,0.302,,408.818,408.818,0.321296296,-0.141666667,0,0,0,,0,187,187,76,1,fodo,,,,,
,,,,,,5d936374253d0a0017f32d96,676192165fb32c2e1fb7aee6,67d1ab7be052c53961de06c7,2025-03-12_16h43.26.413,Tarea de decisión léxica,2024.2.5,Win32,60.0240096,,,,,,,,,,,,,,,,,,,,,,,408.821,409.819,a,1,0.325,1,409.819,410.318,,,,,,419,MAS,WORD,DIS,150,truco,,la,,0.325,,410.318,410.318,0.321296296,-0.141666667,0,0,0,,0,188,188,418,1,chudo,,,,,
,,,,,,5d936374253d0a0017f32d96,676192165fb32c2e1fb7aee6,67d1ab7be052c53961de06c7,2025-03-12_16h43.26.413,Tarea de decisión léxica,2024.2.5,Win32,60.0240096,,,,,,,,,,,,,,,,,,,,,,,410.321,411.351,a,1,0.352,1,411.353,411.851,,,,,,267,MAS,WORD,DIS,150,libro,,la,,0.352,,411.854,411.857,0.321296296,-0.141666667,0,0,0,,0,189,189,266,1,figro,,,,,
,,,,,,5d936374253d0a0017f32d96,676192165fb32c2e1fb7aee6,67d1ab7be052c53961de06c7,2025-03-12_16h43.26.413,Tarea de decisión léxica,2024.2.5,Win32,60.0240096,,,,,,,,,,,,,,,,,,,,,,,411.858,412.834,a,1,0.301,1,412.835,413.335,,,,,,469,MAS,WORD,AGR,150,patio,,el,,0.301,,413.335,413.335,0.321296296,-0.141666667,0,0,0,,0,190,190,468,1,matia,,,,,
,,,,,,5d936374253d0a0017f32d96,676192165fb32c2e1fb7aee6,67d1ab7be052c53961de06c7,2025-03-12_16h43.26.413,Tarea de decisión léxica,2024.2.5,Win32,60.0240096,,,,,,,,,,,,,,,,,,,,,,,413.336,414.384,l,1,0.367,1,414.384,414.885,,,,,,292,FEM,NOWORD,DIS,150,mesta,,el,,0.367,,414.885,414.885,0.321296296,-0.141666667,0,0,0,,0,191,191,291,1,pista,,,,,
,,,,,,5d936374253d0a0017f32d96,676192165fb32c2e1fb7aee6,67d1ab7be052c53961de06c7,2025-03-12_16h43.26.413,Tarea de decisión léxica,2024.2.5,Win32,60.0240096,,,,,,,,,,,,,,,,,,,,,,,414.887,416.001,a,1,0.431,1,416.002,416.502,,,,,,241,MAS,WORD,AGR,150,mundo,,el,,0.431,,416.502,416.502,0.321296296,-0.141666667,0,0,0,,0,192,192,240,1,mirdo,,,,,
,,,,,,5d936374253d0a0017f32d96,676192165fb32c2e1fb7aee6,67d1ab7be052c53961de06c7,2025-03-12_16h43.26.413,Tarea de decisión léxica,2024.2.5,Win32,60.0240096,,,,,,,,,,,,,,,,,,,,,,,416.504,417.535,a,1,0.353,1,417.536,418.035,,,,,,307,MAS,WORD,DIS,150,hotel,,la,,0.353,,418.035,418.035,0.321296296,-0.141666667,0,0,0,,0,193,193,306,1,holol,,,,,
,,,,,,5d936374253d0a0017f32d96,676192165fb32c2e1fb7aee6,67d1ab7be052c53961de06c7,2025-03-12_16h43.26.413,Tarea de decisión léxica,2024.2.5,Win32,60.0240096,,,,,,,,,,,,,,,,,,,,,,,418.038,419.052,a,1,0.333,1,419.052,419.552,,,,,,89,MAS,WORD,AGR,150,humo,,el,,0.333,,419.552,419.556,0.321296296,-0.141666667,0,0,0,,0,194,194,88,1,guso,,,,,
,,,,,,5d936374253d0a0017f32d96,676192165fb32c2e1fb7aee6,67d1ab7be052c53961de06c7,2025-03-12_16h43.26.413,Tarea de decisión léxica,2024.2.5,Win32,60.0240096,,,,,,,,,,,,,,,,,,,,,,,419.558,420.618,l,1,0.384,1,420.619,421.118,,,,,,258,FEM,NOWORD,AGR,150,asama,,la,,0.384,,421.118,421.119,0.321296296,-0.141666667,0,0,0,,0,195,195,257,1,amiga,,,,,
,,,,,,5d936374253d0a0017f32d96,676192165fb32c2e1fb7aee6,67d1ab7be052c53961de06c7,2025-03-12_16h43.26.413,Tarea de decisión léxica,2024.2.5,Win32,60.0240096,,,,,,,,,,,,,,,,,,,,,,,421.121,422.068,l,0,0.268,0,422.072,422.568,,,,,,473,FEM,WORD,AGR,150,feria,,la,,0.268,,422.568,422.568,0.321296296,-0.141666667,0,0,0,,0,196,196,472,1,felia,,,,,
,,,,,,5d936374253d0a0017f32d96,676192165fb32c2e1fb7aee6,67d1ab7be052c53961de06c7,2025-03-12_16h43.26.413,Tarea de decisión léxica,2024.2.5,Win32,60.0240096,,,,,,,,,,,,,,,,,,,,,,,422.571,423.551,a,1,0.302,1,423.552,424.051,,,,,,45,FEM,WORD,AGR,150,mesa,,la,,0.302,,424.051,424.051,0.321296296,-0.141666667,0,0,0,,0,197,197,44,1,pema,,,,,
,,,,,,5d936374253d0a0017f32d96,676192165fb32c2e1fb7aee6,67d1ab7be052c53961de06c7,2025-03-12_16h43.26.413,Tarea de decisión léxica,2024.2.5,Win32,60.0240096,,,,,,,,,,,,,,,,,,,,,,,424.053,425.085,l,1,0.353,1,425.085,425.584,,,,,,348,FEM,NOWORD,DIS,150,mueza,,el,,0.353,,425.584,425.584,0.321296296,-0.141666667,0,0,0,,0,198,198,347,1,pieza,,,,,
,,,,,,5d936374253d0a0017f32d96,676192165fb32c2e1fb7aee6,67d1ab7be052c53961de06c7,2025-03-12_16h43.26.413,Tarea de decisión léxica,2024.2.5,Win32,60.0240096,,,,,,,,,,,,,,,,,,,,,,,425.585,426.768,l,1,0.52,1,426.769,427.268,,,,,,418,FEM,NOWORD,AGR,150,banja,,la,,0.52,,427.27,427.273,0.321296296,-0.141666667,0,0,0,,0,199,199,417,1,barba,,,,,
,,,,,,5d936374253d0a0017f32d96,676192165fb32c2e1fb7aee6,67d1ab7be052c53961de06c7,2025-03-12_16h43.26.413,Tarea de decisión léxica,2024.2.5,Win32,60.0240096,,,,,,,,,,,,,,,,,,,,,,,427.274,428.434,a,1,0.486,1,428.435,428.935,,,,,,301,FEM,WORD,AGR,150,banda,,la,,0.486,,428.935,428.935,0.321296296,-0.141666667,0,0,0,,0,200,200,300,1,ranga,,,,,
,,,,,,5d936374253d0a0017f32d96,676192165fb32c2e1fb7aee6,67d1ab7be052c53961de06c7,2025-03-12_16h43.26.413,Tarea de decisión léxica,2024.2.5,Win32,60.0240096,,,,,,,,,,,,,,,,,,,,,,,428.936,429.951,l,1,0.334,1,429.951,430.451,,,,,,94,FEM,NOWORD,AGR,150,rona,,la,,0.334,,430.451,430.451,0.321296296,-0.141666667,0,0,0,,0,201,201,93,1,bola,,,,,
,,,,,,5d936374253d0a0017f32d96,676192165fb32c2e1fb7aee6,67d1ab7be052c53961de06c7,2025-03-12_16h43.26.413,Tarea de decisión léxica,2024.2.5,Win32,60.0240096,,,,,,,,,,,,,,,,,,,,,,,430.453,431.484,l,1,0.352,1,431.484,431.985,,,,,,230,MAS,NOWORD,AGR,150,ador,,el,,0.352,,431.985,431.985,0.321296296,-0.141666667,0,0,0,,0,202,202,229,1,amor,,,,,
,,,,,,5d936374253d0a0017f32d96,676192165fb32c2e1fb7aee6,67d1ab7be052c53961de06c7,2025-03-12_16h43.26.413,Tarea de decisión léxica,2024.2.5,Win32,60.0240096,,,,,,,,,,,,,,,,,,,,,,,431.986,433.035,l,1,0.373,1,433.035,433.535,,,,,,40,MAS,NOWORD,DIS,150,redo,,la,,0.373,,433.536,433.538,0.321296296,-0.141666667,0,0,0,,0,203,203,39,1,voto,,,,,
,,,,,,5d936374253d0a0017f32d96,676192165fb32c2e1fb7aee6,67d1ab7be052c53961de06c7,2025-03-12_16h43.26.413,Tarea de decisión léxica,2024.2.5,Win32,60.0240096,,,,,,,,,,,,,,,,,,,,,,,433.54,434.585,l,1,0.366,1,434.585,435.084,,,,,,346,FEM,NOWORD,AGR,150,anera,,la,,0.366,,435.084,435.084,0.321296296,-0.141666667,0,0,0,,0,204,204,345,1,arena,,,,,
,,,,,,5d936374253d0a0017f32d96,676192165fb32c2e1fb7aee6,67d1ab7be052c53961de06c7,2025-03-12_16h43.26.413,Tarea de decisión léxica,2024.2.5,Win32,60.0240096,,,,,,,,,,,,,,,,,,,,,,,435.086,436.102,l,1,0.353,1,436.102,436.601,,,,,,182,FEM,NOWORD,AGR,150,teda,,la,,0.353,,436.601,436.601,0.321296296,-0.141666667,0,0,0,,0,205,205,181,1,seda,,,,,
,,,,,,5d936374253d0a0017f32d96,676192165fb32c2e1fb7aee6,67d1ab7be052c53961de06c7,2025-03-12_16h43.26.413,Tarea de decisión léxica,2024.2.5,Win32,60.0240096,,,,,,,,,,,,,,,,,,,,,,,436.602,437.618,l,1,0.354,1,437.618,438.118,,,,,,370,MAS,NOWORD,AGR,150,rioco,,el,,0.354,,438.118,438.118,0.321296296,-0.141666667,0,0,0,,0,206,206,369,1,ruido,,,,,
,,,,,,5d936374253d0a0017f32d96,676192165fb32c2e1fb7aee6,67d1ab7be052c53961de06c7,2025-03-12_16h43.26.413,Tarea de decisión léxica,2024.2.5,Win32,60.0240096,,,,,,,,,,,,,,,,,,,,,,,438.119,439.118,l,1,0.335,1,439.119,439.621,,,,,,334,FEM,NOWORD,AGR,150,dalea,,la,,0.335,,439.622,439.624,0.321296296,-0.141666667,0,0,0,,0,207,207,333,1,tarea,,,,,
,,,,,,5d936374253d0a0017f32d96,676192165fb32c2e1fb7aee6,67d1ab7be052c53961de06c7,2025-03-12_16h43.26.413,Tarea de decisión léxica,2024.2.5,Win32,60.0240096,,,,,,,,,,,,,,,,,,,,,,,439.629,440.719,a,1,0.421,1,440.721,441.218,,,,,,345,FEM,WORD,AGR,150,arena,,la,,0.421,,441.22,441.224,0.321296296,-0.141666667,0,0,0,,0,208,208,344,1,anera,,,,,
,,,,,,5d936374253d0a0017f32d96,676192165fb32c2e1fb7aee6,67d1ab7be052c53961de06c7,2025-03-12_16h43.26.413,Tarea de decisión léxica,2024.2.5,Win32,60.0240096,,,,,,,,,,,,,,,,,,,,,,,441.226,442.268,a,1,0.368,1,442.268,442.768,,,,,,351,MAS,WORD,DIS,150,vuelo,,la,,0.368,,442.768,442.768,0.321296296,-0.141666667,0,0,0,,0,209,209,350,1,duepo,,,,,
,,,,,,5d936374253d0a0017f32d96,676192165fb32c2e1fb7aee6,67d1ab7be052c53961de06c7,2025-03-12_16h43.26.413,Tarea de decisión léxica,2024.2.5,Win32,60.0240096,,,,,,,,,,,,,,,,,,,,,,,442.772,443.852,a,1,0.401,1,443.852,444.351,,,,,,327,MAS,WORD,DIS,150,fondo,,la,,0.401,,444.351,444.352,0.321296296,-0.141666667,0,0,0,,0,210,210,326,1,lendo,,,,,
,,,,,,5d936374253d0a0017f32d96,676192165fb32c2e1fb7aee6,67d1ab7be052c53961de06c7,2025-03-12_16h43.26.413,Tarea de decisión léxica,2024.2.5,Win32,60.0240096,,,,,,,,,,,,,,,,,,,,,,,444.354,445.385,l,1,0.352,1,445.386,445.885,,,,,,10,MAS,NOWORD,AGR,150,sibo,,el,,0.352,,445.885,445.885,0.321296296,-0.141666667,0,0,0,,0,211,211,9,1,tipo,,,,,
,,,,,,5d936374253d0a0017f32d96,676192165fb32c2e1fb7aee6,67d1ab7be052c53961de06c7,2025-03-12_16h43.26.413,Tarea de decisión léxica,2024.2.5,Win32,60.0240096,,,,,,,,,,,,,,,,,,,,,,,445.888,446.884,a,1,0.321,1,446.884,447.385,,,,,,195,FEM,WORD,DIS,150,tela,,el,,0.321,,447.385,447.385,0.321296296,-0.141666667,0,0,0,,0,212,212,194,1,sira,,,,,
,,,,,,5d936374253d0a0017f32d96,676192165fb32c2e1fb7aee6,67d1ab7be052c53961de06c7,2025-03-12_16h43.26.413,Tarea de decisión léxica,2024.2.5,Win32,60.0240096,,,,,,,,,,,,,,,,,,,,,,,447.389,448.351,a,1,0.285,1,448.351,448.851,,,,,,139,MAS,WORD,DIS,150,mago,,la,,0.285,,448.853,448.855,0.321296296,-0.141666667,0,0,0,,0,213,213,138,1,nila,,,,,
,,,,,,5d936374253d0a0017f32d96,676192165fb32c2e1fb7aee6,67d1ab7be052c53961de06c7,2025-03-12_16h43.26.413,Tarea de decisión léxica,2024.2.5,Win32,60.0240096,,,,,,,,,,,,,,,,,,,,,,,448.856,449.917,a,1,0.387,1,449.918,450.418,,,,,,73,MAS,WORD,AGR,150,odio,,el,,0.387,,450.418,450.418,0.321296296,-0.141666667,0,0,0,,0,214,214,72,1,omio,,,,,
,,,,,,5d936374253d0a0017f32d96,676192165fb32c2e1fb7aee6,67d1ab7be052c53961de06c7,2025-03-12_16h43.26.413,Tarea de decisión léxica,2024.2.5,Win32,60.0240096,,,,,,,,,,,,,,,,,,,,,,,450.419,451.484,a,1,0.4,1,451.484,451.984,,,,,,391,MAS,WORD,DIS,150,dueño,,la,,0.4,,451.984,451.985,0.321296296,-0.141666667,0,0,0,,0,215,215,390,1,dievo,,,,,
,,,,,,5d936374253d0a0017f32d96,676192165fb32c2e1fb7aee6,67d1ab7be052c53961de06c7,2025-03-12_16h43.26.413,Tarea de decisión léxica,2024.2.5,Win32,60.0240096,,,,,,,,,,,,,,,,,,,,,,,451.986,452.917,a,1,0.255,1,452.917,453.418,,,,,,305,MAS,WORD,AGR,150,avión,,el,,0.255,,453.418,453.418,0.321296296,-0.141666667,0,0,0,,0,216,216,304,1,adiol,,,,,
,,,,,,5d936374253d0a0017f32d96,676192165fb32c2e1fb7aee6,67d1ab7be052c53961de06c7,2025-03-12_16h43.26.413,Tarea de decisión léxica,2024.2.5,Win32,60.0240096,,,,,,,,,,,,,,,,,,,,,,,453.421,454.601,l,1,0.501,1,454.603,455.101,,,,,,122,MAS,NOWORD,AGR,150,bomo,,el,,0.501,,455.101,455.101,0.321296296,-0.141666667,0,0,0,,0,217,217,121,1,hoyo,,,,,
,,,,,,5d936374253d0a0017f32d96,676192165fb32c2e1fb7aee6,67d1ab7be052c53961de06c7,2025-03-12_16h43.26.413,Tarea de decisión léxica,2024.2.5,Win32,60.0240096,,,,,,,,,,,,,,,,,,,,,,,455.104,456.119,a,1,0.333,1,456.121,456.619,,,,,,75,MAS,WORD,DIS,150,olor,,la,,0.333,,456.62,456.623,0.321296296,-0.141666667,0,0,0,,0,218,218,74,1,ocer,,,,,
,,,,,,5d936374253d0a0017f32d96,676192165fb32c2e1fb7aee6,67d1ab7be052c53961de06c7,2025-03-12_16h43.26.413,Tarea de decisión léxica,2024.2.5,Win32,60.0240096,,,,,,,,,,,,,,,,,,,,,,,456.624,457.951,l,1,0.65,1,457.951,458.451,,,,,,16,FEM,NOWORD,DIS,150,odea,,el,,0.65,,458.451,458.451,0.321296296,-0.141666667,0,0,0,,0,219,219,15,1,idea,,,,,
,,,,,,5d936374253d0a0017f32d96,676192165fb32c2e1fb7aee6,67d1ab7be052c53961de06c7,2025-03-12_16h43.26.413,Tarea de decisión léxica,2024.2.5,Win32,60.0240096,,,,,,,,,,,,,,,,,,,,,,,458.452,459.451,a,1,0.322,1,459.451,459.952,,,,,,229,MAS,WORD,AGR,150,amor,,el,,0.322,,459.952,459.952,0.321296296,-0.141666667,0,0,0,,0,220,220,228,1,ador,,,,,
,,,,,,5d936374253d0a0017f32d96,676192165fb32c2e1fb7aee6,67d1ab7be052c53961de06c7,2025-03-12_16h43.26.413,Tarea de decisión léxica,2024.2.5,Win32,60.0240096,,,,,,,,,,,,,,,,,,,,,,,459.954,461.101,l,1,0.471,1,461.101,461.601,,,,,,280,FEM,NOWORD,DIS,150,grina,,el,,0.471,,461.601,461.601,0.321296296,-0.141666667,0,0,0,,0,221,221,279,1,prisa,,,,,
,,,,,,5d936374253d0a0017f32d96,676192165fb32c2e1fb7aee6,67d1ab7be052c53961de06c7,2025-03-12_16h43.26.413,Tarea de decisión léxica,2024.2.5,Win32,60.0240096,,,,,,,,,,,,,,,,,,,,,,,461.604,462.667,l,1,0.385,1,462.667,463.168,,,,,,388,FEM,NOWORD,DIS,150,bresa,,el,,0.385,,463.168,463.168,0.321296296,-0.141666667,0,0,0,,0,222,222,387,1,crema,,,,,
,,,,,,5d936374253d0a0017f32d96,676192165fb32c2e1fb7aee6,67d1ab7be052c53961de06c7,2025-03-12_16h43.26.413,Tarea de decisión léxica,2024.2.5,Win32,60.0240096,,,,,,,,,,,,,,,,,,,,,,,463.17,464.234,l,1,0.385,1,464.236,464.734,,,,,,268,MAS,NOWORD,DIS,150,figro,,la,,0.385,,464.736,464.739,0.321296296,-0.141666667,0,0,0,,0,223,223,267,1,libro,,,,,
,,,,,,5d936374253d0a0017f32d96,676192165fb32c2e1fb7aee6,67d1ab7be052c53961de06c7,2025-03-12_16h43.26.413,Tarea de decisión léxica,2024.2.5,Win32,60.0240096,,,,,,,,,,,,,,,,,,,,,,,464.741,465.734,l,1,0.321,1,465.734,466.234,,,,,,148,FEM,NOWORD,DIS,150,pama,,el,,0.321,,466.234,466.234,0.321296296,-0.141666667,0,0,0,,0,224,224,147,1,hoja,,,,,
,,,,,,5d936374253d0a0017f32d96,676192165fb32c2e1fb7aee6,67d1ab7be052c53961de06c7,2025-03-12_16h43.26.413,Tarea de decisión léxica,2024.2.5,Win32,60.0240096,,,,,,,,,,,,,,,,,,,,,,,466.237,467.318,a,1,0.404,1,467.319,467.818,,,,,,207,MAS,WORD,DIS,150,kilo,,la,,0.404,,467.818,467.818,0.321296296,-0.141666667,0,0,0,,0,225,225,206,1,kedo,,,,,
,,,,,,5d936374253d0a0017f32d96,676192165fb32c2e1fb7aee6,67d1ab7be052c53961de06c7,2025-03-12_16h43.26.413,Tarea de decisión léxica,2024.2.5,Win32,60.0240096,,,,,,,,,,,,,,,,,,,,,,,467.82,468.817,a,1,0.322,1,468.818,469.318,,,,,,165,FEM,WORD,AGR,150,vela,,la,,0.322,,469.318,469.318,0.321296296,-0.141666667,0,0,0,,0,226,226,164,1,dera,,,,,
,,,,,,5d936374253d0a0017f32d96,676192165fb32c2e1fb7aee6,67d1ab7be052c53961de06c7,2025-03-12_16h43.26.413,Tarea de decisión léxica,2024.2.5,Win32,60.0240096,,,,,,,,,,,,,,,,,,,,,,,469.319,470.268,a,1,0.272,1,470.268,470.768,,,,,,55,MAS,WORD,DIS,150,gato,,la,,0.272,,470.769,470.771,0.321296296,-0.141666667,0,0,0,,0,227,227,54,1,jado,,,,,
,,,,,,5d936374253d0a0017f32d96,676192165fb32c2e1fb7aee6,67d1ab7be052c53961de06c7,2025-03-12_16h43.26.413,Tarea de decisión léxica,2024.2.5,Win32,60.0240096,,,,,,,,,,,,,,,,,,,,,,,470.773,471.884,a,1,0.438,1,471.884,472.385,,,,,,453,FEM,WORD,AGR,150,mafia,,la,,0.438,,472.385,472.385,0.321296296,-0.141666667,0,0,0,,0,228,228,452,1,pafia,,,,,
,,,,,,5d936374253d0a0017f32d96,676192165fb32c2e1fb7aee6,67d1ab7be052c53961de06c7,2025-03-12_16h43.26.413,Tarea de decisión léxica,2024.2.5,Win32,60.0240096,,,,,,,,,,,,,,,,,,,,,,,472.387,473.552,a,1,0.487,1,473.555,474.051,,,,,,219,FEM,WORD,DIS,150,pipa,,el,,0.487,,474.051,474.053,0.321296296,-0.141666667,0,0,0,,0,229,229,218,1,miva,,,,,
,,,,,,5d936374253d0a0017f32d96,676192165fb32c2e1fb7aee6,67d1ab7be052c53961de06c7,2025-03-12_16h43.26.413,Tarea de decisión léxica,2024.2.5,Win32,60.0240096,,,,,,,,,,,,,,,,,,,,,,,474.058,475.118,l,1,0.387,1,475.118,475.618,,,,,,108,MAS,NOWORD,DIS,150,raot,,la,,0.387,,475.618,475.618,0.321296296,-0.141666667,0,0,0,,0,230,230,107,1,saco,,,,,
,,,,,,5d936374253d0a0017f32d96,676192165fb32c2e1fb7aee6,67d1ab7be052c53961de06c7,2025-03-12_16h43.26.413,Tarea de decisión léxica,2024.2.5,Win32,60.0240096,,,,,,,,,,,,,,,,,,,,,,,475.622,476.703,l,1,0.409,1,476.704,477.201,,,,,,100,MAS,NOWORD,DIS,150,soro,,la,,0.409,,477.201,477.201,0.321296296,-0.141666667,0,0,0,,0,231,231,99,1,lobo,,,,,
,,,,,,5d936374253d0a0017f32d96,676192165fb32c2e1fb7aee6,67d1ab7be052c53961de06c7,2025-03-12_16h43.26.413,Tarea de decisión léxica,2024.2.5,Win32,60.0240096,,,,,,,,,,,,,,,,,,,,,,,477.203,478.151,l,0,0.263,0,478.154,478.651,,,,,,309,FEM,WORD,AGR,150,silla,,la,,0.263,,478.652,478.655,0.321296296,-0.141666667,0,0,0,,0,232,232,308,1,tirra,,,,,
,,,,,,5d936374253d0a0017f32d96,676192165fb32c2e1fb7aee6,67d1ab7be052c53961de06c7,2025-03-12_16h43.26.413,Tarea de decisión léxica,2024.2.5,Win32,60.0240096,,,,,,,,,,,,,,,,,,,,,,,478.657,479.718,l,1,0.383,1,479.719,480.218,,,,,,48,MAS,NOWORD,DIS,150,chub,,la,,0.383,,480.218,480.218,0.321296296,-0.141666667,0,0,0,,0,233,233,47,1,club,,,,,
,,,,,,5d936374253d0a0017f32d96,676192165fb32c2e1fb7aee6,67d1ab7be052c53961de06c7,2025-03-12_16h43.26.413,Tarea de decisión léxica,2024.2.5,Win32,60.0240096,,,,,,,,,,,,,,,,,,,,,,,480.22,481.351,a,1,0.454,1,481.351,481.851,,,,,,199,MAS,WORD,DIS,150,lazo,,la,,0.454,,481.851,481.851,0.321296296,-0.141666667,0,0,0,,0,234,234,198,1,fano,,,,,
,,,,,,5d936374253d0a0017f32d96,676192165fb32c2e1fb7aee6,67d1ab7be052c53961de06c7,2025-03-12_16h43.26.413,Tarea de decisión léxica,2024.2.5,Win32,60.0240096,,,,,,,,,,,,,,,,,,,,,,,481.852,482.784,a,1,0.247,1,482.785,483.285,,,,,,213,FEM,WORD,AGR,150,rama,,la,,0.247,,483.285,483.285,0.321296296,-0.141666667,0,0,0,,0,235,235,212,1,bana,,,,,
,,,,,,5d936374253d0a0017f32d96,676192165fb32c2e1fb7aee6,67d1ab7be052c53961de06c7,2025-03-12_16h43.26.413,Tarea de decisión léxica,2024.2.5,Win32,60.0240096,,,,,,,,,,,,,,,,,,,,,,,483.287,484.334,a,1,0.368,1,484.336,484.835,,,,,,91,FEM,WORD,DIS,150,taza,,el,,0.368,,484.835,484.835,0.321296296,-0.141666667,0,0,0,,0,236,236,90,1,sava,,,,,
,,,,,,5d936374253d0a0017f32d96,676192165fb32c2e1fb7aee6,67d1ab7be052c53961de06c7,2025-03-12_16h43.26.413,Tarea de decisión léxica,2024.2.5,Win32,60.0240096,,,,,,,,,,,,,,,,,,,,,,,484.837,485.801,a,1,0.286,1,485.801,486.301,,,,,,355,FEM,WORD,DIS,150,regla,,el,,0.286,,486.302,486.305,0.321296296,-0.141666667,0,0,0,,0,237,237,354,1,bepla,,,,,
,,,,,,5d936374253d0a0017f32d96,676192165fb32c2e1fb7aee6,67d1ab7be052c53961de06c7,2025-03-12_16h43.26.413,Tarea de decisión léxica,2024.2.5,Win32,60.0240096,,,,,,,,,,,,,,,,,,,,,,,486.307,487.351,a,1,0.363,1,487.351,487.851,,,,,,265,FEM,WORD,AGR,150,mitad,,la,,0.363,,487.851,487.852,0.321296296,-0.141666667,0,0,0,,0,238,238,264,1,pitat,,,,,
,,,,,,5d936374253d0a0017f32d96,676192165fb32c2e1fb7aee6,67d1ab7be052c53961de06c7,2025-03-12_16h43.26.413,Tarea de decisión léxica,2024.2.5,Win32,60.0240096,,,,,,,,,,,,,,,,,,,,,,,487.852,488.967,l,1,0.435,1,488.969,489.467,,,,,,270,MAS,NOWORD,AGR,150,mello,,el,,0.435,,489.467,489.467,0.321296296,-0.141666667,0,0,0,,0,239,239,269,1,perro,,,,,
,,,,,,5d936374253d0a0017f32d96,676192165fb32c2e1fb7aee6,67d1ab7be052c53961de06c7,2025-03-12_16h43.26.413,Tarea de decisión léxica,2024.2.5,Win32,60.0240096,,,,,,,,,,,,,,,,,,,,,,,489.471,490.518,a,1,0.37,1,490.518,491.017,,,,,,413,FEM,WORD,AGR,150,rueda,,la,,0.37,,491.017,491.018,0.321296296,-0.141666667,0,0,0,,0,240,240,412,1,bieda,,,,,
,,,,,,5d936374253d0a0017f32d96,676192165fb32c2e1fb7aee6,67d1ab7be052c53961de06c7,2025-03-12_16h43.26.413,Tarea de decisión léxica,2024.2.5,Win32,60.0240096,,,,,,,,,,,,,,,,,,,,,,,491.019,492.034,a,1,0.335,1,492.036,492.534,,,,,,281,MAS,WORD,AGR,150,cielo,,el,,0.335,,492.534,492.534,0.321296296,-0.141666667,0,0,0,,0,241,241,280,1,cauro,,,,,
,,,,,,5d936374253d0a0017f32d96,676192165fb32c2e1fb7aee6,67d1ab7be052c53961de06c7,2025-03-12_16h43.26.413,Tarea de decisión léxica,2024.2.5,Win32,60.0240096,,,,,,,,,,,,,,,,,,,,,,,492.536,493.601,l,1,0.38,1,493.601,494.102,,,,,,298,MAS,NOWORD,AGR,150,brubo,,el,,0.38,,494.103,494.105,0.321296296,-0.141666667,0,0,0,,0,242,242,297,1,grupo,,,,,
,,,,,,5d936374253d0a0017f32d96,676192165fb32c2e1fb7aee6,67d1ab7be052c53961de06c7,2025-03-12_16h43.26.413,Tarea de decisión léxica,2024.2.5,Win32,60.0240096,,,,,,,,,,,,,,,,,,,,,,,494.107,495.217,l,1,0.433,1,495.217,495.718,,,,,,312,MAS,NOWORD,DIS,150,nosor,,la,,0.433,,495.718,495.718,0.321296296,-0.141666667,0,0,0,,0,243,243,311,1,honor,,,,,
,,,,,,5d936374253d0a0017f32d96,676192165fb32c2e1fb7aee6,67d1ab7be052c53961de06c7,2025-03-12_16h43.26.413,Tarea de decisión léxica,2024.2.5,Win32,60.0240096,,,,,,,,,,,,,,,,,,,,,,,495.72,496.751,a,1,0.356,1,496.751,497.252,,,,,,25,FEM,WORD,AGR,150,cama,,la,,0.356,,497.252,497.252,0.321296296,-0.141666667,0,0,0,,0,244,244,24,1,paza,,,,,
,,,,,,5d936374253d0a0017f32d96,676192165fb32c2e1fb7aee6,67d1ab7be052c53961de06c7,2025-03-12_16h43.26.413,Tarea de decisión léxica,2024.2.5,Win32,60.0240096,,,,,,,,,,,,,,,,,,,,,,,497.253,498.535,a,1,0.606,1,498.536,499.036,,,,,,105,FEM,WORD,AGR,150,sopa,,la,,0.606,,499.036,499.036,0.321296296,-0.141666667,0,0,0,,0,245,245,104,1,vina,,,,,
,,,,,,5d936374253d0a0017f32d96,676192165fb32c2e1fb7aee6,67d1ab7be052c53961de06c7,2025-03-12_16h43.26.413,Tarea de decisión léxica,2024.2.5,Win32,60.0240096,,,,,,,,,,,,,,,,,,,,,,,499.038,501.685,,0,0.606,-1,501.686,502.185,,,,,,288,FEM,NOWORD,DIS,150,fosta,,el,,,,502.185,502.185,0.321296296,-0.141666667,0,0,0,,0,246,246,287,1,lista,,,,,
,,,,,,5d936374253d0a0017f32d96,676192165fb32c2e1fb7aee6,67d1ab7be052c53961de06c7,2025-03-12_16h43.26.413,Tarea de decisión léxica,2024.2.5,Win32,60.0240096,,,,,,,,,,,,,,,,,,,,,,,502.186,504.153,l,1,1.287,1,504.158,504.651,,,,,,178,MAS,NOWORD,AGR,150,bito,,el,,1.287,,504.654,504.657,0.321296296,-0.141666667,0,0,0,,0,247,247,177,1,reto,,,,,
,,,,,,5d936374253d0a0017f32d96,676192165fb32c2e1fb7aee6,67d1ab7be052c53961de06c7,2025-03-12_16h43.26.413,Tarea de decisión léxica,2024.2.5,Win32,60.0240096,,,,,,,,,,,,,,,,,,,,,,,504.66,505.735,a,1,0.402,1,505.735,506.234,,,,,,235,FEM,WORD,DIS,150,grúa,,el,,0.402,,506.234,506.235,0.321296296,-0.141666667,0,0,0,,0,248,248,234,1,tria,,,,,
,,,,,,5d936374253d0a0017f32d96,676192165fb32c2e1fb7aee6,67d1ab7be052c53961de06c7,2025-03-12_16h43.26.413,Tarea de decisión léxica,2024.2.5,Win32,60.0240096,,,,,,,,,,,,,,,,,,,,,,,506.237,507.301,l,0,0.389,0,507.303,507.801,,,,,,217,MAS,WORD,AGR,150,luto,,el,,0.389,,507.801,507.801,0.321296296,-0.141666667,0,0,0,,0,249,249,216,1,budo,,,,,
,,,,,,5d936374253d0a0017f32d96,676192165fb32c2e1fb7aee6,67d1ab7be052c53961de06c7,2025-03-12_16h43.26.413,Tarea de decisión léxica,2024.2.5,Win32,60.0240096,,,,,,,,,,,,,,,,,,,,,,,507.804,508.818,a,1,0.334,1,508.819,509.317,,,,,,365,FEM,WORD,AGR,150,ducha,,la,,0.334,,509.318,509.318,0.321296296,-0.141666667,0,0,0,,0,250,250,364,1,gulla,,,,,
,,,,,,5d936374253d0a0017f32d96,676192165fb32c2e1fb7aee6,67d1ab7be052c53961de06c7,2025-03-12_16h43.26.413,Tarea de decisión léxica,2024.2.5,Win32,60.0240096,,,,,,,,,,,,,,,,,,,,,,,509.321,510.368,a,1,0.367,1,510.369,510.868,,,,,,101,MAS,WORD,AGR,150,tono,,el,,0.367,,510.87,510.874,0.321296296,-0.141666667,0,0,0,,0,251,251,100,1,gito,,,,,
,,,,,,5d936374253d0a0017f32d96,676192165fb32c2e1fb7aee6,67d1ab7be052c53961de06c7,2025-03-12_16h43.26.413,Tarea de decisión léxica,2024.2.5,Win32,60.0240096,,,,,,,,,,,,,,,,,,,,,,,510.876,512.652,l,1,1.101,1,512.652,513.151,,,,,,290,FEM,NOWORD,AGR,150,bumpa,,la,,1.101,,513.151,513.151,0.321296296,-0.141666667,0,0,0,,0,252,252,289,1,bomba,,,,,
,,,,,,5d936374253d0a0017f32d96,676192165fb32c2e1fb7aee6,67d1ab7be052c53961de06c7,2025-03-12_16h43.26.413,Tarea de decisión léxica,2024.2.5,Win32,60.0240096,,,,,,,,,,,,,,,,,,,,,,,513.153,514.417,l,1,0.584,1,514.418,514.919,,,,,,18,FEM,NOWORD,AGR,150,paba,,la,,0.584,,514.919,514.92,0.321296296,-0.141666667,0,0,0,,0,253,253,17,1,mamá,,,,,
,,,,,,5d936374253d0a0017f32d96,676192165fb32c2e1fb7aee6,67d1ab7be052c53961de06c7,2025-03-12_16h43.26.413,Tarea de decisión léxica,2024.2.5,Win32,60.0240096,,,,,,,,,,,,,,,,,,,,,,,514.923,515.901,l,1,0.303,1,515.901,516.401,,,,,,218,MAS,NOWORD,AGR,150,budo,,el,,0.303,,516.401,516.401,0.321296296,-0.141666667,0,0,0,,0,254,254,217,1,luto,,,,,
,,,,,,5d936374253d0a0017f32d96,676192165fb32c2e1fb7aee6,67d1ab7be052c53961de06c7,2025-03-12_16h43.26.413,Tarea de decisión léxica,2024.2.5,Win32,60.0240096,,,,,,,,,,,,,,,,,,,,,,,516.403,517.5,l,1,0.417,1,517.501,518.001,,,,,,412,MAS,NOWORD,DIS,150,mobro,,la,,0.417,,518.001,518.002,0.321296296,-0.141666667,0,0,0,,0,255,255,411,1,pollo,,,,,
,,,,,,5d936374253d0a0017f32d96,676192165fb32c2e1fb7aee6,67d1ab7be052c53961de06c7,2025-03-12_16h43.26.413,Tarea de decisión léxica,2024.2.5,Win32,60.0240096,,,,,,,,,,,,,,,,,,,,,,,518.004,519.034,a,1,0.351,1,519.036,519.534,,,,,,475,FEM,WORD,DIS,150,manta,,el,,0.351,,519.535,519.537,0.321296296,-0.141666667,0,0,0,,0,256,256,474,1,mucta,,,,,
,,,,,,5d936374253d0a0017f32d96,676192165fb32c2e1fb7aee6,67d1ab7be052c53961de06c7,2025-03-12_16h43.26.413,Tarea de decisión léxica,2024.2.5,Win32,60.0240096,,,,,,,,,,,,,,,,,,,,,,,519.54,520.573,a,1,0.353,1,520.573,521.068,,,,,,251,MAS,WORD,DIS,150,señor,,la,,0.353,,521.068,521.068,0.321296296,-0.141666667,0,0,0,,0,257,257,250,1,refor,,,,,
,,,,,,5d936374253d0a0017f32d96,676192165fb32c2e1fb7aee6,67d1ab7be052c53961de06c7,2025-03-12_16h43.26.413,Tarea de decisión léxica,2024.2.5,Win32,60.0240096,,,,,,,,,,,,,,,,,,,,,,,521.071,522.117,a,1,0.371,1,522.117,522.618,,,,,,479,MAS,WORD,DIS,150,rumbo,,la,,0.371,,522.618,522.618,0.321296296,-0.141666667,0,0,0,,0,258,258,478,1,rimpo,,,,,
,,,,,,5d936374253d0a0017f32d96,676192165fb32c2e1fb7aee6,67d1ab7be052c53961de06c7,2025-03-12_16h43.26.413,Tarea de decisión léxica,2024.2.5,Win32,60.0240096,,,,,,,,,,,,,,,,,,,,,,,522.619,523.634,a,1,0.341,1,523.635,524.134,,,,,,27,MAS,WORD,DIS,150,baño,,la,,0.341,,524.134,524.135,0.321296296,-0.141666667,0,0,0,,0,259,259,26,1,ravo,,,,,
,,,,,,5d936374253d0a0017f32d96,676192165fb32c2e1fb7aee6,67d1ab7be052c53961de06c7,2025-03-12_16h43.26.413,Tarea de decisión léxica,2024.2.5,Win32,60.0240096,,,,,,,,,,,,,,,,,,,,,,,524.137,525.168,l,1,0.353,1,525.168,525.668,,,,,,320,MAS,NOWORD,DIS,150,tuero,,la,,0.353,,525.668,525.668,0.321296296,-0.141666667,0,0,0,,0,260,260,319,1,suelo,,,,,
,,,,,,5d936374253d0a0017f32d96,676192165fb32c2e1fb7aee6,67d1ab7be052c53961de06c7,2025-03-12_16h43.26.413,Tarea de decisión léxica,2024.2.5,Win32,60.0240096,,,,,,,,,,,,,,,,,,,,,,,525.67,526.752,l,1,0.404,1,526.752,527.25,,,,,,158,MAS,NOWORD,AGR,150,hico,,el,,0.404,,527.252,527.253,0.321296296,-0.141666667,0,0,0,,0,261,261,157,1,nido,,,,,
,,,,,,5d936374253d0a0017f32d96,676192165fb32c2e1fb7aee6,67d1ab7be052c53961de06c7,2025-03-12_16h43.26.413,Tarea de decisión léxica,2024.2.5,Win32,60.0240096,,,,,,,,,,,,,,,,,,,,,,,527.254,528.201,a,1,0.268,1,528.201,528.701,,,,,,21,MAS,WORD,AGR,150,plan,,el,,0.268,,528.701,528.702,0.321296296,-0.141666667,0,0,0,,0,262,262,20,1,blan,,,,,
,,,,,,5d936374253d0a0017f32d96,676192165fb32c2e1fb7aee6,67d1ab7be052c53961de06c7,2025-03-12_16h43.26.413,Tarea de decisión léxica,2024.2.5,Win32,60.0240096,,,,,,,,,,,,,,,,,,,,,,,528.704,529.735,a,1,0.354,1,529.735,530.234,,,,,,125,MAS,WORD,AGR,150,lujo,,el,,0.354,,530.234,530.235,0.321296296,-0.141666667,0,0,0,,0,263,263,124,1,vudo,,,,,
,,,,,,5d936374253d0a0017f32d96,676192165fb32c2e1fb7aee6,67d1ab7be052c53961de06c7,2025-03-12_16h43.26.413,Tarea de decisión léxica,2024.2.5,Win32,60.0240096,,,,,,,,,,,,,,,,,,,,,,,530.236,531.352,l,1,0.433,1,531.352,531.851,,,,,,438,FEM,NOWORD,AGR,150,glava,,la,,0.433,,531.851,531.851,0.321296296,-0.141666667,0,0,0,,0,264,264,437,1,plaza,,,,,
,,,,,,5d936374253d0a0017f32d96,676192165fb32c2e1fb7aee6,67d1ab7be052c53961de06c7,2025-03-12_16h43.26.413,Tarea de decisión léxica,2024.2.5,Win32,60.0240096,,,,,,,,,,,,,,,,,,,,,,,531.853,532.934,a,1,0.397,1,532.934,533.434,,,,,,37,MAS,WORD,AGR,150,rato,,el,,0.397,,533.435,533.435,0.321296296,-0.141666667,0,0,0,,0,265,265,36,1,gaco,,,,,
,,,,,,5d936374253d0a0017f32d96,676192165fb32c2e1fb7aee6,67d1ab7be052c53961de06c7,2025-03-12_16h43.26.413,Tarea de decisión léxica,2024.2.5,Win32,60.0240096,,,,,,,,,,,,,,,,,,,,,,,533.437,534.401,a,1,0.286,1,534.403,534.901,,,,,,245,FEM,WORD,AGR,150,madre,,la,,0.286,,534.903,534.906,0.321296296,-0.141666667,0,0,0,,0,266,266,244,1,pafle,,,,,
,,,,,,5d936374253d0a0017f32d96,676192165fb32c2e1fb7aee6,67d1ab7be052c53961de06c7,2025-03-12_16h43.26.413,Tarea de decisión léxica,2024.2.5,Win32,60.0240096,,,,,,,,,,,,,,,,,,,,,,,534.91,535.867,a,1,0.289,1,535.867,536.368,,,,,,15,FEM,WORD,DIS,150,idea,,el,,0.289,,536.368,536.368,0.321296296,-0.141666667,0,0,0,,0,267,267,14,1,odea,,,,,
,,,,,,5d936374253d0a0017f32d96,676192165fb32c2e1fb7aee6,67d1ab7be052c53961de06c7,2025-03-12_16h43.26.413,Tarea de decisión léxica,2024.2.5,Win32,60.0240096,,,,,,,,,,,,,,,,,,,,,,,536.371,537.818,a,1,0.768,1,537.818,538.318,,,,,,393,FEM,WORD,AGR,150,aldea,,la,,0.768,,538.318,538.318,0.321296296,-0.141666667,0,0,0,,0,268,268,392,1,ashea,,,,,
,,,,,,5d936374253d0a0017f32d96,676192165fb32c2e1fb7aee6,67d1ab7be052c53961de06c7,2025-03-12_16h43.26.413,Tarea de decisión léxica,2024.2.5,Win32,60.0240096,,,,,,,,,,,,,,,,,,,,,,,538.322,539.521,l,1,0.519,1,539.522,540.017,,,,,,116,FEM,NOWORD,DIS,150,haca,,el,,0.519,,540.017,540.018,0.321296296,-0.141666667,0,0,0,,0,269,269,115,1,pata,,,,,
,,,,,,5d936374253d0a0017f32d96,676192165fb32c2e1fb7aee6,67d1ab7be052c53961de06c7,2025-03-12_16h43.26.413,Tarea de decisión léxica,2024.2.5,Win32,60.0240096,,,,,,,,,,,,,,,,,,,,,,,540.02,541.518,l,1,0.818,1,541.519,542.017,,,,,,154,MAS,NOWORD,AGR,150,tado,,el,,0.818,,542.017,542.017,0.321296296,-0.141666667,0,0,0,,0,270,270,153,1,pato,,,,,
