counterbalancing_condition,consent_prescreening.block_1/declare_consent,consent_prescreening.block_1/age_years,consent_prescreening.block_1/gender,consent_prescreening.block_1/language_disorder,consent_prescreening.block_1/first_language,PROLIFIC_PID,STUDY_ID,SESSION_ID,date,expName,psychopyVersion,OS,frameRate,check_prescreening_answers.started,check_prescreening_answers.stopped,Instructions.started,Instructions.stopped,instr_done_keyboard.keys,instr_done_keyboard.rt,instr_done_keyboard.duration,instr_done_touch.x,instr_done_touch.y,instr_done_touch.leftButton,instr_done_touch.midButton,instr_done_touch.rightButton,instruction_pages.thisRepN,instruction_pages.thisTrialN,instruction_pages.thisN,instruction_pages.thisIndex,instruction_pages.ran,pageN,phase,instruct_text,has_image,instruct_image,presentTrial.started,presentTrial.stopped,response.keys,response.corr,rt,corr,feedback.started,feedback.stopped,practice_trials.thisRepN,practice_trials.thisTrialN,practice_trials.thisN,practice_trials.thisIndex,practice_trials.ran,TrialID,Gender,StimulusType,Condition,PrimeDuration,Prime,len,Flanker,corrAns,response.rt,response.duration,Break.started,Break.stopped,break_done_touch.x,break_done_touch.y,break_done_touch.leftButton,break_done_touch.midButton,break_done_touch.rightButton,break_done_keyboard.keys,experiment_trials.thisRepN,experiment_trials.thisTrialN,experiment_trials.thisN,experiment_trials.thisIndex,experiment_trials.ran,PairedWith,break_done_keyboard.rt,break_done_keyboard.duration,End.started,End.stopped
3,"[""over_18"",""comfortable"",""read_info"",""consent_given""]",27,M,"[""none""]","[""spanish""]",5df79331451be551923ad906,676192165fb32c2e1fb7aee6,67d19424a814518212811afa,2025-03-12_08h05.32.036,Tarea de decisión léxica,2024.2.5,Win32,60.24096386,,,,,,,,,,,,,,,,,,,,,,,,,,,,,,,,,,,,,,,,,,,,,,,,,,,,,,,,,,,,,,,,
,,,,,,5df79331451be551923ad906,676192165fb32c2e1fb7aee6,67d19424a814518212811afa,2025-03-12_08h05.32.036,Tarea de decisión léxica,2024.2.5,Win32,60.24096386,74.1435,74.1436,,,,,,,,,,,,,,,,,,,,,,,,,,,,,,,,,,,,,,,,,,,,,,,,,,,,,,,,,,,,,,
,,,,,,5df79331451be551923ad906,676192165fb32c2e1fb7aee6,67d19424a814518212811afa,2025-03-12_08h05.32.036,Tarea de decisión léxica,2024.2.5,Win32,60.24096386,,,74.1565,93.9738,space,19.7922,,-0.006896522,-0.334482804,0,0,0,0,0,0,0,1,1,instructions,"INSTRUCCIONES
Va a realizar una prueba de decisión léxica. Desde el comienzo de la prueba mire siempre al centro de la pantalla. Se presentará una serie de cadenas de letras, una a la vez, en la pantalla. Su tarea consiste en determinar si cada cadena de letras constituye una palabra real en español o una no-palabra (una secuencia de letras que no constituye una palabra real). 

Pulse la tecla ESPACIO para continuar.",0,keyboardresponseNW.png,,,,,,,,,,,,,,,,,,,,,,,,,,,,,,,,,,,,,,,,,,
,,,,,,5df79331451be551923ad906,676192165fb32c2e1fb7aee6,67d19424a814518212811afa,2025-03-12_08h05.32.036,Tarea de decisión léxica,2024.2.5,Win32,60.24096386,,,93.9774,106.1054,space,12.1109,,-0.006896522,-0.334482804,0,0,0,0,1,1,1,1,2,instructions,"El procedimiento es el siguiente: Aparecerán dos barras verticales posicionadas en el centro de la pantalla, separadas por un pequeño espacio.Por favor, enfoque su atención en el espacio entre las barras. Esto preparará sus ojos para la siguiente cadena de letras, que aparecerá entre las dos barras durante un instante.

Pulse la tecla ESPACIO para continuar.",0,keyboardresponseNW.png,,,,,,,,,,,,,,,,,,,,,,,,,,,,,,,,,,,,,,,,,,
,,,,,,5df79331451be551923ad906,676192165fb32c2e1fb7aee6,67d19424a814518212811afa,2025-03-12_08h05.32.036,Tarea de decisión léxica,2024.2.5,Win32,60.24096386,,,106.109,128.1774,space,22.015,,-0.006896522,-0.334482804,0,0,0,0,2,2,2,1,3,instructions,"En el teclado de su dispositivo, pulse la tecla ""L"" si la cadena de letras es una palabra real en español (por ejemplo: ""mano"") y la tecla ""A"" si la cadena de letras es una no-palabra (por ejemplo: ""minu"").
Pulse la tecla ESPACIO para continuar.",1,keyboardresponseNW.png,,,,,,,,,,,,,,,,,,,,,,,,,,,,,,,,,,,,,,,,,,
,,,,,,5df79331451be551923ad906,676192165fb32c2e1fb7aee6,67d19424a814518212811afa,2025-03-12_08h05.32.036,Tarea de decisión léxica,2024.2.5,Win32,60.24096386,,,128.1806,140.7428,space,12.5411,,-0.006896522,-0.334482804,0,0,0,0,3,3,3,1,4,instructions,"Es muy importante que responda con la mayor rapidez y precisión posibles. Si no responde dentro de 2 segundos, aparecerá el mensaje ""Muy lento"" y el experimento pasará a la siguiente palabra. Inmediatamente después de su respuesta se indicará si fue correcta o no. Los primeros 15 intentos serán de práctica y habrá dos descansos durante la prueba.

Pulse la tecla ESPACIO  para iniciar la parte de práctica.",0,keyboardresponseNW.png,,,,,,,,,,,,,,,,,,,,,,,,,,,,,,,,,,,,,,,,,,
,,,,,,5df79331451be551923ad906,676192165fb32c2e1fb7aee6,67d19424a814518212811afa,2025-03-12_08h05.32.036,Tarea de decisión léxica,2024.2.5,Win32,60.24096386,,,,,,,,,,,,,,,,,,,,,,,140.752,143.3969,,0,,-1,143.3973,143.899,0,0,0,2,1,1003,FEM,NOWORD,DIS,150,muvor,5,el,a,,,,,,,,,,,,,,,,,,,,
,,,,,,5df79331451be551923ad906,676192165fb32c2e1fb7aee6,67d19424a814518212811afa,2025-03-12_08h05.32.036,Tarea de decisión léxica,2024.2.5,Win32,60.24096386,,,,,,,,,,,,,,,,,,,,,,,143.9028,145.6604,l,1,1.0883,1,145.669,146.165,0,1,1,6,1,1007,MAS,WORD,DIS,150,masa,4,la,l,1.0883,,,,,,,,,,,,,,,,,,,
,,,,,,5df79331451be551923ad906,676192165fb32c2e1fb7aee6,67d19424a814518212811afa,2025-03-12_08h05.32.036,Tarea de decisión léxica,2024.2.5,Win32,60.24096386,,,,,,,,,,,,,,,,,,,,,,,146.1682,147.5966,l,1,0.759,1,147.5968,148.0961,0,2,2,8,1,1009,FEM,WORD,AGR,150,viejo,5,la,l,0.759,,,,,,,,,,,,,,,,,,,
,,,,,,5df79331451be551923ad906,676192165fb32c2e1fb7aee6,67d19424a814518212811afa,2025-03-12_08h05.32.036,Tarea de decisión léxica,2024.2.5,Win32,60.24096386,,,,,,,,,,,,,,,,,,,,,,,148.0971,149.5914,l,1,0.8256,1,149.5918,150.0797,0,3,3,5,1,1006,FEM,WORD,AGR,150,cara,4,la,l,0.8256,,,,,,,,,,,,,,,,,,,
,,,,,,5df79331451be551923ad906,676192165fb32c2e1fb7aee6,67d19424a814518212811afa,2025-03-12_08h05.32.036,Tarea de decisión léxica,2024.2.5,Win32,60.24096386,,,,,,,,,,,,,,,,,,,,,,,150.0823,151.4818,a,1,0.7179,1,151.4819,151.9745,0,4,4,0,1,1001,FEM,NOWORD,AGR,150,croz,4,la,a,0.7179,,,,,,,,,,,,,,,,,,,
,,,,,,5df79331451be551923ad906,676192165fb32c2e1fb7aee6,67d19424a814518212811afa,2025-03-12_08h05.32.036,Tarea de decisión léxica,2024.2.5,Win32,60.24096386,,,,,,,,,,,,,,,,,,,,,,,151.9779,153.5623,l,0,0.9197,0,153.5633,154.0559,0,5,5,3,1,1004,FEM,NOWORD,AGR,150,bireo,5,la,a,0.9197,,,,,,,,,,,,,,,,,,,
,,,,,,5df79331451be551923ad906,676192165fb32c2e1fb7aee6,67d19424a814518212811afa,2025-03-12_08h05.32.036,Tarea de decisión léxica,2024.2.5,Win32,60.24096386,,,,,,,,,,,,,,,,,,,,,,,154.0585,155.2566,l,1,0.5349,1,155.2587,155.756,0,6,6,9,1,1010,MAS,WORD,DIS,150,video,5,la,l,0.5349,,,,,,,,,,,,,,,,,,,
,,,,,,5df79331451be551923ad906,676192165fb32c2e1fb7aee6,67d19424a814518212811afa,2025-03-12_08h05.32.036,Tarea de decisión léxica,2024.2.5,Win32,60.24096386,,,,,,,,,,,,,,,,,,,,,,,155.7588,156.839,a,1,0.4092,1,156.839,157.3391,0,7,7,4,1,1005,MAS,NOWORD,DIS,150,nobad,5,la,a,0.4092,,,,,,,,,,,,,,,,,,,
,,,,,,5df79331451be551923ad906,676192165fb32c2e1fb7aee6,67d19424a814518212811afa,2025-03-12_08h05.32.036,Tarea de decisión léxica,2024.2.5,Win32,60.24096386,,,,,,,,,,,,,,,,,,,,,,,157.3416,158.5892,l,1,0.5847,1,158.5895,159.0893,0,8,8,7,1,1008,MAS,WORD,DIS,150,frío,4,la,l,0.5847,,,,,,,,,,,,,,,,,,,
,,,,,,5df79331451be551923ad906,676192165fb32c2e1fb7aee6,67d19424a814518212811afa,2025-03-12_08h05.32.036,Tarea de decisión léxica,2024.2.5,Win32,60.24096386,,,,,,,,,,,,,,,,,,,,,,,159.0925,160.3558,a,1,0.5844,1,160.3558,160.8566,0,9,9,1,1,1002,FEM,NOWORD,DIS,150,mabo,4,el,a,0.5844,,,,,,,,,,,,,,,,,,,
,,,,,,5df79331451be551923ad906,676192165fb32c2e1fb7aee6,67d19424a814518212811afa,2025-03-12_08h05.32.036,Tarea de decisión léxica,2024.2.5,Win32,60.24096386,,,166.4781,174.8385,space,8.3445,,-0.006896522,-0.334482804,0,0,0,,,,,,,,,,,174.8708,176.1203,l,1,0.5805,1,176.1203,176.6213,,,,,,241,MAS,WORD,AGR,150,mundo,,el,,0.5805,,176.622,176.6294,-0.006896522,-0.334482804,0,0,0,,0,0,0,240,1,mirdo,,,,
,,,,,,5df79331451be551923ad906,676192165fb32c2e1fb7aee6,67d19424a814518212811afa,2025-03-12_08h05.32.036,Tarea de decisión léxica,2024.2.5,Win32,60.24096386,,,,,,,,,,,,,,,,,,,,,,,176.6307,177.9701,a,1,0.6728,1,177.9704,178.4706,,,,,,106,FEM,NOWORD,AGR,150,vina,,la,,0.6728,,178.4708,178.471,-0.006896522,-0.334482804,0,0,0,,0,1,1,105,1,sopa,,,,
,,,,,,5df79331451be551923ad906,676192165fb32c2e1fb7aee6,67d19424a814518212811afa,2025-03-12_08h05.32.036,Tarea de decisión léxica,2024.2.5,Win32,60.24096386,,,,,,,,,,,,,,,,,,,,,,,178.4743,179.4696,l,1,0.3229,1,179.4697,179.9696,,,,,,329,MAS,WORD,AGR,150,hueso,,el,,0.3229,,179.9718,179.9732,-0.006896522,-0.334482804,0,0,0,,0,2,2,328,1,nueno,,,,
,,,,,,5df79331451be551923ad906,676192165fb32c2e1fb7aee6,67d19424a814518212811afa,2025-03-12_08h05.32.036,Tarea de decisión léxica,2024.2.5,Win32,60.24096386,,,,,,,,,,,,,,,,,,,,,,,179.9738,181.2362,a,1,0.5917,1,181.2362,181.7362,,,,,,230,MAS,NOWORD,AGR,150,ador,,el,,0.5917,,181.7363,181.7365,-0.006896522,-0.334482804,0,0,0,,0,3,3,229,1,amor,,,,
,,,,,,5df79331451be551923ad906,676192165fb32c2e1fb7aee6,67d19424a814518212811afa,2025-03-12_08h05.32.036,Tarea de decisión léxica,2024.2.5,Win32,60.24096386,,,,,,,,,,,,,,,,,,,,,,,181.7389,183.0523,a,1,0.6365,1,183.0524,183.5527,,,,,,346,FEM,NOWORD,AGR,150,anera,,la,,0.6365,,183.5528,183.5529,-0.006896522,-0.334482804,0,0,0,,0,4,4,345,1,arena,,,,
,,,,,,5df79331451be551923ad906,676192165fb32c2e1fb7aee6,67d19424a814518212811afa,2025-03-12_08h05.32.036,Tarea de decisión léxica,2024.2.5,Win32,60.24096386,,,,,,,,,,,,,,,,,,,,,,,183.5548,184.5423,l,1,0.3268,1,184.5425,185.0373,,,,,,269,MAS,WORD,AGR,150,perro,,el,,0.3268,,185.0378,185.0384,-0.006896522,-0.334482804,0,0,0,,0,5,5,268,1,mello,,,,
,,,,,,5df79331451be551923ad906,676192165fb32c2e1fb7aee6,67d19424a814518212811afa,2025-03-12_08h05.32.036,Tarea de decisión léxica,2024.2.5,Win32,60.24096386,,,,,,,,,,,,,,,,,,,,,,,185.0394,186.4257,l,1,0.7162,1,186.4259,186.9191,,,,,,107,MAS,WORD,DIS,150,saco,,la,,0.7162,,186.9196,186.9202,-0.006896522,-0.334482804,0,0,0,,0,6,6,106,1,raot,,,,
,,,,,,5df79331451be551923ad906,676192165fb32c2e1fb7aee6,67d19424a814518212811afa,2025-03-12_08h05.32.036,Tarea de decisión léxica,2024.2.5,Win32,60.24096386,,,,,,,,,,,,,,,,,,,,,,,186.9214,188.1361,a,1,0.5355,1,188.1366,188.6254,,,,,,72,FEM,NOWORD,DIS,150,urla,,el,,0.5355,,188.6275,188.6283,-0.006896522,-0.334482804,0,0,0,,0,7,7,71,1,isla,,,,
,,,,,,5df79331451be551923ad906,676192165fb32c2e1fb7aee6,67d19424a814518212811afa,2025-03-12_08h05.32.036,Tarea de decisión léxica,2024.2.5,Win32,60.24096386,,,,,,,,,,,,,,,,,,,,,,,188.6289,189.9367,a,1,0.6364,1,189.937,190.4252,,,,,,350,MAS,NOWORD,AGR,150,cosir,,el,,0.6364,,190.4252,190.4254,-0.006896522,-0.334482804,0,0,0,,0,8,8,349,1,color,,,,
,,,,,,5df79331451be551923ad906,676192165fb32c2e1fb7aee6,67d19424a814518212811afa,2025-03-12_08h05.32.036,Tarea de decisión léxica,2024.2.5,Win32,60.24096386,,,,,,,,,,,,,,,,,,,,,,,190.4283,191.7105,l,1,0.6119,1,191.7106,192.2068,,,,,,115,FEM,WORD,DIS,150,pata,,el,,0.6119,,192.2069,192.2069,-0.006896522,-0.334482804,0,0,0,,0,9,9,114,1,haca,,,,
,,,,,,5df79331451be551923ad906,676192165fb32c2e1fb7aee6,67d19424a814518212811afa,2025-03-12_08h05.32.036,Tarea de decisión léxica,2024.2.5,Win32,60.24096386,,,,,,,,,,,,,,,,,,,,,,,192.208,193.4601,l,1,0.594,1,193.4602,193.9523,,,,,,271,FEM,WORD,DIS,150,señal,,el,,0.594,,193.9526,193.9531,-0.006896522,-0.334482804,0,0,0,,0,10,10,270,1,refal,,,,
,,,,,,5df79331451be551923ad906,676192165fb32c2e1fb7aee6,67d19424a814518212811afa,2025-03-12_08h05.32.036,Tarea de decisión léxica,2024.2.5,Win32,60.24096386,,,,,,,,,,,,,,,,,,,,,,,193.9553,195.1264,a,1,0.5101,1,195.1266,195.6252,,,,,,80,FEM,NOWORD,DIS,150,ciel,,el,,0.5101,,195.6278,195.629,-0.006896522,-0.334482804,0,0,0,,0,11,11,79,1,piel,,,,
,,,,,,5df79331451be551923ad906,676192165fb32c2e1fb7aee6,67d19424a814518212811afa,2025-03-12_08h05.32.036,Tarea de decisión léxica,2024.2.5,Win32,60.24096386,,,,,,,,,,,,,,,,,,,,,,,195.6301,197.0921,a,1,0.7955,1,197.0922,197.5858,,,,,,74,MAS,NOWORD,AGR,150,omio,,el,,0.7955,,197.586,197.5862,-0.006896522,-0.334482804,0,0,0,,0,12,12,73,1,odio,,,,
,,,,,,5df79331451be551923ad906,676192165fb32c2e1fb7aee6,67d19424a814518212811afa,2025-03-12_08h05.32.036,Tarea de decisión léxica,2024.2.5,Win32,60.24096386,,,,,,,,,,,,,,,,,,,,,,,197.5876,199.0763,a,1,0.8094,1,199.0765,199.5728,,,,,,436,MAS,NOWORD,DIS,150,ricno,,la,,0.8094,,199.5729,199.5731,-0.006896522,-0.334482804,0,0,0,,0,13,13,435,1,ritmo,,,,
,,,,,,5df79331451be551923ad906,676192165fb32c2e1fb7aee6,67d19424a814518212811afa,2025-03-12_08h05.32.036,Tarea de decisión léxica,2024.2.5,Win32,60.24096386,,,,,,,,,,,,,,,,,,,,,,,199.5756,200.7924,l,1,0.5353,1,200.7928,201.2856,,,,,,183,FEM,WORD,DIS,150,raya,,el,,0.5353,,201.2858,201.286,-0.006896522,-0.334482804,0,0,0,,0,14,14,182,1,raad,,,,
,,,,,,5df79331451be551923ad906,676192165fb32c2e1fb7aee6,67d19424a814518212811afa,2025-03-12_08h05.32.036,Tarea de decisión léxica,2024.2.5,Win32,60.24096386,,,,,,,,,,,,,,,,,,,,,,,201.2879,202.5506,l,1,0.5826,1,202.5513,203.0416,,,,,,195,FEM,WORD,DIS,150,tela,,el,,0.5826,,203.0417,203.0419,-0.006896522,-0.334482804,0,0,0,,0,15,15,194,1,sira,,,,
,,,,,,5df79331451be551923ad906,676192165fb32c2e1fb7aee6,67d19424a814518212811afa,2025-03-12_08h05.32.036,Tarea de decisión léxica,2024.2.5,Win32,60.24096386,,,,,,,,,,,,,,,,,,,,,,,203.0445,204.2241,l,1,0.4995,1,204.2247,204.7237,,,,,,35,MAS,WORD,DIS,150,pelo,,la,,0.4995,,204.7264,204.7275,-0.006896522,-0.334482804,0,0,0,,0,16,16,34,1,meno,,,,
,,,,,,5df79331451be551923ad906,676192165fb32c2e1fb7aee6,67d19424a814518212811afa,2025-03-12_08h05.32.036,Tarea de decisión léxica,2024.2.5,Win32,60.24096386,,,,,,,,,,,,,,,,,,,,,,,204.729,205.839,a,1,0.4455,1,205.8392,206.3404,,,,,,358,FEM,NOWORD,AGR,150,gruba,,la,,0.4455,,206.3405,206.3408,-0.006896522,-0.334482804,0,0,0,,0,17,17,357,1,bruja,,,,
,,,,,,5df79331451be551923ad906,676192165fb32c2e1fb7aee6,67d19424a814518212811afa,2025-03-12_08h05.32.036,Tarea de decisión léxica,2024.2.5,Win32,60.24096386,,,,,,,,,,,,,,,,,,,,,,,206.343,207.3679,l,1,0.3418,1,207.368,207.8568,,,,,,121,MAS,WORD,AGR,150,hoyo,,el,,0.3418,,207.857,207.8573,-0.006896522,-0.334482804,0,0,0,,0,18,18,120,1,bomo,,,,
,,,,,,5df79331451be551923ad906,676192165fb32c2e1fb7aee6,67d19424a814518212811afa,2025-03-12_08h05.32.036,Tarea de decisión léxica,2024.2.5,Win32,60.24096386,,,,,,,,,,,,,,,,,,,,,,,207.8592,209.2026,a,1,0.6621,1,209.2028,209.7061,,,,,,442,FEM,NOWORD,AGR,150,telza,,la,,0.6621,,209.7062,209.7063,-0.006896522,-0.334482804,0,0,0,,0,19,19,441,1,selva,,,,
,,,,,,5df79331451be551923ad906,676192165fb32c2e1fb7aee6,67d19424a814518212811afa,2025-03-12_08h05.32.036,Tarea de decisión léxica,2024.2.5,Win32,60.24096386,,,,,,,,,,,,,,,,,,,,,,,209.7082,210.8388,l,1,0.4666,1,210.8388,211.3337,,,,,,373,FEM,WORD,AGR,150,pizza,,la,,0.4666,,211.334,211.3344,-0.006896522,-0.334482804,0,0,0,,0,20,20,372,1,pogza,,,,
,,,,,,5df79331451be551923ad906,676192165fb32c2e1fb7aee6,67d19424a814518212811afa,2025-03-12_08h05.32.036,Tarea de decisión léxica,2024.2.5,Win32,60.24096386,,,,,,,,,,,,,,,,,,,,,,,211.3364,212.6415,a,1,0.6432,1,212.6417,213.1398,,,,,,426,FEM,NOWORD,AGR,150,virca,,la,,0.6432,,213.1426,213.1437,-0.006896522,-0.334482804,0,0,0,,0,21,21,425,1,viuda,,,,
,,,,,,5df79331451be551923ad906,676192165fb32c2e1fb7aee6,67d19424a814518212811afa,2025-03-12_08h05.32.036,Tarea de decisión léxica,2024.2.5,Win32,60.24096386,,,,,,,,,,,,,,,,,,,,,,,213.1448,214.4395,a,1,0.6262,1,214.4396,214.9338,,,,,,122,MAS,NOWORD,AGR,150,bomo,,el,,0.6262,,214.9339,214.9339,-0.006896522,-0.334482804,0,0,0,,0,22,22,121,1,hoyo,,,,
,,,,,,5df79331451be551923ad906,676192165fb32c2e1fb7aee6,67d19424a814518212811afa,2025-03-12_08h05.32.036,Tarea de decisión léxica,2024.2.5,Win32,60.24096386,,,,,,,,,,,,,,,,,,,,,,,214.9346,216.0823,l,1,0.4777,1,216.0826,216.5869,,,,,,95,FEM,WORD,DIS,151,moda,,el,,0.4777,,216.587,216.5871,-0.006896522,-0.334482804,0,0,0,,0,23,23,94,1,neda,,,,
,,,,,,5df79331451be551923ad906,676192165fb32c2e1fb7aee6,67d19424a814518212811afa,2025-03-12_08h05.32.036,Tarea de decisión léxica,2024.2.5,Win32,60.24096386,,,,,,,,,,,,,,,,,,,,,,,216.5883,218.1361,l,1,0.8814,1,218.1362,218.6354,,,,,,187,MAS,WORD,DIS,150,mito,,la,,0.8814,,218.6355,218.6356,-0.006896522,-0.334482804,0,0,0,,0,24,24,186,1,suto,,,,
,,,,,,5df79331451be551923ad906,676192165fb32c2e1fb7aee6,67d19424a814518212811afa,2025-03-12_08h05.32.036,Tarea de decisión léxica,2024.2.5,Win32,60.24096386,,,,,,,,,,,,,,,,,,,,,,,218.6369,219.8555,l,1,0.5478,1,219.8556,220.3482,,,,,,417,FEM,WORD,AGR,150,barba,,la,,0.5478,,220.3485,220.3489,-0.006896522,-0.334482804,0,0,0,,0,25,25,416,1,banja,,,,
,,,,,,5df79331451be551923ad906,676192165fb32c2e1fb7aee6,67d19424a814518212811afa,2025-03-12_08h05.32.036,Tarea de decisión léxica,2024.2.5,Win32,60.24096386,,,,,,,,,,,,,,,,,,,,,,,220.3507,221.504,l,1,0.4774,1,221.5041,222.003,,,,,,285,MAS,WORD,AGR,150,error,,el,,0.4774,,222.0047,222.0054,-0.006896522,-0.334482804,0,0,0,,0,26,26,284,1,echor,,,,
,,,,,,5df79331451be551923ad906,676192165fb32c2e1fb7aee6,67d19424a814518212811afa,2025-03-12_08h05.32.036,Tarea de decisión léxica,2024.2.5,Win32,60.24096386,,,,,,,,,,,,,,,,,,,,,,,222.0061,223.19,a,1,0.5109,1,223.1902,223.6828,,,,,,318,FEM,NOWORD,AGR,150,plaad,,la,,0.5109,,223.6832,223.6834,-0.006896522,-0.334482804,0,0,0,,0,27,27,317,1,playa,,,,
,,,,,,5df79331451be551923ad906,676192165fb32c2e1fb7aee6,67d19424a814518212811afa,2025-03-12_08h05.32.036,Tarea de decisión léxica,2024.2.5,Win32,60.24096386,,,,,,,,,,,,,,,,,,,,,,,223.6857,224.8848,l,1,0.528,1,224.8849,225.3816,,,,,,233,FEM,WORD,AGR,150,lana,,la,,0.528,,225.3819,225.3823,-0.006896522,-0.334482804,0,0,0,,0,28,28,232,1,fasa,,,,
,,,,,,5df79331451be551923ad906,676192165fb32c2e1fb7aee6,67d19424a814518212811afa,2025-03-12_08h05.32.036,Tarea de decisión léxica,2024.2.5,Win32,60.24096386,,,,,,,,,,,,,,,,,,,,,,,225.385,226.5308,l,1,0.4763,1,226.5312,227.019,,,,,,291,FEM,WORD,DIS,150,pista,,el,,0.4763,,227.019,227.0192,-0.006896522,-0.334482804,0,0,0,,0,29,29,290,1,mesta,,,,
,,,,,,5df79331451be551923ad906,676192165fb32c2e1fb7aee6,67d19424a814518212811afa,2025-03-12_08h05.32.036,Tarea de decisión léxica,2024.2.5,Win32,60.24096386,,,,,,,,,,,,,,,,,,,,,,,227.0201,228.3366,a,1,0.6529,1,228.3367,228.8306,,,,,,414,FEM,NOWORD,AGR,150,bieda,,la,,0.6529,,228.8313,228.8316,-0.006896522,-0.334482804,0,0,0,,0,30,30,413,1,rueda,,,,
,,,,,,5df79331451be551923ad906,676192165fb32c2e1fb7aee6,67d19424a814518212811afa,2025-03-12_08h05.32.036,Tarea de decisión léxica,2024.2.5,Win32,60.24096386,,,,,,,,,,,,,,,,,,,,,,,228.8331,229.9482,l,1,0.4314,1,229.9487,230.4476,,,,,,287,FEM,WORD,DIS,150,lista,,el,,0.4314,,230.4498,230.4506,-0.006896522,-0.334482804,0,0,0,,0,31,31,286,1,fosta,,,,
,,,,,,5df79331451be551923ad906,676192165fb32c2e1fb7aee6,67d19424a814518212811afa,2025-03-12_08h05.32.036,Tarea de decisión léxica,2024.2.5,Win32,60.24096386,,,,,,,,,,,,,,,,,,,,,,,230.4512,231.5048,l,1,0.3674,1,231.5051,231.9979,,,,,,133,FEM,WORD,AGR,150,vaca,,la,,0.3674,,231.9983,231.9984,-0.006896522,-0.334482804,0,0,0,,0,32,32,132,1,vesa,,,,
,,,,,,5df79331451be551923ad906,676192165fb32c2e1fb7aee6,67d19424a814518212811afa,2025-03-12_08h05.32.036,Tarea de decisión léxica,2024.2.5,Win32,60.24096386,,,,,,,,,,,,,,,,,,,,,,,231.9998,233.0364,l,1,0.3621,1,233.0365,233.531,,,,,,445,MAS,WORD,AGR,150,actor,,el,,0.3621,,233.5313,233.5315,-0.006896522,-0.334482804,0,0,0,,0,33,33,444,1,ascor,,,,
,,,,,,5df79331451be551923ad906,676192165fb32c2e1fb7aee6,67d19424a814518212811afa,2025-03-12_08h05.32.036,Tarea de decisión léxica,2024.2.5,Win32,60.24096386,,,,,,,,,,,,,,,,,,,,,,,233.5326,234.5485,l,1,0.3282,1,234.5491,235.0371,,,,,,379,MAS,WORD,DIS,150,turno,,la,,0.3282,,235.0372,235.0374,-0.006896522,-0.334482804,0,0,0,,0,34,34,378,1,tunso,,,,
,,,,,,5df79331451be551923ad906,676192165fb32c2e1fb7aee6,67d19424a814518212811afa,2025-03-12_08h05.32.036,Tarea de decisión léxica,2024.2.5,Win32,60.24096386,,,,,,,,,,,,,,,,,,,,,,,235.0396,236.122,l,1,0.4129,1,236.123,236.6144,,,,,,453,FEM,WORD,AGR,150,mafia,,la,,0.4129,,236.6168,236.6179,-0.006896522,-0.334482804,0,0,0,,0,35,35,452,1,pafia,,,,
,,,,,,5df79331451be551923ad906,676192165fb32c2e1fb7aee6,67d19424a814518212811afa,2025-03-12_08h05.32.036,Tarea de decisión léxica,2024.2.5,Win32,60.24096386,,,,,,,,,,,,,,,,,,,,,,,236.6189,237.6147,l,1,0.3073,1,237.6148,238.1195,,,,,,353,FEM,WORD,AGR,150,celda,,la,,0.3073,,238.1196,238.1197,-0.006896522,-0.334482804,0,0,0,,0,36,36,352,1,cezca,,,,
,,,,,,5df79331451be551923ad906,676192165fb32c2e1fb7aee6,67d19424a814518212811afa,2025-03-12_08h05.32.036,Tarea de decisión léxica,2024.2.5,Win32,60.24096386,,,,,,,,,,,,,,,,,,,,,,,238.1214,239.0622,a,1,0.2679,1,239.0625,239.5704,,,,,,398,FEM,NOWORD,AGR,150,trigi,,la,,0.2679,,239.5706,239.5708,-0.006896522,-0.334482804,0,0,0,,0,37,37,397,1,tribu,,,,
,,,,,,5df79331451be551923ad906,676192165fb32c2e1fb7aee6,67d19424a814518212811afa,2025-03-12_08h05.32.036,Tarea de decisión léxica,2024.2.5,Win32,60.24096386,,,,,,,,,,,,,,,,,,,,,,,239.573,240.5292,l,0,0.2743,0,240.5308,241.0354,,,,,,182,FEM,NOWORD,AGR,150,teda,,la,,0.2743,,241.0356,241.0357,-0.006896522,-0.334482804,0,0,0,,0,38,38,181,1,seda,,,,
,,,,,,5df79331451be551923ad906,676192165fb32c2e1fb7aee6,67d19424a814518212811afa,2025-03-12_08h05.32.036,Tarea de decisión léxica,2024.2.5,Win32,60.24096386,,,,,,,,,,,,,,,,,,,,,,,241.0379,242.185,l,0,0.4664,0,242.1852,242.6798,,,,,,154,MAS,NOWORD,AGR,150,tado,,el,,0.4664,,242.6801,242.6803,-0.006896522,-0.334482804,0,0,0,,0,39,39,153,1,pato,,,,
,,,,,,5df79331451be551923ad906,676192165fb32c2e1fb7aee6,67d19424a814518212811afa,2025-03-12_08h05.32.036,Tarea de decisión léxica,2024.2.5,Win32,60.24096386,,,,,,,,,,,,,,,,,,,,,,,242.682,243.9054,a,1,0.5532,1,243.9068,244.3978,,,,,,128,MAS,NOWORD,DIS,150,itio,,la,,0.5532,,244.3997,244.4004,-0.006896522,-0.334482804,0,0,0,,0,40,40,127,1,pico,,,,
,,,,,,5df79331451be551923ad906,676192165fb32c2e1fb7aee6,67d19424a814518212811afa,2025-03-12_08h05.32.036,Tarea de decisión léxica,2024.2.5,Win32,60.24096386,,,,,,,,,,,,,,,,,,,,,,,244.4009,245.604,l,1,0.5365,1,245.604,246.0969,,,,,,67,FEM,WORD,DIS,150,nena,,el,,0.5365,,246.0974,246.0976,-0.006896522,-0.334482804,0,0,0,,0,41,41,66,1,gesa,,,,
,,,,,,5df79331451be551923ad906,676192165fb32c2e1fb7aee6,67d19424a814518212811afa,2025-03-12_08h05.32.036,Tarea de decisión léxica,2024.2.5,Win32,60.24096386,,,,,,,,,,,,,,,,,,,,,,,246.0996,247.3372,a,1,0.5779,1,247.3372,247.8298,,,,,,78,MAS,NOWORD,AGR,150,fodo,,el,,0.5779,,247.8298,247.8299,-0.006896522,-0.334482804,0,0,0,,0,42,42,77,1,loco,,,,
,,,,,,5df79331451be551923ad906,676192165fb32c2e1fb7aee6,67d19424a814518212811afa,2025-03-12_08h05.32.036,Tarea de decisión léxica,2024.2.5,Win32,60.24096386,,,,,,,,,,,,,,,,,,,,,,,247.8305,249.0356,a,1,0.5417,1,249.0358,249.5319,,,,,,468,MAS,NOWORD,DIS,150,peiso,,la,,0.5417,,249.5321,249.5322,-0.006896522,-0.334482804,0,0,0,,0,43,43,467,1,piano,,,,
,,,,,,5df79331451be551923ad906,676192165fb32c2e1fb7aee6,67d19424a814518212811afa,2025-03-12_08h05.32.036,Tarea de decisión léxica,2024.2.5,Win32,60.24096386,,,,,,,,,,,,,,,,,,,,,,,249.535,250.5861,a,1,0.3675,1,250.5862,251.079,,,,,,428,FEM,NOWORD,DIS,150,oseva,,el,,0.3675,,251.0794,251.0796,-0.006896522,-0.334482804,0,0,0,,0,44,44,427,1,oreja,,,,
,,,,,,5df79331451be551923ad906,676192165fb32c2e1fb7aee6,67d19424a814518212811afa,2025-03-12_08h05.32.036,Tarea de decisión léxica,2024.2.5,Win32,60.24096386,,,,,,,,,,,,,,,,,,,,,,,251.0817,252.2143,l,0,0.4732,0,252.2158,252.7178,,,,,,86,MAS,NOWORD,AGR,150,babo,,el,,0.4732,,252.7202,252.7214,-0.006896522,-0.334482804,0,0,0,,0,45,45,85,1,lago,,,,
,,,,,,5df79331451be551923ad906,676192165fb32c2e1fb7aee6,67d19424a814518212811afa,2025-03-12_08h05.32.036,Tarea de decisión léxica,2024.2.5,Win32,60.24096386,,,,,,,,,,,,,,,,,,,,,,,252.7224,253.9364,a,1,0.534,1,253.9375,254.4298,,,,,,362,FEM,NOWORD,AGR,150,solle,,la,,0.534,,254.4299,254.4303,-0.006896522,-0.334482804,0,0,0,,0,46,46,361,1,torre,,,,
,,,,,,5df79331451be551923ad906,676192165fb32c2e1fb7aee6,67d19424a814518212811afa,2025-03-12_08h05.32.036,Tarea de decisión léxica,2024.2.5,Win32,60.24096386,,,,,,,,,,,,,,,,,,,,,,,254.4323,255.5868,a,1,0.495,1,255.5869,256.0792,,,,,,198,MAS,NOWORD,AGR,150,dade,,el,,0.495,,256.0793,256.0794,-0.006896522,-0.334482804,0,0,0,,0,47,47,197,1,bate,,,,
,,,,,,5df79331451be551923ad906,676192165fb32c2e1fb7aee6,67d19424a814518212811afa,2025-03-12_08h05.32.036,Tarea de decisión léxica,2024.2.5,Win32,60.24096386,,,,,,,,,,,,,,,,,,,,,,,256.0809,257.3528,a,1,0.6159,1,257.353,257.8507,,,,,,304,MAS,NOWORD,DIS,150,lanco,,la,,0.6159,,257.8508,257.8512,-0.006896522,-0.334482804,0,0,0,,0,48,48,303,1,barco,,,,
,,,,,,5df79331451be551923ad906,676192165fb32c2e1fb7aee6,67d19424a814518212811afa,2025-03-12_08h05.32.036,Tarea de decisión léxica,2024.2.5,Win32,60.24096386,,,,,,,,,,,,,,,,,,,,,,,257.8534,258.9018,a,1,0.383,1,258.9019,259.3947,,,,,,270,MAS,NOWORD,AGR,150,mello,,el,,0.383,,259.3951,259.3952,-0.006896522,-0.334482804,0,0,0,,0,49,49,269,1,perro,,,,
,,,,,,5df79331451be551923ad906,676192165fb32c2e1fb7aee6,67d19424a814518212811afa,2025-03-12_08h05.32.036,Tarea de decisión léxica,2024.2.5,Win32,60.24096386,,,,,,,,,,,,,,,,,,,,,,,259.3975,260.5355,a,1,0.4804,1,260.5357,261.0344,,,,,,382,MAS,NOWORD,AGR,150,nusor,,el,,0.4804,,261.0373,261.0385,-0.006896522,-0.334482804,0,0,0,,0,50,50,381,1,humor,,,,
,,,,,,5df79331451be551923ad906,676192165fb32c2e1fb7aee6,67d19424a814518212811afa,2025-03-12_08h05.32.036,Tarea de decisión léxica,2024.2.5,Win32,60.24096386,,,,,,,,,,,,,,,,,,,,,,,261.0397,262.003,l,1,0.2961,1,262.0031,262.5011,,,,,,451,FEM,WORD,DIS,150,fruta,,el,,0.2961,,262.5011,262.5013,-0.006896522,-0.334482804,0,0,0,,0,51,51,450,1,clita,,,,
,,,,,,5df79331451be551923ad906,676192165fb32c2e1fb7aee6,67d19424a814518212811afa,2025-03-12_08h05.32.036,Tarea de decisión léxica,2024.2.5,Win32,60.24096386,,,,,,,,,,,,,,,,,,,,,,,262.5035,263.7017,a,1,0.5177,1,263.7018,264.1939,,,,,,286,MAS,NOWORD,AGR,150,echor,,el,,0.5177,,264.1942,264.1943,-0.006896522,-0.334482804,0,0,0,,0,52,52,285,1,error,,,,
,,,,,,5df79331451be551923ad906,676192165fb32c2e1fb7aee6,67d19424a814518212811afa,2025-03-12_08h05.32.036,Tarea de decisión léxica,2024.2.5,Win32,60.24096386,,,,,,,,,,,,,,,,,,,,,,,264.1951,265.3931,l,1,0.5317,1,265.3939,265.8947,,,,,,155,FEM,WORD,DIS,150,fuga,,el,,0.5317,,265.8953,265.8957,-0.006896522,-0.334482804,0,0,0,,0,53,53,154,1,luma,,,,
,,,,,,5df79331451be551923ad906,676192165fb32c2e1fb7aee6,67d19424a814518212811afa,2025-03-12_08h05.32.036,Tarea de decisión léxica,2024.2.5,Win32,60.24096386,,,,,,,,,,,,,,,,,,,,,,,265.8976,267.0479,l,1,0.4828,1,267.0479,267.548,,,,,,475,FEM,WORD,DIS,150,manta,,el,,0.4828,,267.5481,267.5483,-0.006896522,-0.334482804,0,0,0,,0,54,54,474,1,mucta,,,,
,,,,,,5df79331451be551923ad906,676192165fb32c2e1fb7aee6,67d19424a814518212811afa,2025-03-12_08h05.32.036,Tarea de decisión léxica,2024.2.5,Win32,60.24096386,,,,,,,,,,,,,,,,,,,,,,,267.5491,268.5484,l,1,0.317,1,268.5489,269.0468,,,,,,471,FEM,WORD,DIS,150,grasa,,el,,0.317,,269.0476,269.0482,-0.006896522,-0.334482804,0,0,0,,0,55,55,470,1,prana,,,,
,,,,,,5df79331451be551923ad906,676192165fb32c2e1fb7aee6,67d19424a814518212811afa,2025-03-12_08h05.32.036,Tarea de decisión léxica,2024.2.5,Win32,60.24096386,,,,,,,,,,,,,,,,,,,,,,,269.0486,270.1492,l,0,0.4324,0,270.1499,270.645,,,,,,94,FEM,NOWORD,AGR,150,rona,,la,,0.4324,,270.6452,270.6454,-0.006896522,-0.334482804,0,0,0,,0,56,56,93,1,bola,,,,
,,,,,,5df79331451be551923ad906,676192165fb32c2e1fb7aee6,67d19424a814518212811afa,2025-03-12_08h05.32.036,Tarea de decisión léxica,2024.2.5,Win32,60.24096386,,,,,,,,,,,,,,,,,,,,,,,270.6464,271.793,l,1,0.4625,1,271.7945,272.2971,,,,,,343,FEM,WORD,DIS,150,plata,,el,,0.4625,,272.2971,272.2972,-0.006896522,-0.334482804,0,0,0,,0,57,57,342,1,trada,,,,
,,,,,,5df79331451be551923ad906,676192165fb32c2e1fb7aee6,67d19424a814518212811afa,2025-03-12_08h05.32.036,Tarea de decisión léxica,2024.2.5,Win32,60.24096386,,,,,,,,,,,,,,,,,,,,,,,272.2989,273.4255,a,1,0.4551,1,273.4259,273.9322,,,,,,316,FEM,NOWORD,DIS,150,riosa,,el,,0.4551,,273.9322,273.9324,-0.006896522,-0.334482804,0,0,0,,0,58,58,315,1,reina,,,,
,,,,,,5df79331451be551923ad906,676192165fb32c2e1fb7aee6,67d19424a814518212811afa,2025-03-12_08h05.32.036,Tarea de decisión léxica,2024.2.5,Win32,60.24096386,,,,,,,,,,,,,,,,,,,,,,,273.9339,275.0651,l,1,0.4636,1,275.0653,275.5641,,,,,,249,FEM,WORD,AGR,150,clase,,la,,0.4636,,275.5653,275.5661,-0.006896522,-0.334482804,0,0,0,,0,59,59,248,1,plane,,,,
,,,,,,5df79331451be551923ad906,676192165fb32c2e1fb7aee6,67d19424a814518212811afa,2025-03-12_08h05.32.036,Tarea de decisión léxica,2024.2.5,Win32,60.24096386,,,,,,,,,,,,,,,,,,,,,,,275.5667,276.6649,a,1,0.418,1,276.665,277.1589,,,,,,254,MAS,NOWORD,AGR,150,trido,,el,,0.418,,277.1591,277.1595,-0.006896522,-0.334482804,0,0,0,,0,60,60,253,1,chico,,,,
,,,,,,5df79331451be551923ad906,676192165fb32c2e1fb7aee6,67d19424a814518212811afa,2025-03-12_08h05.32.036,Tarea de decisión léxica,2024.2.5,Win32,60.24096386,,,,,,,,,,,,,,,,,,,,,,,277.1608,278.2645,l,1,0.4421,1,278.2647,278.758,,,,,,347,FEM,WORD,DIS,150,pieza,,el,,0.4421,,278.7583,278.7586,-0.006896522,-0.334482804,0,0,0,,0,61,61,346,1,mueza,,,,
,,,,,,5df79331451be551923ad906,676192165fb32c2e1fb7aee6,67d19424a814518212811afa,2025-03-12_08h05.32.036,Tarea de decisión léxica,2024.2.5,Win32,60.24096386,,,,,,,,,,,,,,,,,,,,,,,278.7603,279.9417,l,1,0.5021,1,279.9421,280.4427,,,,,,407,FEM,WORD,DIS,150,cueva,,el,,0.5021,,280.4428,280.4429,-0.006896522,-0.334482804,0,0,0,,0,62,62,406,1,cauba,,,,
,,,,,,5df79331451be551923ad906,676192165fb32c2e1fb7aee6,67d19424a814518212811afa,2025-03-12_08h05.32.036,Tarea de decisión léxica,2024.2.5,Win32,60.24096386,,,,,,,,,,,,,,,,,,,,,,,280.4446,281.5814,a,0,0.4627,0,281.5823,282.0753,,,,,,83,FEM,WORD,DIS,150,bala,,el,,0.4627,,282.0757,282.076,-0.006896522,-0.334482804,0,0,0,,0,63,63,82,1,taga,,,,
,,,,,,5df79331451be551923ad906,676192165fb32c2e1fb7aee6,67d19424a814518212811afa,2025-03-12_08h05.32.036,Tarea de decisión léxica,2024.2.5,Win32,60.24096386,,,,,,,,,,,,,,,,,,,,,,,282.078,283.2501,l,1,0.4967,1,283.2513,283.746,,,,,,439,FEM,WORD,DIS,150,presa,,el,,0.4967,,283.747,283.7477,-0.006896522,-0.334482804,0,0,0,,0,64,64,438,1,prema,,,,
,,,,,,5df79331451be551923ad906,676192165fb32c2e1fb7aee6,67d19424a814518212811afa,2025-03-12_08h05.32.036,Tarea de decisión léxica,2024.2.5,Win32,60.24096386,,,,,,,,,,,,,,,,,,,,,,,283.7483,285.0627,l,1,0.6325,1,285.0627,285.5581,,,,,,77,MAS,WORD,AGR,150,loco,,el,,0.6325,,285.5584,285.5585,-0.006896522,-0.334482804,0,0,0,,0,65,65,76,1,fodo,,,,
,,,,,,5df79331451be551923ad906,676192165fb32c2e1fb7aee6,67d19424a814518212811afa,2025-03-12_08h05.32.036,Tarea de decisión léxica,2024.2.5,Win32,60.24096386,,,,,,,,,,,,,,,,,,,,,,,285.5605,286.8959,a,1,0.6739,1,286.896,287.3966,,,,,,310,FEM,NOWORD,AGR,150,tirra,,la,,0.6739,,287.3968,287.397,-0.006896522,-0.334482804,0,0,0,,0,66,66,309,1,silla,,,,
,,,,,,5df79331451be551923ad906,676192165fb32c2e1fb7aee6,67d19424a814518212811afa,2025-03-12_08h05.32.036,Tarea de decisión léxica,2024.2.5,Win32,60.24096386,,,,,,,,,,,,,,,,,,,,,,,287.3992,288.5646,l,1,0.4849,1,288.5649,289.0576,,,,,,89,MAS,WORD,AGR,150,humo,,el,,0.4849,,289.0578,289.0581,-0.006896522,-0.334482804,0,0,0,,0,67,67,88,1,guso,,,,
,,,,,,5df79331451be551923ad906,676192165fb32c2e1fb7aee6,67d19424a814518212811afa,2025-03-12_08h05.32.036,Tarea de decisión léxica,2024.2.5,Win32,60.24096386,,,,,,,,,,,,,,,,,,,,,,,289.0593,290.2249,l,1,0.492,1,290.2253,290.714,,,,,,199,MAS,WORD,DIS,150,lazo,,la,,0.492,,290.7142,290.7146,-0.006896522,-0.334482804,0,0,0,,0,68,68,198,1,fano,,,,
,,,,,,5df79331451be551923ad906,676192165fb32c2e1fb7aee6,67d19424a814518212811afa,2025-03-12_08h05.32.036,Tarea de decisión léxica,2024.2.5,Win32,60.24096386,,,,,,,,,,,,,,,,,,,,,,,290.7168,291.8245,a,1,0.44,1,291.8246,292.3119,,,,,,10,MAS,NOWORD,AGR,150,sibo,,el,,0.44,,292.3141,292.3155,-0.006896522,-0.334482804,0,0,0,,0,69,69,9,1,tipo,,,,
,,,,,,5df79331451be551923ad906,676192165fb32c2e1fb7aee6,67d19424a814518212811afa,2025-03-12_08h05.32.036,Tarea de decisión léxica,2024.2.5,Win32,60.24096386,,,,,,,,,,,,,,,,,,,,,,,292.3166,293.5127,l,1,0.5157,1,293.5128,294.0117,,,,,,163,FEM,WORD,DIS,150,fama,,el,,0.5157,,294.0118,294.0119,-0.006896522,-0.334482804,0,0,0,,0,70,70,162,1,laga,,,,
,,,,,,5df79331451be551923ad906,676192165fb32c2e1fb7aee6,67d19424a814518212811afa,2025-03-12_08h05.32.036,Tarea de decisión léxica,2024.2.5,Win32,60.24096386,,,,,,,,,,,,,,,,,,,,,,,294.0141,295.3149,a,1,0.6197,1,295.3151,295.8114,,,,,,6,FEM,NOWORD,AGR,150,poga,,la,,0.6197,,295.8114,295.8115,-0.006896522,-0.334482804,0,0,0,,0,71,71,5,1,cosa,,,,
,,,,,,5df79331451be551923ad906,676192165fb32c2e1fb7aee6,67d19424a814518212811afa,2025-03-12_08h05.32.036,Tarea de decisión léxica,2024.2.5,Win32,60.24096386,,,,,,,,,,,,,,,,,,,,,,,295.8125,297.313,a,1,0.8362,1,297.3131,297.8071,,,,,,34,FEM,NOWORD,AGR,150,loda,,la,,0.8362,,297.8073,297.8076,-0.006896522,-0.334482804,0,0,0,,0,72,72,33,1,boca,,,,
,,,,,,5df79331451be551923ad906,676192165fb32c2e1fb7aee6,67d19424a814518212811afa,2025-03-12_08h05.32.036,Tarea de decisión léxica,2024.2.5,Win32,60.24096386,,,,,,,,,,,,,,,,,,,,,,,297.8097,298.9061,l,0,0.4338,0,298.9071,299.3952,,,,,,206,FEM,NOWORD,AGR,150,bara,,la,,0.4338,,299.3953,299.3953,-0.006896522,-0.334482804,0,0,0,,0,73,73,205,1,rana,,,,
,,,,,,5df79331451be551923ad906,676192165fb32c2e1fb7aee6,67d19424a814518212811afa,2025-03-12_08h05.32.036,Tarea de decisión léxica,2024.2.5,Win32,60.24096386,,,,,,,,,,,,,,,,,,,,,,,299.397,300.6462,l,1,0.5779,1,300.6482,301.1462,,,,,,405,FEM,WORD,AGR,150,barra,,la,,0.5779,,301.1488,301.1499,-0.006896522,-0.334482804,0,0,0,,0,74,74,404,1,rarra,,,,
,,,,,,5df79331451be551923ad906,676192165fb32c2e1fb7aee6,67d19424a814518212811afa,2025-03-12_08h05.32.036,Tarea de decisión léxica,2024.2.5,Win32,60.24096386,,,,,,,,,,,,,,,,,,,,,,,301.1509,302.6796,l,1,0.8612,1,302.6798,303.1718,,,,,,131,FEM,WORD,DIS,150,mina,,el,,0.8612,,303.1721,303.1724,-0.006896522,-0.334482804,0,0,0,,0,75,75,130,1,fada,,,,
,,,,,,5df79331451be551923ad906,676192165fb32c2e1fb7aee6,67d19424a814518212811afa,2025-03-12_08h05.32.036,Tarea de decisión léxica,2024.2.5,Win32,60.24096386,,,,,,,,,,,,,,,,,,,,,,,303.1747,304.3629,a,1,0.5182,1,304.3631,304.8577,,,,,,338,MAS,NOWORD,AGR,150,nuejo,,el,,0.5182,,304.8578,304.8584,-0.006896522,-0.334482804,0,0,0,,0,76,76,337,1,huevo,,,,
,,,,,,5df79331451be551923ad906,676192165fb32c2e1fb7aee6,67d19424a814518212811afa,2025-03-12_08h05.32.036,Tarea de decisión léxica,2024.2.5,Win32,60.24096386,,,,,,,,,,,,,,,,,,,,,,,304.8594,305.9891,a,1,0.4376,1,305.9894,306.4786,,,,,,56,MAS,NOWORD,DIS,150,jado,,la,,0.4376,,306.4786,306.4791,-0.006896522,-0.334482804,0,0,0,,0,77,77,55,1,gato,,,,
,,,,,,5df79331451be551923ad906,676192165fb32c2e1fb7aee6,67d19424a814518212811afa,2025-03-12_08h05.32.036,Tarea de decisión léxica,2024.2.5,Win32,60.24096386,,,,,,,,,,,,,,,,,,,,,,,306.4813,307.5777,l,1,0.4283,1,307.5777,308.0706,,,,,,331,MAS,WORD,DIS,150,éxito,,la,,0.4283,,308.0709,308.0711,-0.006896522,-0.334482804,0,0,0,,0,78,78,330,1,erato,,,,
,,,,,,5df79331451be551923ad906,676192165fb32c2e1fb7aee6,67d19424a814518212811afa,2025-03-12_08h05.32.036,Tarea de decisión léxica,2024.2.5,Win32,60.24096386,,,,,,,,,,,,,,,,,,,,,,,308.0729,309.2446,l,1,0.4827,1,309.2449,309.7426,,,,,,395,FEM,WORD,DIS,150,caída,,el,,0.4827,,309.7439,309.7448,-0.006896522,-0.334482804,0,0,0,,0,79,79,394,1,paeda,,,,
,,,,,,5df79331451be551923ad906,676192165fb32c2e1fb7aee6,67d19424a814518212811afa,2025-03-12_08h05.32.036,Tarea de decisión léxica,2024.2.5,Win32,60.24096386,,,,,,,,,,,,,,,,,,,,,,,309.7455,310.8709,a,1,0.4392,1,310.8712,311.3602,,,,,,68,FEM,NOWORD,DIS,150,gesa,,el,,0.4392,,311.3604,311.3605,-0.006896522,-0.334482804,0,0,0,,0,80,80,67,1,nena,,,,
,,,,,,5df79331451be551923ad906,676192165fb32c2e1fb7aee6,67d19424a814518212811afa,2025-03-12_08h05.32.036,Tarea de decisión léxica,2024.2.5,Win32,60.24096386,,,,,,,,,,,,,,,,,,,,,,,311.3618,312.5219,a,0,0.4788,0,312.5238,313.0112,,,,,,13,FEM,WORD,AGR,150,hora,,la,,0.4788,,313.0116,313.0118,-0.006896522,-0.334482804,0,0,0,,0,81,81,12,1,nola,,,,
,,,,,,5df79331451be551923ad906,676192165fb32c2e1fb7aee6,67d19424a814518212811afa,2025-03-12_08h05.32.036,Tarea de decisión léxica,2024.2.5,Win32,60.24096386,,,,,,,,,,,,,,,,,,,,,,,313.0147,314.1287,l,1,0.4453,1,314.1301,314.6218,,,,,,477,MAS,WORD,AGR,150,botón,,el,,0.4453,,314.622,314.6223,-0.006896522,-0.334482804,0,0,0,,0,82,82,476,1,hocon,,,,
,,,,,,5df79331451be551923ad906,676192165fb32c2e1fb7aee6,67d19424a814518212811afa,2025-03-12_08h05.32.036,Tarea de decisión léxica,2024.2.5,Win32,60.24096386,,,,,,,,,,,,,,,,,,,,,,,314.6254,315.821,a,0,0.5124,0,315.8219,316.3246,,,,,,257,FEM,WORD,AGR,150,amiga,,la,,0.5124,,316.3255,316.3261,-0.006896522,-0.334482804,0,0,0,,0,83,83,256,1,asama,,,,
,,,,,,5df79331451be551923ad906,676192165fb32c2e1fb7aee6,67d19424a814518212811afa,2025-03-12_08h05.32.036,Tarea de decisión léxica,2024.2.5,Win32,60.24096386,,,,,,,,,,,,,,,,,,,,,,,316.3266,317.4032,l,1,0.4079,1,317.405,317.9096,,,,,,431,MAS,WORD,DIS,150,motor,,la,,0.4079,,317.9097,317.9097,-0.006896522,-0.334482804,0,0,0,,0,84,84,430,1,tetor,,,,
,,,,,,5df79331451be551923ad906,676192165fb32c2e1fb7aee6,67d19424a814518212811afa,2025-03-12_08h05.32.036,Tarea de decisión léxica,2024.2.5,Win32,60.24096386,,,,,,,,,,,,,,,,,,,,,,,317.9108,319.4593,l,1,0.8765,1,319.4594,319.9581,,,,,,219,FEM,WORD,DIS,150,pipa,,el,,0.8765,,319.9581,319.9582,-0.006896522,-0.334482804,0,0,0,,0,85,85,218,1,miva,,,,
,,,,,,5df79331451be551923ad906,676192165fb32c2e1fb7aee6,67d19424a814518212811afa,2025-03-12_08h05.32.036,Tarea de decisión léxica,2024.2.5,Win32,60.24096386,,,,,,,,,,,,,,,,,,,,,,,319.9594,321.0699,l,1,0.4342,1,321.0703,321.5699,,,,,,275,MAS,WORD,DIS,150,punto,,la,,0.4342,,321.5701,321.5704,-0.006896522,-0.334482804,0,0,0,,0,86,86,274,1,musto,,,,
,,,,,,5df79331451be551923ad906,676192165fb32c2e1fb7aee6,67d19424a814518212811afa,2025-03-12_08h05.32.036,Tarea de decisión léxica,2024.2.5,Win32,60.24096386,,,,,,,,,,,,,,,,,,,,,,,321.5726,322.5906,l,1,0.3613,1,322.5907,323.0868,,,,,,123,FEM,WORD,DIS,150,flor,,el,,0.3613,,323.0871,323.0874,-0.006896522,-0.334482804,0,0,0,,0,87,87,122,1,maba,,,,
,,,,,,5df79331451be551923ad906,676192165fb32c2e1fb7aee6,67d19424a814518212811afa,2025-03-12_08h05.32.036,Tarea de decisión léxica,2024.2.5,Win32,60.24096386,,,,,,,,,,,,,,,,,,,,,,,323.0896,324.1244,l,1,0.3758,1,324.1245,324.6209,,,,,,325,FEM,WORD,AGR,150,magia,,la,,0.3758,,324.6232,324.6248,-0.006896522,-0.334482804,0,0,0,,0,88,88,324,1,mabia,,,,
,,,,,,5df79331451be551923ad906,676192165fb32c2e1fb7aee6,67d19424a814518212811afa,2025-03-12_08h05.32.036,Tarea de decisión léxica,2024.2.5,Win32,60.24096386,,,,,,,,,,,,,,,,,,,,,,,324.6266,325.8089,l,1,0.5148,1,325.809,326.3096,,,,,,235,FEM,WORD,DIS,150,grúa,,el,,0.5148,,326.3097,326.3098,-0.006896522,-0.334482804,0,0,0,,0,89,89,234,1,tria,,,,
,,,,,,5df79331451be551923ad906,676192165fb32c2e1fb7aee6,67d19424a814518212811afa,2025-03-12_08h05.32.036,Tarea de decisión léxica,2024.2.5,Win32,60.24096386,,,,,,,,,,,,,,,,,,,,,,,326.3122,327.2241,l,1,0.242,1,327.2241,327.7208,,,,,,221,FEM,WORD,AGR,150,mula,,la,,0.242,,327.7209,327.721,-0.006896522,-0.334482804,0,0,0,,0,90,90,220,1,puca,,,,
,,,,,,5df79331451be551923ad906,676192165fb32c2e1fb7aee6,67d19424a814518212811afa,2025-03-12_08h05.32.036,Tarea de decisión léxica,2024.2.5,Win32,60.24096386,,,,,,,,,,,,,,,,,,,,,,,327.723,328.7608,l,1,0.3809,1,328.7612,329.2528,,,,,,459,MAS,WORD,DIS,150,grado,,la,,0.3809,,329.2529,329.253,-0.006896522,-0.334482804,0,0,0,,0,91,91,458,1,fraco,,,,
,,,,,,5df79331451be551923ad906,676192165fb32c2e1fb7aee6,67d19424a814518212811afa,2025-03-12_08h05.32.036,Tarea de decisión léxica,2024.2.5,Win32,60.24096386,,,,,,,,,,,,,,,,,,,,,,,329.2535,330.1925,l,0,0.277,0,330.1944,330.6918,,,,,,418,FEM,NOWORD,AGR,150,banja,,la,,0.277,,330.6919,330.692,-0.006896522,-0.334482804,0,0,0,,0,92,92,417,1,barba,,,,
,,,,,,5df79331451be551923ad906,676192165fb32c2e1fb7aee6,67d19424a814518212811afa,2025-03-12_08h05.32.036,Tarea de decisión léxica,2024.2.5,Win32,60.24096386,,,,,,,,,,,,,,,,,,,,,,,330.6942,331.7424,a,1,0.3773,1,331.7435,332.2411,,,,,,444,MAS,NOWORD,DIS,150,taron,,la,,0.3773,,332.2434,332.2449,-0.006896522,-0.334482804,0,0,0,,0,93,93,443,1,salón,,,,
,,,,,,5df79331451be551923ad906,676192165fb32c2e1fb7aee6,67d19424a814518212811afa,2025-03-12_08h05.32.036,Tarea de decisión léxica,2024.2.5,Win32,60.24096386,,,,,,,,,,,,,,,,,,,,,,,332.2461,333.2193,l,1,0.3046,1,333.2194,333.7084,,,,,,339,MAS,WORD,DIS,150,brazo,,la,,0.3046,,333.7085,333.7087,-0.006896522,-0.334482804,0,0,0,,0,94,94,338,1,plajo,,,,
,,,,,,5df79331451be551923ad906,676192165fb32c2e1fb7aee6,67d19424a814518212811afa,2025-03-12_08h05.32.036,Tarea de decisión léxica,2024.2.5,Win32,60.24096386,,,,,,,,,,,,,,,,,,,,,,,333.7113,334.792,l,1,0.4172,1,334.7924,335.2922,,,,,,213,FEM,WORD,AGR,150,rama,,la,,0.4172,,335.2923,335.2924,-0.006896522,-0.334482804,0,0,0,,0,95,95,212,1,bana,,,,
,,,,,,5df79331451be551923ad906,676192165fb32c2e1fb7aee6,67d19424a814518212811afa,2025-03-12_08h05.32.036,Tarea de decisión léxica,2024.2.5,Win32,60.24096386,,,,,,,,,,,,,,,,,,,,,,,335.2947,336.2759,a,0,0.3032,0,336.2773,336.7727,,,,,,415,FEM,WORD,DIS,150,jaula,,el,,0.3032,,336.7735,336.7736,-0.006896522,-0.334482804,0,0,0,,0,96,96,414,1,juira,,,,
,,,,,,5df79331451be551923ad906,676192165fb32c2e1fb7aee6,67d19424a814518212811afa,2025-03-12_08h05.32.036,Tarea de decisión léxica,2024.2.5,Win32,60.24096386,,,,,,,,,,,,,,,,,,,,,,,336.7743,337.8227,a,1,0.3763,1,337.8236,338.3177,,,,,,388,FEM,NOWORD,DIS,150,bresa,,el,,0.3763,,338.3179,338.3182,-0.006896522,-0.334482804,0,0,0,,0,97,97,387,1,crema,,,,
,,,,,,5df79331451be551923ad906,676192165fb32c2e1fb7aee6,67d19424a814518212811afa,2025-03-12_08h05.32.036,Tarea de decisión léxica,2024.2.5,Win32,60.24096386,,,,,,,,,,,,,,,,,,,,,,,338.3194,339.467,a,1,0.4564,1,339.4673,339.9731,,,,,,386,FEM,NOWORD,AGR,150,febra,,la,,0.4564,,339.974,339.9746,-0.006896522,-0.334482804,0,0,0,,0,98,98,385,1,letra,,,,
,,,,,,5df79331451be551923ad906,676192165fb32c2e1fb7aee6,67d19424a814518212811afa,2025-03-12_08h05.32.036,Tarea de decisión léxica,2024.2.5,Win32,60.24096386,,,,,,,,,,,,,,,,,,,,,,,339.9751,341.0505,l,1,0.3828,1,341.0509,341.5517,,,,,,447,MAS,WORD,DIS,150,bolso,,la,,0.3828,,341.5519,341.5521,-0.006896522,-0.334482804,0,0,0,,0,99,99,446,1,buaso,,,,
,,,,,,5df79331451be551923ad906,676192165fb32c2e1fb7aee6,67d19424a814518212811afa,2025-03-12_08h05.32.036,Tarea de decisión léxica,2024.2.5,Win32,60.24096386,,,,,,,,,,,,,,,,,,,,,,,341.5545,342.8223,a,1,0.5918,1,342.8223,343.3171,,,,,,384,FEM,NOWORD,DIS,150,brame,,el,,0.5918,,343.3173,343.3177,-0.006896522,-0.334482804,0,0,0,,0,100,100,383,1,frase,,,,
,,,,,,5df79331451be551923ad906,676192165fb32c2e1fb7aee6,67d19424a814518212811afa,2025-03-12_08h05.32.036,Tarea de decisión léxica,2024.2.5,Win32,60.24096386,,,,,,,,,,,,,,,,,,,,,,,343.319,344.6667,a,1,0.6741,1,344.6671,345.1726,,,,,,376,FEM,NOWORD,DIS,150,sasna,,el,,0.6741,,345.1726,345.1727,-0.006896522,-0.334482804,0,0,0,,0,101,101,375,1,salsa,,,,
,,,,,,5df79331451be551923ad906,676192165fb32c2e1fb7aee6,67d19424a814518212811afa,2025-03-12_08h05.32.036,Tarea de decisión léxica,2024.2.5,Win32,60.24096386,,,,,,,,,,,,,,,,,,,,,,,345.1733,346.434,a,1,0.5837,1,346.4342,346.9226,,,,,,84,FEM,NOWORD,DIS,150,taga,,el,,0.5837,,346.9228,346.9231,-0.006896522,-0.334482804,0,0,0,,0,102,102,83,1,bala,,,,
,,,,,,5df79331451be551923ad906,676192165fb32c2e1fb7aee6,67d19424a814518212811afa,2025-03-12_08h05.32.036,Tarea de decisión léxica,2024.2.5,Win32,60.24096386,,,,,,,,,,,,,,,,,,,,,,,346.9243,348.1173,l,1,0.5171,1,348.1177,348.6169,,,,,,101,MAS,WORD,AGR,150,tono,,el,,0.5171,,348.6191,348.6201,-0.006896522,-0.334482804,0,0,0,,0,103,103,100,1,gito,,,,
,,,,,,5df79331451be551923ad906,676192165fb32c2e1fb7aee6,67d19424a814518212811afa,2025-03-12_08h05.32.036,Tarea de decisión léxica,2024.2.5,Win32,60.24096386,,,,,,,,,,,,,,,,,,,,,,,348.621,349.7381,a,0,0.4498,0,349.739,350.2344,,,,,,171,MAS,WORD,DIS,150,hilo,,la,,0.4498,,350.2344,350.2346,-0.006896522,-0.334482804,0,0,0,,0,104,104,170,1,niro,,,,
,,,,,,5df79331451be551923ad906,676192165fb32c2e1fb7aee6,67d19424a814518212811afa,2025-03-12_08h05.32.036,Tarea de decisión léxica,2024.2.5,Win32,60.24096386,,,,,,,,,,,,,,,,,,,,,,,350.2366,351.3514,a,1,0.448,1,351.352,351.8564,,,,,,434,MAS,NOWORD,AGR,150,durco,,el,,0.448,,351.8565,351.8567,-0.006896522,-0.334482804,0,0,0,,0,105,105,433,1,disco,,,,
,,,,,,5df79331451be551923ad906,676192165fb32c2e1fb7aee6,67d19424a814518212811afa,2025-03-12_08h05.32.036,Tarea de decisión léxica,2024.2.5,Win32,60.24096386,,,,,,,,,,,,,,,,,,,,,,,351.8592,352.9866,l,0,0.4567,0,352.9871,353.4824,,,,,,164,FEM,NOWORD,DIS,150,laga,,el,,0.4567,,353.4827,353.4831,-0.006896522,-0.334482804,0,0,0,,0,106,106,163,1,fama,,,,
,,,,,,5df79331451be551923ad906,676192165fb32c2e1fb7aee6,67d19424a814518212811afa,2025-03-12_08h05.32.036,Tarea de decisión léxica,2024.2.5,Win32,60.24096386,,,,,,,,,,,,,,,,,,,,,,,353.4853,354.784,a,1,0.6216,1,354.7852,355.2854,,,,,,292,FEM,NOWORD,DIS,150,mesta,,el,,0.6216,,355.2862,355.2868,-0.006896522,-0.334482804,0,0,0,,0,107,107,291,1,pista,,,,
,,,,,,5df79331451be551923ad906,676192165fb32c2e1fb7aee6,67d19424a814518212811afa,2025-03-12_08h05.32.036,Tarea de decisión léxica,2024.2.5,Win32,60.24096386,,,,,,,,,,,,,,,,,,,,,,,355.2872,356.6688,a,1,0.7244,1,356.669,357.1669,,,,,,300,FEM,NOWORD,DIS,150,bosga,,el,,0.7244,,357.167,357.1672,-0.006896522,-0.334482804,0,0,0,,0,108,108,299,1,bolsa,,,,
,,,,,,5df79331451be551923ad906,676192165fb32c2e1fb7aee6,67d19424a814518212811afa,2025-03-12_08h05.32.036,Tarea de decisión léxica,2024.2.5,Win32,60.24096386,,,,,,,,,,,,,,,,,,,,,,,357.1692,358.2998,l,1,0.4553,1,358.3,358.8059,,,,,,147,FEM,WORD,DIS,150,hoja,,el,,0.4553,,358.806,358.8061,-0.006896522,-0.334482804,0,0,0,,0,109,109,146,1,pama,,,,
,,,,,,5df79331451be551923ad906,676192165fb32c2e1fb7aee6,67d19424a814518212811afa,2025-03-12_08h05.32.036,Tarea de decisión léxica,2024.2.5,Win32,60.24096386,,,,,,,,,,,,,,,,,,,,,,,358.8087,360.0233,l,1,0.5337,1,360.0234,360.5209,,,,,,27,MAS,WORD,DIS,150,baño,,la,,0.5337,,360.5211,360.5211,-0.006896522,-0.334482804,0,0,0,,0,110,110,26,1,ravo,,,,
,,,,,,5df79331451be551923ad906,676192165fb32c2e1fb7aee6,67d19424a814518212811afa,2025-03-12_08h05.32.036,Tarea de decisión léxica,2024.2.5,Win32,60.24096386,,,,,,,,,,,,,,,,,,,,,,,360.5227,361.6193,l,1,0.4146,1,361.6193,362.1221,,,,,,371,FEM,WORD,DIS,150,pasta,,el,,0.4146,,362.1222,362.1223,-0.006896522,-0.334482804,0,0,0,,0,111,111,370,1,mosta,,,,
,,,,,,5df79331451be551923ad906,676192165fb32c2e1fb7aee6,67d19424a814518212811afa,2025-03-12_08h05.32.036,Tarea de decisión léxica,2024.2.5,Win32,60.24096386,,,,,,,,,,,,,,,,,,,,,,,362.1247,363.2229,l,1,0.4279,1,363.2231,363.7158,,,,,,293,MAS,WORD,AGR,150,campo,,el,,0.4279,,363.7192,363.7213,-0.006896522,-0.334482804,0,0,0,,0,112,112,292,1,cacso,,,,
,,,,,,5df79331451be551923ad906,676192165fb32c2e1fb7aee6,67d19424a814518212811afa,2025-03-12_08h05.32.036,Tarea de decisión léxica,2024.2.5,Win32,60.24096386,,,,,,,,,,,,,,,,,,,,,,,363.7225,364.8552,l,1,0.4659,1,364.8553,365.3525,,,,,,185,MAS,WORD,AGR,150,baúl,,el,,0.4659,,365.3525,365.3526,-0.006896522,-0.334482804,0,0,0,,0,113,113,184,1,raol,,,,
,,,,,,5df79331451be551923ad906,676192165fb32c2e1fb7aee6,67d19424a814518212811afa,2025-03-12_08h05.32.036,Tarea de decisión léxica,2024.2.5,Win32,60.24096386,,,,,,,,,,,,,,,,,,,,,,,365.354,366.3881,l,1,0.352,1,366.3881,366.882,,,,,,109,MAS,WORD,AGR,150,rayo,,el,,0.352,,366.882,366.8823,-0.006896522,-0.334482804,0,0,0,,0,114,114,108,1,suno,,,,
,,,,,,5df79331451be551923ad906,676192165fb32c2e1fb7aee6,67d19424a814518212811afa,2025-03-12_08h05.32.036,Tarea de decisión léxica,2024.2.5,Win32,60.24096386,,,,,,,,,,,,,,,,,,,,,,,366.8838,367.9459,l,1,0.3746,1,367.9461,368.4345,,,,,,345,FEM,WORD,AGR,150,arena,,la,,0.3746,,368.4346,368.4346,-0.006896522,-0.334482804,0,0,0,,0,115,115,344,1,anera,,,,
,,,,,,5df79331451be551923ad906,676192165fb32c2e1fb7aee6,67d19424a814518212811afa,2025-03-12_08h05.32.036,Tarea de decisión léxica,2024.2.5,Win32,60.24096386,,,,,,,,,,,,,,,,,,,,,,,368.4359,369.3526,l,0,0.2436,0,369.3532,369.8477,,,,,,24,FEM,NOWORD,DIS,150,giva,,el,,0.2436,,369.8483,369.8485,-0.006896522,-0.334482804,0,0,0,,0,116,116,23,1,hija,,,,
,,,,,,5df79331451be551923ad906,676192165fb32c2e1fb7aee6,67d19424a814518212811afa,2025-03-12_08h05.32.036,Tarea de decisión léxica,2024.2.5,Win32,60.24096386,,,,,,,,,,,,,,,,,,,,,,,369.8502,371.065,a,1,0.5506,1,371.0661,371.5534,,,,,,12,MAS,NOWORD,DIS,150,bapo,,la,,0.5506,,371.5559,371.5572,-0.006896522,-0.334482804,0,0,0,,0,117,117,11,1,lado,,,,
,,,,,,5df79331451be551923ad906,676192165fb32c2e1fb7aee6,67d19424a814518212811afa,2025-03-12_08h05.32.036,Tarea de decisión léxica,2024.2.5,Win32,60.24096386,,,,,,,,,,,,,,,,,,,,,,,371.5582,372.6308,a,1,0.3917,1,372.6311,373.1368,,,,,,52,FEM,NOWORD,DIS,150,mava,,el,,0.3917,,373.1368,373.137,-0.006896522,-0.334482804,0,0,0,,0,118,118,51,1,caja,,,,
,,,,,,5df79331451be551923ad906,676192165fb32c2e1fb7aee6,67d19424a814518212811afa,2025-03-12_08h05.32.036,Tarea de decisión léxica,2024.2.5,Win32,60.24096386,,,,,,,,,,,,,,,,,,,,,,,373.1391,374.3859,l,1,0.5764,1,374.3864,374.8809,,,,,,153,MAS,WORD,AGR,150,pato,,el,,0.5764,,374.8809,374.881,-0.006896522,-0.334482804,0,0,0,,0,119,119,152,1,tado,,,,
,,,,,,5df79331451be551923ad906,676192165fb32c2e1fb7aee6,67d19424a814518212811afa,2025-03-12_08h05.32.036,Tarea de decisión léxica,2024.2.5,Win32,60.24096386,,,,,,,,,,,,,,,,,,,,,,,374.882,375.855,a,0,0.2938,0,375.8561,376.3533,,,,,,127,MAS,WORD,DIS,150,pico,,la,,0.2938,,376.3538,376.3542,-0.006896522,-0.334482804,0,0,0,,0,120,120,126,1,itio,,,,
,,,,,,5df79331451be551923ad906,676192165fb32c2e1fb7aee6,67d19424a814518212811afa,2025-03-12_08h05.32.036,Tarea de decisión léxica,2024.2.5,Win32,60.24096386,,,,,,,,,,,,,,,,,,,,,,,376.3561,377.5034,l,1,0.4773,1,377.5054,377.9992,,,,,,341,MAS,WORD,AGR,150,valor,,el,,0.4773,,377.9992,377.9993,-0.006896522,-0.334482804,0,0,0,,0,121,121,340,1,daror,,,,
,,,,,,5df79331451be551923ad906,676192165fb32c2e1fb7aee6,67d19424a814518212811afa,2025-03-12_08h05.32.036,Tarea de decisión léxica,2024.2.5,Win32,60.24096386,,,,,,,,,,,,,,,,,,,,,,,378.0002,379.0795,a,1,0.3911,1,379.08,379.5856,,,,,,220,FEM,NOWORD,DIS,150,miva,,el,,0.3911,,379.5871,379.5879,-0.006896522,-0.334482804,0,0,0,,0,122,122,219,1,pipa,,,,
,,,,,,5df79331451be551923ad906,676192165fb32c2e1fb7aee6,67d19424a814518212811afa,2025-03-12_08h05.32.036,Tarea de decisión léxica,2024.2.5,Win32,60.24096386,,,,,,,,,,,,,,,,,,,,,,,379.5887,380.7295,a,1,0.4522,1,380.7299,381.2358,,,,,,4,FEM,NOWORD,DIS,150,dica,,el,,0.4522,,381.2358,381.2359,-0.006896522,-0.334482804,0,0,0,,0,123,123,3,1,vida,,,,
,,,,,,5df79331451be551923ad906,676192165fb32c2e1fb7aee6,67d19424a814518212811afa,2025-03-12_08h05.32.036,Tarea de decisión léxica,2024.2.5,Win32,60.24096386,,,,,,,,,,,,,,,,,,,,,,,381.2377,382.3351,l,1,0.4288,1,382.3353,382.8303,,,,,,151,MAS,WORD,DIS,150,tomo,,la,,0.4288,,382.8304,382.8308,-0.006896522,-0.334482804,0,0,0,,0,124,124,150,1,sogo,,,,
,,,,,,5df79331451be551923ad906,676192165fb32c2e1fb7aee6,67d19424a814518212811afa,2025-03-12_08h05.32.036,Tarea de decisión léxica,2024.2.5,Win32,60.24096386,,,,,,,,,,,,,,,,,,,,,,,382.8321,384.1117,a,1,0.6045,1,384.1121,384.6168,,,,,,324,FEM,NOWORD,DIS,150,certa,,el,,0.6045,,384.6168,384.6169,-0.006896522,-0.334482804,0,0,0,,0,125,125,323,1,cinta,,,,
,,,,,,5df79331451be551923ad906,676192165fb32c2e1fb7aee6,67d19424a814518212811afa,2025-03-12_08h05.32.036,Tarea de decisión léxica,2024.2.5,Win32,60.24096386,,,,,,,,,,,,,,,,,,,,,,,384.6179,385.7623,a,1,0.4678,1,385.7627,386.2659,,,,,,454,FEM,NOWORD,AGR,150,pafia,,la,,0.4678,,386.266,386.266,-0.006896522,-0.334482804,0,0,0,,0,126,126,453,1,mafia,,,,
,,,,,,5df79331451be551923ad906,676192165fb32c2e1fb7aee6,67d19424a814518212811afa,2025-03-12_08h05.32.036,Tarea de decisión léxica,2024.2.5,Win32,60.24096386,,,,,,,,,,,,,,,,,,,,,,,386.2671,387.3702,l,1,0.4277,1,387.3703,387.8692,,,,,,357,FEM,WORD,AGR,150,bruja,,la,,0.4277,,387.8721,387.8734,-0.006896522,-0.334482804,0,0,0,,0,127,127,356,1,gruba,,,,
,,,,,,5df79331451be551923ad906,676192165fb32c2e1fb7aee6,67d19424a814518212811afa,2025-03-12_08h05.32.036,Tarea de decisión léxica,2024.2.5,Win32,60.24096386,,,,,,,,,,,,,,,,,,,,,,,387.8744,389.0714,l,1,0.5308,1,389.0715,389.5682,,,,,,91,FEM,WORD,DIS,150,taza,,el,,0.5308,,389.5686,389.5689,-0.006896522,-0.334482804,0,0,0,,0,128,128,90,1,sava,,,,
,,,,,,5df79331451be551923ad906,676192165fb32c2e1fb7aee6,67d19424a814518212811afa,2025-03-12_08h05.32.036,Tarea de decisión léxica,2024.2.5,Win32,60.24096386,,,,,,,,,,,,,,,,,,,,,,,389.5713,390.7171,a,1,0.4755,1,390.7172,391.2173,,,,,,314,MAS,NOWORD,AGR,150,govio,,el,,0.4755,,391.2174,391.2176,-0.006896522,-0.334482804,0,0,0,,0,129,129,313,1,novio,,,,
,,,,,,5df79331451be551923ad906,676192165fb32c2e1fb7aee6,67d19424a814518212811afa,2025-03-12_08h05.32.036,Tarea de decisión léxica,2024.2.5,Win32,60.24096386,,,,,,,,,,,,,,,,,,,,,,,391.2197,392.387,l,1,0.4878,1,392.3874,392.8785,,,,,,419,MAS,WORD,DIS,150,truco,,la,,0.4878,,392.8786,392.8786,-0.006896522,-0.334482804,0,0,0,,0,130,130,418,1,chudo,,,,
,,,,,,5df79331451be551923ad906,676192165fb32c2e1fb7aee6,67d19424a814518212811afa,2025-03-12_08h05.32.036,Tarea de decisión léxica,2024.2.5,Win32,60.24096386,,,,,,,,,,,,,,,,,,,,,,,392.8793,394.0336,l,1,0.4962,1,394.0339,394.5303,,,,,,1,FEM,WORD,AGR,150,casa,,la,,0.4962,,394.5322,394.5331,-0.006896522,-0.334482804,0,0,0,,0,131,131,0,1,mada,,,,
,,,,,,5df79331451be551923ad906,676192165fb32c2e1fb7aee6,67d19424a814518212811afa,2025-03-12_08h05.32.036,Tarea de decisión léxica,2024.2.5,Win32,60.24096386,,,,,,,,,,,,,,,,,,,,,,,394.534,395.7008,l,1,0.4968,1,395.701,396.1984,,,,,,243,MAS,WORD,DIS,150,amigo,,la,,0.4968,,396.1984,396.1985,-0.006896522,-0.334482804,0,0,0,,0,132,132,242,1,asamo,,,,
,,,,,,5df79331451be551923ad906,676192165fb32c2e1fb7aee6,67d19424a814518212811afa,2025-03-12_08h05.32.036,Tarea de decisión léxica,2024.2.5,Win32,60.24096386,,,,,,,,,,,,,,,,,,,,,,,396.1993,397.3168,a,1,0.445,1,397.3169,397.8166,,,,,,114,FEM,NOWORD,AGR,150,tada,,la,,0.445,,397.8166,397.8167,-0.006896522,-0.334482804,0,0,0,,0,133,133,113,1,miel,,,,
,,,,,,5df79331451be551923ad906,676192165fb32c2e1fb7aee6,67d19424a814518212811afa,2025-03-12_08h05.32.036,Tarea de decisión léxica,2024.2.5,Win32,60.24096386,,,,,,,,,,,,,,,,,,,,,,,397.8179,398.9796,l,1,0.4925,1,398.9797,399.477,,,,,,333,FEM,WORD,AGR,150,tarea,,la,,0.4925,,399.4773,399.4778,-0.006896522,-0.334482804,0,0,0,,0,134,134,332,1,dalea,,,,
,,,,,,5df79331451be551923ad906,676192165fb32c2e1fb7aee6,67d19424a814518212811afa,2025-03-12_08h05.32.036,Tarea de decisión léxica,2024.2.5,Win32,60.24096386,,,,,,,,,,,,,,,,,,,,,,,399.4791,400.5814,a,1,0.4468,1,400.5815,401.0773,,,,,,394,FEM,NOWORD,AGR,150,ashea,,la,,0.4468,,401.0776,401.0779,-0.006896522,-0.334482804,0,0,0,,0,135,135,393,1,aldea,,,,
,,,,,,5df79331451be551923ad906,676192165fb32c2e1fb7aee6,67d19424a814518212811afa,2025-03-12_08h05.32.036,Tarea de decisión léxica,2024.2.5,Win32,60.24096386,,,,,,,,,,,,,,,,,,,,,,,401.079,402.3833,a,1,0.6282,1,402.3836,402.8806,,,,,,424,MAS,NOWORD,DIS,150,quigo,,la,,0.6282,,402.8822,402.883,-0.006896522,-0.334482804,0,0,0,,0,136,136,423,1,queso,,,,
,,,,,,5df79331451be551923ad906,676192165fb32c2e1fb7aee6,67d19424a814518212811afa,2025-03-12_08h05.32.036,Tarea de decisión léxica,2024.2.5,Win32,60.24096386,,,,,,,,,,,,,,,,,,,,,,,402.8836,404.1764,a,1,0.6046,1,404.1768,404.6772,,,,,,196,FEM,NOWORD,DIS,150,sira,,el,,0.6046,,404.6774,404.6776,-0.006896522,-0.334482804,0,0,0,,0,137,137,195,1,tela,,,,
,,,,,,5df79331451be551923ad906,676192165fb32c2e1fb7aee6,67d19424a814518212811afa,2025-03-12_08h05.32.036,Tarea de decisión léxica,2024.2.5,Win32,60.24096386,,,,,,,,,,,,,,,,,,,,,,,404.6787,405.8312,a,1,0.478,1,405.8314,406.3267,,,,,,2,FEM,NOWORD,AGR,150,mada,,la,,0.478,,406.327,406.3274,-0.006896522,-0.334482804,0,0,0,,0,138,138,1,1,casa,,,,
,,,,,,5df79331451be551923ad906,676192165fb32c2e1fb7aee6,67d19424a814518212811afa,2025-03-12_08h05.32.036,Tarea de decisión léxica,2024.2.5,Win32,60.24096386,,,,,,,,,,,,,,,,,,,,,,,406.3284,407.3812,l,1,0.3941,1,407.3813,407.8758,,,,,,411,MAS,WORD,DIS,150,pollo,,la,,0.3941,,407.8761,407.8764,-0.006896522,-0.334482804,0,0,0,,0,139,139,410,1,mobro,,,,
,,,,,,5df79331451be551923ad906,676192165fb32c2e1fb7aee6,67d19424a814518212811afa,2025-03-12_08h05.32.036,Tarea de decisión léxica,2024.2.5,Win32,60.24096386,,,,,,,,,,,,,,,,,,,,,,,407.8774,409.066,l,1,0.5196,1,409.0661,409.5588,,,,,,177,MAS,WORD,AGR,150,reto,,el,,0.5196,,409.5592,409.5596,-0.006896522,-0.334482804,0,0,0,,0,140,140,176,1,bito,,,,
,,,,,,5df79331451be551923ad906,676192165fb32c2e1fb7aee6,67d19424a814518212811afa,2025-03-12_08h05.32.036,Tarea de decisión léxica,2024.2.5,Win32,60.24096386,,,,,,,,,,,,,,,,,,,,,,,409.5606,410.4827,l,0,0.2469,0,410.4835,410.9752,,,,,,158,MAS,NOWORD,AGR,150,hico,,el,,0.2469,,410.9769,410.9773,-0.006896522,-0.334482804,0,0,0,,0,141,141,157,1,nido,,,,
,,,,,,5df79331451be551923ad906,676192165fb32c2e1fb7aee6,67d19424a814518212811afa,2025-03-12_08h05.32.036,Tarea de decisión léxica,2024.2.5,Win32,60.24096386,,,,,,,,,,,,,,,,,,,,,,,410.9777,412.6484,l,1,1.01,1,412.6493,413.145,,,,,,473,FEM,WORD,AGR,150,feria,,la,,1.01,,413.1451,413.1452,-0.006896522,-0.334482804,0,0,0,,0,142,142,472,1,felia,,,,
,,,,,,5df79331451be551923ad906,676192165fb32c2e1fb7aee6,67d19424a814518212811afa,2025-03-12_08h05.32.036,Tarea de decisión léxica,2024.2.5,Win32,60.24096386,,,,,,,,,,,,,,,,,,,,,,,413.1466,414.2312,l,1,0.4275,1,414.2313,414.7254,,,,,,137,MAS,WORD,AGR,150,nene,,el,,0.4275,,414.7257,414.7261,-0.006896522,-0.334482804,0,0,0,,0,143,143,136,1,pamo,,,,
,,,,,,5df79331451be551923ad906,676192165fb32c2e1fb7aee6,67d19424a814518212811afa,2025-03-12_08h05.32.036,Tarea de decisión léxica,2024.2.5,Win32,60.24096386,,,,,,,,,,,,,,,,,,,,,,,414.727,415.7923,l,1,0.385,1,415.7925,416.2811,,,,,,253,MAS,WORD,AGR,150,chico,,el,,0.385,,416.2811,416.2812,-0.006896522,-0.334482804,0,0,0,,0,144,144,252,1,trido,,,,
,,,,,,5df79331451be551923ad906,676192165fb32c2e1fb7aee6,67d19424a814518212811afa,2025-03-12_08h05.32.036,Tarea de decisión léxica,2024.2.5,Win32,60.24096386,,,,,,,,,,,,,,,,,,,,,,,416.2835,417.3276,a,1,0.3767,1,417.3276,417.8255,,,,,,156,FEM,NOWORD,DIS,150,luma,,el,,0.3767,,417.8257,417.8258,-0.006896522,-0.334482804,0,0,0,,0,145,145,155,1,fuga,,,,
,,,,,,5df79331451be551923ad906,676192165fb32c2e1fb7aee6,67d19424a814518212811afa,2025-03-12_08h05.32.036,Tarea de decisión léxica,2024.2.5,Win32,60.24096386,,,,,,,,,,,,,,,,,,,,,,,417.8271,418.9476,a,1,0.4616,1,418.9477,419.442,,,,,,242,MAS,NOWORD,AGR,150,mirdo,,el,,0.4616,,419.4435,419.4442,-0.006896522,-0.334482804,0,0,0,,0,146,146,241,1,mundo,,,,
,,,,,,5df79331451be551923ad906,676192165fb32c2e1fb7aee6,67d19424a814518212811afa,2025-03-12_08h05.32.036,Tarea de decisión léxica,2024.2.5,Win32,60.24096386,,,,,,,,,,,,,,,,,,,,,,,419.4449,420.5142,a,1,0.4129,1,420.5143,421.0107,,,,,,348,FEM,NOWORD,DIS,150,mueza,,el,,0.4129,,421.0109,421.0112,-0.006896522,-0.334482804,0,0,0,,0,147,147,347,1,pieza,,,,
,,,,,,5df79331451be551923ad906,676192165fb32c2e1fb7aee6,67d19424a814518212811afa,2025-03-12_08h05.32.036,Tarea de decisión léxica,2024.2.5,Win32,60.24096386,,,,,,,,,,,,,,,,,,,,,,,421.0125,422.1144,l,1,0.4294,1,422.1145,422.6086,,,,,,189,MAS,WORD,AGR,150,puño,,el,,0.4294,,422.6086,422.6088,-0.006896522,-0.334482804,0,0,0,,0,148,148,188,1,muvo,,,,
,,,,,,5df79331451be551923ad906,676192165fb32c2e1fb7aee6,67d19424a814518212811afa,2025-03-12_08h05.32.036,Tarea de decisión léxica,2024.2.5,Win32,60.24096386,,,,,,,,,,,,,,,,,,,,,,,422.6108,423.7658,a,1,0.4946,1,423.7662,424.2636,,,,,,36,MAS,NOWORD,DIS,150,meno,,la,,0.4946,,424.2636,424.2641,-0.006896522,-0.334482804,0,0,0,,0,149,149,35,1,pelo,,,,
,,,,,,5df79331451be551923ad906,676192165fb32c2e1fb7aee6,67d19424a814518212811afa,2025-03-12_08h05.32.036,Tarea de decisión léxica,2024.2.5,Win32,60.24096386,,,,,,,,,,,,,,,,,,,,,,,424.2662,425.4815,l,1,0.5439,1,425.4815,425.9732,,,,,,385,FEM,WORD,AGR,150,letra,,la,,0.5439,,425.9732,425.9733,-0.006896522,-0.334482804,0,0,0,,0,150,150,384,1,febra,,,,
,,,,,,5df79331451be551923ad906,676192165fb32c2e1fb7aee6,67d19424a814518212811afa,2025-03-12_08h05.32.036,Tarea de decisión léxica,2024.2.5,Win32,60.24096386,,,,,,,,,,,,,,,,,,,,,,,425.9757,427.1422,l,1,0.5013,1,427.1427,427.6406,,,,,,377,MAS,WORD,AGR,150,hielo,,el,,0.5013,,427.644,427.6456,-0.006896522,-0.334482804,0,0,0,,0,151,151,376,1,gaulo,,,,
,,,,,,5df79331451be551923ad906,676192165fb32c2e1fb7aee6,67d19424a814518212811afa,2025-03-12_08h05.32.036,Tarea de decisión léxica,2024.2.5,Win32,60.24096386,,,,,,,,,,,,,,,,,,,,,,,427.6469,428.7595,a,1,0.447,1,428.7596,429.2573,,,,,,298,MAS,NOWORD,AGR,150,brubo,,el,,0.447,,429.2573,429.2576,-0.006896522,-0.334482804,0,0,0,,0,152,152,297,1,grupo,,,,
,,,,,,5df79331451be551923ad906,676192165fb32c2e1fb7aee6,67d19424a814518212811afa,2025-03-12_08h05.32.036,Tarea de decisión léxica,2024.2.5,Win32,60.24096386,,,,,,,,,,,,,,,,,,,,,,,429.2609,430.5904,l,1,0.6511,1,430.5905,431.0902,,,,,,15,FEM,WORD,DIS,150,idea,,el,,0.6511,,431.0903,431.0904,-0.006896522,-0.334482804,0,0,0,,0,153,153,14,1,odea,,,,
,,,,,,5df79331451be551923ad906,676192165fb32c2e1fb7aee6,67d19424a814518212811afa,2025-03-12_08h05.32.036,Tarea de decisión léxica,2024.2.5,Win32,60.24096386,,,,,,,,,,,,,,,,,,,,,,,431.0928,432.2058,a,1,0.435,1,432.2059,432.7066,,,,,,378,MAS,NOWORD,AGR,150,gaulo,,el,,0.435,,432.7069,432.7071,-0.006896522,-0.334482804,0,0,0,,0,154,154,377,1,hielo,,,,
,,,,,,5df79331451be551923ad906,676192165fb32c2e1fb7aee6,67d19424a814518212811afa,2025-03-12_08h05.32.036,Tarea de decisión léxica,2024.2.5,Win32,60.24096386,,,,,,,,,,,,,,,,,,,,,,,432.7099,433.7728,a,1,0.3837,1,433.7729,434.2731,,,,,,166,FEM,NOWORD,AGR,150,dera,,la,,0.3837,,434.2755,434.277,-0.006896522,-0.334482804,0,0,0,,0,155,155,165,1,vela,,,,
,,,,,,5df79331451be551923ad906,676192165fb32c2e1fb7aee6,67d19424a814518212811afa,2025-03-12_08h05.32.036,Tarea de decisión léxica,2024.2.5,Win32,60.24096386,,,,,,,,,,,,,,,,,,,,,,,434.2786,435.4237,a,1,0.4703,1,435.4239,435.9229,,,,,,216,FEM,NOWORD,DIS,150,raua,,el,,0.4703,,435.923,435.9232,-0.006896522,-0.334482804,0,0,0,,0,156,156,215,1,raíz,,,,
,,,,,,5df79331451be551923ad906,676192165fb32c2e1fb7aee6,67d19424a814518212811afa,2025-03-12_08h05.32.036,Tarea de decisión léxica,2024.2.5,Win32,60.24096386,,,,,,,,,,,,,,,,,,,,,,,435.926,437.2878,l,1,0.6893,1,437.2878,437.7889,,,,,,361,FEM,WORD,AGR,150,torre,,la,,0.6893,,437.789,437.7892,-0.006896522,-0.334482804,0,0,0,,0,157,157,360,1,solle,,,,
,,,,,,5df79331451be551923ad906,676192165fb32c2e1fb7aee6,67d19424a814518212811afa,2025-03-12_08h05.32.036,Tarea de decisión léxica,2024.2.5,Win32,60.24096386,,,,,,,,,,,,,,,,,,,,,,,437.7922,438.7886,a,0,0.3222,0,438.7911,439.2891,,,,,,63,FEM,WORD,DIS,150,luna,,el,,0.3222,,439.2895,439.2898,-0.006896522,-0.334482804,0,0,0,,0,158,158,62,1,funa,,,,
,,,,,,5df79331451be551923ad906,676192165fb32c2e1fb7aee6,67d19424a814518212811afa,2025-03-12_08h05.32.036,Tarea de decisión léxica,2024.2.5,Win32,60.24096386,,,,,,,,,,,,,,,,,,,,,,,439.2923,440.4715,l,1,0.5023,1,440.4736,440.9732,,,,,,311,MAS,WORD,DIS,150,honor,,la,,0.5023,,440.9732,440.9735,-0.006896522,-0.334482804,0,0,0,,0,159,159,310,1,nosor,,,,
,,,,,,5df79331451be551923ad906,676192165fb32c2e1fb7aee6,67d19424a814518212811afa,2025-03-12_08h05.32.036,Tarea de decisión léxica,2024.2.5,Win32,60.24096386,,,,,,,,,,,,,,,,,,,,,,,440.9763,442.1553,l,1,0.504,1,442.1553,442.6538,,,,,,363,FEM,WORD,DIS,150,deuda,,el,,0.504,,442.655,562.3895,-0.006896522,-0.334482804,0,0,0,space,0,160,160,362,1,veida,119.712,,,
,,,,,,5df79331451be551923ad906,676192165fb32c2e1fb7aee6,67d19424a814518212811afa,2025-03-12_08h05.32.036,Tarea de decisión léxica,2024.2.5,Win32,60.24096386,,,,,,,,,,,,,,,,,,,,,,,562.3921,564.123,a,1,1.0515,1,564.1233,564.6235,,,,,,370,MAS,NOWORD,AGR,150,rioco,,el,,1.0515,,564.6237,564.6239,-0.006896522,-0.334482804,0,0,0,,0,161,161,369,1,ruido,,,,
,,,,,,5df79331451be551923ad906,676192165fb32c2e1fb7aee6,67d19424a814518212811afa,2025-03-12_08h05.32.036,Tarea de decisión léxica,2024.2.5,Win32,60.24096386,,,,,,,,,,,,,,,,,,,,,,,564.6264,565.8057,l,0,0.5088,0,565.8078,566.3056,,,,,,430,FEM,NOWORD,AGR,150,tenta,,la,,0.5088,,566.3056,566.3056,-0.006896522,-0.334482804,0,0,0,,0,162,162,429,1,tarta,,,,
,,,,,,5df79331451be551923ad906,676192165fb32c2e1fb7aee6,67d19424a814518212811afa,2025-03-12_08h05.32.036,Tarea de decisión léxica,2024.2.5,Win32,60.24096386,,,,,,,,,,,,,,,,,,,,,,,566.307,567.4563,l,1,0.4898,1,567.4578,567.9553,,,,,,301,FEM,WORD,AGR,150,banda,,la,,0.4898,,567.9553,567.9554,-0.006896522,-0.334482804,0,0,0,,0,163,163,300,1,ranga,,,,
,,,,,,5df79331451be551923ad906,676192165fb32c2e1fb7aee6,67d19424a814518212811afa,2025-03-12_08h05.32.036,Tarea de decisión léxica,2024.2.5,Win32,60.24096386,,,,,,,,,,,,,,,,,,,,,,,567.9574,569.0566,a,1,0.4275,1,569.0569,569.5552,,,,,,140,MAS,NOWORD,DIS,150,nila,,la,,0.4275,,569.5553,569.5555,-0.006896522,-0.334482804,0,0,0,,0,164,164,139,1,mago,,,,
,,,,,,5df79331451be551923ad906,676192165fb32c2e1fb7aee6,67d19424a814518212811afa,2025-03-12_08h05.32.036,Tarea de decisión léxica,2024.2.5,Win32,60.24096386,,,,,,,,,,,,,,,,,,,,,,,569.5581,570.6053,l,1,0.3696,1,570.6054,571.1062,,,,,,49,FEM,WORD,AGR,150,edad,,la,,0.3696,,571.109,571.1102,-0.006896522,-0.334482804,0,0,0,,0,165,165,48,1,ecat,,,,
,,,,,,5df79331451be551923ad906,676192165fb32c2e1fb7aee6,67d19424a814518212811afa,2025-03-12_08h05.32.036,Tarea de decisión léxica,2024.2.5,Win32,60.24096386,,,,,,,,,,,,,,,,,,,,,,,571.1115,572.2094,l,1,0.4277,1,572.2095,572.7058,,,,,,247,FEM,WORD,DIS,150,chica,,el,,0.4277,,572.706,572.7064,-0.006896522,-0.334482804,0,0,0,,0,166,166,246,1,trida,,,,
,,,,,,5df79331451be551923ad906,676192165fb32c2e1fb7aee6,67d19424a814518212811afa,2025-03-12_08h05.32.036,Tarea de decisión léxica,2024.2.5,Win32,60.24096386,,,,,,,,,,,,,,,,,,,,,,,572.7092,573.7557,l,1,0.3696,1,573.7559,574.2558,,,,,,461,FEM,WORD,AGR,150,tabla,,la,,0.3696,,574.2558,574.2561,-0.006896522,-0.334482804,0,0,0,,0,167,167,460,1,pagra,,,,
,,,,,,5df79331451be551923ad906,676192165fb32c2e1fb7aee6,67d19424a814518212811afa,2025-03-12_08h05.32.036,Tarea de decisión léxica,2024.2.5,Win32,60.24096386,,,,,,,,,,,,,,,,,,,,,,,574.259,575.4056,a,1,0.4695,1,575.4057,575.907,,,,,,440,FEM,NOWORD,DIS,150,prema,,el,,0.4695,,575.907,575.9072,-0.006896522,-0.334482804,0,0,0,,0,168,168,439,1,presa,,,,
,,,,,,5df79331451be551923ad906,676192165fb32c2e1fb7aee6,67d19424a814518212811afa,2025-03-12_08h05.32.036,Tarea de decisión léxica,2024.2.5,Win32,60.24096386,,,,,,,,,,,,,,,,,,,,,,,575.908,577.0219,l,0,0.4394,0,577.0238,577.5206,,,,,,168,FEM,NOWORD,DIS,150,zifa,,el,,0.4394,,577.5207,577.5208,-0.006896522,-0.334482804,0,0,0,,0,169,169,167,1,jefa,,,,
,,,,,,5df79331451be551923ad906,676192165fb32c2e1fb7aee6,67d19424a814518212811afa,2025-03-12_08h05.32.036,Tarea de decisión léxica,2024.2.5,Win32,60.24096386,,,,,,,,,,,,,,,,,,,,,,,577.5228,578.804,a,1,0.6223,1,578.8056,579.3038,,,,,,446,MAS,NOWORD,AGR,150,ascor,,el,,0.6223,,579.3056,579.3066,-0.006896522,-0.334482804,0,0,0,,0,170,170,445,1,actor,,,,
,,,,,,5df79331451be551923ad906,676192165fb32c2e1fb7aee6,67d19424a814518212811afa,2025-03-12_08h05.32.036,Tarea de decisión léxica,2024.2.5,Win32,60.24096386,,,,,,,,,,,,,,,,,,,,,,,579.307,580.587,a,1,0.603,1,580.5871,581.0877,,,,,,278,MAS,NOWORD,AGR,150,vuemo,,el,,0.603,,581.0877,581.0879,-0.006896522,-0.334482804,0,0,0,,0,171,171,277,1,fuego,,,,
,,,,,,5df79331451be551923ad906,676192165fb32c2e1fb7aee6,67d19424a814518212811afa,2025-03-12_08h05.32.036,Tarea de decisión léxica,2024.2.5,Win32,60.24096386,,,,,,,,,,,,,,,,,,,,,,,581.0904,582.2205,l,1,0.452,1,582.2207,582.7201,,,,,,9,MAS,WORD,AGR,150,tipo,,el,,0.452,,582.7201,582.7203,-0.006896522,-0.334482804,0,0,0,,0,172,172,8,1,sibo,,,,
,,,,,,5df79331451be551923ad906,676192165fb32c2e1fb7aee6,67d19424a814518212811afa,2025-03-12_08h05.32.036,Tarea de decisión léxica,2024.2.5,Win32,60.24096386,,,,,,,,,,,,,,,,,,,,,,,582.721,583.7867,l,1,0.4064,1,583.7868,584.287,,,,,,255,MAS,WORD,DIS,150,miedo,,la,,0.4064,,584.2871,584.2873,-0.006896522,-0.334482804,0,0,0,,0,173,173,254,1,mauco,,,,
,,,,,,5df79331451be551923ad906,676192165fb32c2e1fb7aee6,67d19424a814518212811afa,2025-03-12_08h05.32.036,Tarea de decisión léxica,2024.2.5,Win32,60.24096386,,,,,,,,,,,,,,,,,,,,,,,584.2898,585.371,a,1,0.4072,1,585.3711,585.8698,,,,,,396,FEM,NOWORD,DIS,150,paeda,,el,,0.4072,,585.8699,585.8699,-0.006896522,-0.334482804,0,0,0,,0,174,174,395,1,caída,,,,
,,,,,,5df79331451be551923ad906,676192165fb32c2e1fb7aee6,67d19424a814518212811afa,2025-03-12_08h05.32.036,Tarea de decisión léxica,2024.2.5,Win32,60.24096386,,,,,,,,,,,,,,,,,,,,,,,585.8722,587.0208,a,1,0.4752,1,587.0208,587.5196,,,,,,58,MAS,NOWORD,AGR,150,heco,,el,,0.4752,,587.5213,587.5224,-0.006896522,-0.334482804,0,0,0,,0,175,175,57,1,dedo,,,,
,,,,,,5df79331451be551923ad906,676192165fb32c2e1fb7aee6,67d19424a814518212811afa,2025-03-12_08h05.32.036,Tarea de decisión léxica,2024.2.5,Win32,60.24096386,,,,,,,,,,,,,,,,,,,,,,,587.5228,588.7027,a,1,0.5075,1,588.7028,589.2027,,,,,,240,MAS,NOWORD,DIS,150,poño,,la,,0.5075,,589.2027,589.2029,-0.006896522,-0.334482804,0,0,0,,0,176,176,239,1,mozo,,,,
,,,,,,5df79331451be551923ad906,676192165fb32c2e1fb7aee6,67d19424a814518212811afa,2025-03-12_08h05.32.036,Tarea de decisión léxica,2024.2.5,Win32,60.24096386,,,,,,,,,,,,,,,,,,,,,,,589.2043,590.3529,a,1,0.4669,1,590.353,590.8534,,,,,,82,FEM,NOWORD,AGR,150,vasa,,la,,0.4669,,590.8534,590.8537,-0.006896522,-0.334482804,0,0,0,,0,177,177,81,1,dama,,,,
,,,,,,5df79331451be551923ad906,676192165fb32c2e1fb7aee6,67d19424a814518212811afa,2025-03-12_08h05.32.036,Tarea de decisión léxica,2024.2.5,Win32,60.24096386,,,,,,,,,,,,,,,,,,,,,,,590.8559,591.9737,l,1,0.4454,1,591.9739,592.4708,,,,,,335,FEM,WORD,DIS,150,costa,,el,,0.4454,,592.4709,592.4719,-0.006896522,-0.334482804,0,0,0,,0,178,178,334,1,pesta,,,,
,,,,,,5df79331451be551923ad906,676192165fb32c2e1fb7aee6,67d19424a814518212811afa,2025-03-12_08h05.32.036,Tarea de decisión léxica,2024.2.5,Win32,60.24096386,,,,,,,,,,,,,,,,,,,,,,,592.4744,593.5036,a,1,0.3505,1,593.5037,594.004,,,,,,210,MAS,NOWORD,AGR,150,dero,,el,,0.3505,,594.0071,594.0085,-0.006896522,-0.334482804,0,0,0,,0,179,179,209,1,velo,,,,
,,,,,,5df79331451be551923ad906,676192165fb32c2e1fb7aee6,67d19424a814518212811afa,2025-03-12_08h05.32.036,Tarea de decisión léxica,2024.2.5,Win32,60.24096386,,,,,,,,,,,,,,,,,,,,,,,594.0097,595.2037,a,1,0.5251,1,595.2041,595.7029,,,,,,214,FEM,NOWORD,AGR,150,bana,,la,,0.5251,,595.703,595.7031,-0.006896522,-0.334482804,0,0,0,,0,180,180,213,1,rama,,,,
,,,,,,5df79331451be551923ad906,676192165fb32c2e1fb7aee6,67d19424a814518212811afa,2025-03-12_08h05.32.036,Tarea de decisión léxica,2024.2.5,Win32,60.24096386,,,,,,,,,,,,,,,,,,,,,,,595.7062,596.9198,l,1,0.5352,1,596.92,597.4184,,,,,,175,FEM,WORD,DIS,150,goma,,el,,0.5352,,597.4185,597.4185,-0.006896522,-0.334482804,0,0,0,,0,181,181,174,1,hosa,,,,
,,,,,,5df79331451be551923ad906,676192165fb32c2e1fb7aee6,67d19424a814518212811afa,2025-03-12_08h05.32.036,Tarea de decisión léxica,2024.2.5,Win32,60.24096386,,,,,,,,,,,,,,,,,,,,,,,597.4204,598.7738,a,1,0.6965,1,598.7739,599.2699,,,,,,404,FEM,NOWORD,DIS,150,grisa,,el,,0.6965,,599.27,599.2701,-0.006896522,-0.334482804,0,0,0,,0,182,182,403,1,prima,,,,
,,,,,,5df79331451be551923ad906,676192165fb32c2e1fb7aee6,67d19424a814518212811afa,2025-03-12_08h05.32.036,Tarea de decisión léxica,2024.2.5,Win32,60.24096386,,,,,,,,,,,,,,,,,,,,,,,599.2727,600.5205,a,1,0.5695,1,600.5209,601.0191,,,,,,340,MAS,NOWORD,DIS,150,plajo,,la,,0.5695,,601.0191,601.0194,-0.006896522,-0.334482804,0,0,0,,0,183,183,339,1,brazo,,,,
,,,,,,5df79331451be551923ad906,676192165fb32c2e1fb7aee6,67d19424a814518212811afa,2025-03-12_08h05.32.036,Tarea de decisión léxica,2024.2.5,Win32,60.24096386,,,,,,,,,,,,,,,,,,,,,,,601.0221,602.3029,a,1,0.5988,1,602.3034,602.8024,,,,,,334,FEM,NOWORD,AGR,150,dalea,,la,,0.5988,,602.8053,602.8069,-0.006896522,-0.334482804,0,0,0,,0,184,184,333,1,tarea,,,,
,,,,,,5df79331451be551923ad906,676192165fb32c2e1fb7aee6,67d19424a814518212811afa,2025-03-12_08h05.32.036,Tarea de decisión léxica,2024.2.5,Win32,60.24096386,,,,,,,,,,,,,,,,,,,,,,,602.808,604.1508,l,1,0.6709,1,604.1509,604.6523,,,,,,197,MAS,WORD,AGR,150,bate,,el,,0.6709,,604.6524,604.6526,-0.006896522,-0.334482804,0,0,0,,0,185,185,196,1,dade,,,,
,,,,,,5df79331451be551923ad906,676192165fb32c2e1fb7aee6,67d19424a814518212811afa,2025-03-12_08h05.32.036,Tarea de decisión léxica,2024.2.5,Win32,60.24096386,,,,,,,,,,,,,,,,,,,,,,,604.6553,605.9009,l,1,0.5684,1,605.9013,606.4015,,,,,,135,MAS,WORD,DIS,150,tubo,,la,,0.5684,,606.4019,606.4022,-0.006896522,-0.334482804,0,0,0,,0,186,186,134,1,geso,,,,
,,,,,,5df79331451be551923ad906,676192165fb32c2e1fb7aee6,67d19424a814518212811afa,2025-03-12_08h05.32.036,Tarea de decisión léxica,2024.2.5,Win32,60.24096386,,,,,,,,,,,,,,,,,,,,,,,606.4039,607.6522,a,1,0.5713,1,607.6526,608.1522,,,,,,248,FEM,NOWORD,DIS,150,trida,,el,,0.5713,,608.1523,608.1526,-0.006896522,-0.334482804,0,0,0,,0,187,187,247,1,chica,,,,
,,,,,,5df79331451be551923ad906,676192165fb32c2e1fb7aee6,67d19424a814518212811afa,2025-03-12_08h05.32.036,Tarea de decisión léxica,2024.2.5,Win32,60.24096386,,,,,,,,,,,,,,,,,,,,,,,608.1554,609.3674,l,1,0.5417,1,609.3675,609.8676,,,,,,53,FEM,WORD,AGR,150,boda,,la,,0.5417,,609.8678,609.8678,-0.006896522,-0.334482804,0,0,0,,0,188,188,52,1,rora,,,,
,,,,,,5df79331451be551923ad906,676192165fb32c2e1fb7aee6,67d19424a814518212811afa,2025-03-12_08h05.32.036,Tarea de decisión léxica,2024.2.5,Win32,60.24096386,,,,,,,,,,,,,,,,,,,,,,,609.8705,610.9173,a,1,0.3671,1,610.9175,611.4179,,,,,,8,MAS,NOWORD,DIS,150,nivo,,la,,0.3671,,611.4203,611.4215,-0.006896522,-0.334482804,0,0,0,,0,189,189,7,1,hijo,,,,
,,,,,,5df79331451be551923ad906,676192165fb32c2e1fb7aee6,67d19424a814518212811afa,2025-03-12_08h05.32.036,Tarea de decisión léxica,2024.2.5,Win32,60.24096386,,,,,,,,,,,,,,,,,,,,,,,611.4226,612.5513,a,1,0.4527,1,612.5517,613.0515,,,,,,236,FEM,NOWORD,DIS,150,tria,,el,,0.4527,,613.0516,613.0518,-0.006896522,-0.334482804,0,0,0,,0,190,190,235,1,grúa,,,,
,,,,,,5df79331451be551923ad906,676192165fb32c2e1fb7aee6,67d19424a814518212811afa,2025-03-12_08h05.32.036,Tarea de decisión léxica,2024.2.5,Win32,60.24096386,,,,,,,,,,,,,,,,,,,,,,,613.0544,614.1342,l,1,0.4041,1,614.1344,614.6339,,,,,,277,MAS,WORD,AGR,150,fuego,,el,,0.4041,,614.634,614.6342,-0.006896522,-0.334482804,0,0,0,,0,191,191,276,1,vuemo,,,,
,,,,,,5df79331451be551923ad906,676192165fb32c2e1fb7aee6,67d19424a814518212811afa,2025-03-12_08h05.32.036,Tarea de decisión léxica,2024.2.5,Win32,60.24096386,,,,,,,,,,,,,,,,,,,,,,,614.6372,616.3191,l,1,1.0095,1,616.3195,616.816,,,,,,265,FEM,WORD,AGR,150,mitad,,la,,1.0095,,616.8161,616.8161,-0.006896522,-0.334482804,0,0,0,,0,192,192,264,1,pitat,,,,
,,,,,,5df79331451be551923ad906,676192165fb32c2e1fb7aee6,67d19424a814518212811afa,2025-03-12_08h05.32.036,Tarea de decisión léxica,2024.2.5,Win32,60.24096386,,,,,,,,,,,,,,,,,,,,,,,616.8177,617.9671,l,1,0.4863,1,617.9675,618.4664,,,,,,141,FEM,WORD,AGR,150,cruz,,la,,0.4863,,618.4665,618.4666,-0.006896522,-0.334482804,0,0,0,,0,193,193,140,1,sina,,,,
,,,,,,5df79331451be551923ad906,676192165fb32c2e1fb7aee6,67d19424a814518212811afa,2025-03-12_08h05.32.036,Tarea de decisión léxica,2024.2.5,Win32,60.24096386,,,,,,,,,,,,,,,,,,,,,,,618.4696,619.5994,l,1,0.4518,1,619.5994,620.0987,,,,,,201,FEM,WORD,AGR,150,cuna,,la,,0.4518,,620.1004,620.1018,-0.006896522,-0.334482804,0,0,0,,0,194,194,200,1,cusa,,,,
,,,,,,5df79331451be551923ad906,676192165fb32c2e1fb7aee6,67d19424a814518212811afa,2025-03-12_08h05.32.036,Tarea de decisión léxica,2024.2.5,Win32,60.24096386,,,,,,,,,,,,,,,,,,,,,,,620.1021,621.1659,a,1,0.3822,1,621.166,621.666,,,,,,194,FEM,NOWORD,AGR,150,foda,,la,,0.3822,,621.6664,621.6665,-0.006896522,-0.334482804,0,0,0,,0,195,195,193,1,loca,,,,
,,,,,,5df79331451be551923ad906,676192165fb32c2e1fb7aee6,67d19424a814518212811afa,2025-03-12_08h05.32.036,Tarea de decisión léxica,2024.2.5,Win32,60.24096386,,,,,,,,,,,,,,,,,,,,,,,621.6692,623.0663,a,1,0.7181,1,623.0665,623.5663,,,,,,138,MAS,NOWORD,AGR,150,pamo,,el,,0.7181,,623.5664,623.5665,-0.006896522,-0.334482804,0,0,0,,0,196,196,137,1,nene,,,,
,,,,,,5df79331451be551923ad906,676192165fb32c2e1fb7aee6,67d19424a814518212811afa,2025-03-12_08h05.32.036,Tarea de decisión léxica,2024.2.5,Win32,60.24096386,,,,,,,,,,,,,,,,,,,,,,,623.5693,624.7157,l,1,0.469,1,624.7157,625.2162,,,,,,413,FEM,WORD,AGR,150,rueda,,la,,0.469,,625.2163,625.2164,-0.006896522,-0.334482804,0,0,0,,0,197,197,412,1,bieda,,,,
,,,,,,5df79331451be551923ad906,676192165fb32c2e1fb7aee6,67d19424a814518212811afa,2025-03-12_08h05.32.036,Tarea de decisión léxica,2024.2.5,Win32,60.24096386,,,,,,,,,,,,,,,,,,,,,,,625.2196,626.4664,l,1,0.5663,1,626.4669,626.966,,,,,,281,MAS,WORD,AGR,150,cielo,,el,,0.5663,,626.9663,626.9665,-0.006896522,-0.334482804,0,0,0,,0,198,198,280,1,cauro,,,,
,,,,,,5df79331451be551923ad906,676192165fb32c2e1fb7aee6,67d19424a814518212811afa,2025-03-12_08h05.32.036,Tarea de decisión léxica,2024.2.5,Win32,60.24096386,,,,,,,,,,,,,,,,,,,,,,,626.9697,628.0981,l,1,0.4525,1,628.0982,628.5994,,,,,,139,MAS,WORD,DIS,150,mago,,la,,0.4525,,628.6022,628.6033,-0.006896522,-0.334482804,0,0,0,,0,199,199,138,1,nila,,,,
,,,,,,5df79331451be551923ad906,676192165fb32c2e1fb7aee6,67d19424a814518212811afa,2025-03-12_08h05.32.036,Tarea de decisión léxica,2024.2.5,Win32,60.24096386,,,,,,,,,,,,,,,,,,,,,,,628.6046,629.8333,l,1,0.5586,1,629.8336,630.3327,,,,,,309,FEM,WORD,AGR,150,silla,,la,,0.5586,,630.3327,630.333,-0.006896522,-0.334482804,0,0,0,,0,200,200,308,1,tirra,,,,
,,,,,,5df79331451be551923ad906,676192165fb32c2e1fb7aee6,67d19424a814518212811afa,2025-03-12_08h05.32.036,Tarea de decisión léxica,2024.2.5,Win32,60.24096386,,,,,,,,,,,,,,,,,,,,,,,630.3358,631.4491,l,1,0.4335,1,631.4493,631.9486,,,,,,59,FEM,WORD,DIS,150,sala,,el,,0.4335,,631.9486,631.9487,-0.006896522,-0.334482804,0,0,0,,0,201,201,58,1,tafa,,,,
,,,,,,5df79331451be551923ad906,676192165fb32c2e1fb7aee6,67d19424a814518212811afa,2025-03-12_08h05.32.036,Tarea de decisión léxica,2024.2.5,Win32,60.24096386,,,,,,,,,,,,,,,,,,,,,,,631.9519,633.0485,l,1,0.4212,1,633.0487,633.5487,,,,,,223,FEM,WORD,DIS,150,cera,,el,,0.4212,,633.5488,633.5489,-0.006896522,-0.334482804,0,0,0,,0,202,202,222,1,cira,,,,
,,,,,,5df79331451be551923ad906,676192165fb32c2e1fb7aee6,67d19424a814518212811afa,2025-03-12_08h05.32.036,Tarea de decisión léxica,2024.2.5,Win32,60.24096386,,,,,,,,,,,,,,,,,,,,,,,633.5529,634.7141,l,1,0.4849,1,634.7142,635.215,,,,,,351,MAS,WORD,DIS,150,vuelo,,la,,0.4849,,635.2179,635.2193,-0.006896522,-0.334482804,0,0,0,,0,203,203,350,1,duepo,,,,
,,,,,,5df79331451be551923ad906,676192165fb32c2e1fb7aee6,67d19424a814518212811afa,2025-03-12_08h05.32.036,Tarea de decisión léxica,2024.2.5,Win32,60.24096386,,,,,,,,,,,,,,,,,,,,,,,635.2207,636.5484,l,1,0.6528,1,636.5487,637.048,,,,,,467,MAS,WORD,DIS,150,piano,,la,,0.6528,,637.0481,637.0483,-0.006896522,-0.334482804,0,0,0,,0,204,204,466,1,peiso,,,,
,,,,,,5df79331451be551923ad906,676192165fb32c2e1fb7aee6,67d19424a814518212811afa,2025-03-12_08h05.32.036,Tarea de decisión léxica,2024.2.5,Win32,60.24096386,,,,,,,,,,,,,,,,,,,,,,,637.0497,638.0643,a,1,0.3372,1,638.0644,638.5645,,,,,,476,FEM,NOWORD,DIS,150,mucta,,el,,0.3372,,638.5646,638.5649,-0.006896522,-0.334482804,0,0,0,,0,205,205,475,1,manta,,,,
,,,,,,5df79331451be551923ad906,676192165fb32c2e1fb7aee6,67d19424a814518212811afa,2025-03-12_08h05.32.036,Tarea de decisión léxica,2024.2.5,Win32,60.24096386,,,,,,,,,,,,,,,,,,,,,,,638.5682,639.5803,a,1,0.3385,1,639.5805,640.081,,,,,,258,FEM,NOWORD,AGR,150,asama,,la,,0.3385,,640.0813,640.0815,-0.006896522,-0.334482804,0,0,0,,0,206,206,257,1,amiga,,,,
,,,,,,5df79331451be551923ad906,676192165fb32c2e1fb7aee6,67d19424a814518212811afa,2025-03-12_08h05.32.036,Tarea de decisión léxica,2024.2.5,Win32,60.24096386,,,,,,,,,,,,,,,,,,,,,,,640.0841,641.2312,l,1,0.4683,1,641.2314,641.7311,,,,,,449,FEM,WORD,AGR,150,pluma,,la,,0.4683,,641.7312,641.7314,-0.006896522,-0.334482804,0,0,0,,0,207,207,448,1,crusa,,,,
,,,,,,5df79331451be551923ad906,676192165fb32c2e1fb7aee6,67d19424a814518212811afa,2025-03-12_08h05.32.036,Tarea de decisión léxica,2024.2.5,Win32,60.24096386,,,,,,,,,,,,,,,,,,,,,,,641.7346,642.7638,l,1,0.3516,1,642.7642,643.2639,,,,,,11,MAS,WORD,DIS,150,lado,,la,,0.3516,,643.2668,643.2686,-0.006896522,-0.334482804,0,0,0,,0,208,208,10,1,bapo,,,,
,,,,,,5df79331451be551923ad906,676192165fb32c2e1fb7aee6,67d19424a814518212811afa,2025-03-12_08h05.32.036,Tarea de decisión léxica,2024.2.5,Win32,60.24096386,,,,,,,,,,,,,,,,,,,,,,,643.27,644.4484,a,1,0.5004,1,644.4488,644.946,,,,,,328,MAS,NOWORD,DIS,150,lendo,,la,,0.5004,,644.946,644.946,-0.006896522,-0.334482804,0,0,0,,0,209,209,327,1,fondo,,,,
,,,,,,5df79331451be551923ad906,676192165fb32c2e1fb7aee6,67d19424a814518212811afa,2025-03-12_08h05.32.036,Tarea de decisión léxica,2024.2.5,Win32,60.24096386,,,,,,,,,,,,,,,,,,,,,,,644.9478,646.0333,a,1,0.4282,1,646.0334,646.5302,,,,,,410,MAS,NOWORD,AGR,150,pafro,,el,,0.4282,,646.5309,646.5311,-0.006896522,-0.334482804,0,0,0,,0,210,210,409,1,carro,,,,
,,,,,,5df79331451be551923ad906,676192165fb32c2e1fb7aee6,67d19424a814518212811afa,2025-03-12_08h05.32.036,Tarea de decisión léxica,2024.2.5,Win32,60.24096386,,,,,,,,,,,,,,,,,,,,,,,646.5336,647.6166,l,1,0.4107,1,647.6167,648.1138,,,,,,57,MAS,WORD,AGR,150,dedo,,el,,0.4107,,648.1138,648.1141,-0.006896522,-0.334482804,0,0,0,,0,211,211,56,1,heco,,,,
,,,,,,5df79331451be551923ad906,676192165fb32c2e1fb7aee6,67d19424a814518212811afa,2025-03-12_08h05.32.036,Tarea de decisión léxica,2024.2.5,Win32,60.24096386,,,,,,,,,,,,,,,,,,,,,,,648.1174,649.2451,a,1,0.45,1,649.2452,649.7473,,,,,,250,FEM,NOWORD,AGR,150,plane,,la,,0.45,,649.7474,649.7475,-0.006896522,-0.334482804,0,0,0,,0,212,212,249,1,clase,,,,
,,,,,,5df79331451be551923ad906,676192165fb32c2e1fb7aee6,67d19424a814518212811afa,2025-03-12_08h05.32.036,Tarea de decisión léxica,2024.2.5,Win32,60.24096386,,,,,,,,,,,,,,,,,,,,,,,649.7504,650.9796,l,1,0.556,1,650.9797,651.4796,,,,,,159,MAS,WORD,DIS,150,giro,,la,,0.556,,651.4823,651.4834,-0.006896522,-0.334482804,0,0,0,,0,213,213,158,1,bilo,,,,
,,,,,,5df79331451be551923ad906,676192165fb32c2e1fb7aee6,67d19424a814518212811afa,2025-03-12_08h05.32.036,Tarea de decisión léxica,2024.2.5,Win32,60.24096386,,,,,,,,,,,,,,,,,,,,,,,651.4845,652.5127,a,1,0.3523,1,652.5133,653.0128,,,,,,290,FEM,NOWORD,AGR,150,bumpa,,la,,0.3523,,653.0128,653.0129,-0.006896522,-0.334482804,0,0,0,,0,214,214,289,1,bomba,,,,
,,,,,,5df79331451be551923ad906,676192165fb32c2e1fb7aee6,67d19424a814518212811afa,2025-03-12_08h05.32.036,Tarea de decisión léxica,2024.2.5,Win32,60.24096386,,,,,,,,,,,,,,,,,,,,,,,653.0163,654.1629,l,1,0.4663,1,654.1632,654.6627,,,,,,245,FEM,WORD,AGR,150,madre,,la,,0.4663,,654.6628,654.6632,-0.006896522,-0.334482804,0,0,0,,0,215,215,244,1,pafle,,,,
,,,,,,5df79331451be551923ad906,676192165fb32c2e1fb7aee6,67d19424a814518212811afa,2025-03-12_08h05.32.036,Tarea de decisión léxica,2024.2.5,Win32,60.24096386,,,,,,,,,,,,,,,,,,,,,,,654.6659,655.8456,a,1,0.5075,1,655.8459,656.3474,,,,,,432,MAS,NOWORD,DIS,150,tetor,,la,,0.5075,,656.3477,656.3479,-0.006896522,-0.334482804,0,0,0,,0,216,216,431,1,motor,,,,
,,,,,,5df79331451be551923ad906,676192165fb32c2e1fb7aee6,67d19424a814518212811afa,2025-03-12_08h05.32.036,Tarea de decisión léxica,2024.2.5,Win32,60.24096386,,,,,,,,,,,,,,,,,,,,,,,656.3492,657.711,l,1,0.6825,1,657.711,658.2122,,,,,,161,MAS,WORD,AGR,150,coro,,el,,0.6825,,658.2123,658.2124,-0.006896522,-0.334482804,0,0,0,,0,217,217,160,1,bopo,,,,
,,,,,,5df79331451be551923ad906,676192165fb32c2e1fb7aee6,67d19424a814518212811afa,2025-03-12_08h05.32.036,Tarea de decisión léxica,2024.2.5,Win32,60.24096386,,,,,,,,,,,,,,,,,,,,,,,658.2152,659.2323,a,1,0.3432,1,659.2324,659.7286,,,,,,98,MAS,NOWORD,AGR,150,fopo,,el,,0.3432,,659.7316,659.7333,-0.006896522,-0.334482804,0,0,0,,0,218,218,97,1,mono,,,,
,,,,,,5df79331451be551923ad906,676192165fb32c2e1fb7aee6,67d19424a814518212811afa,2025-03-12_08h05.32.036,Tarea de decisión léxica,2024.2.5,Win32,60.24096386,,,,,,,,,,,,,,,,,,,,,,,659.7346,661.0961,l,1,0.6866,1,661.0961,661.5946,,,,,,103,FEM,WORD,DIS,150,ruta,,el,,0.6866,,661.5947,661.5949,-0.006896522,-0.334482804,0,0,0,,0,219,219,102,1,rova,,,,
,,,,,,5df79331451be551923ad906,676192165fb32c2e1fb7aee6,67d19424a814518212811afa,2025-03-12_08h05.32.036,Tarea de decisión léxica,2024.2.5,Win32,60.24096386,,,,,,,,,,,,,,,,,,,,,,,661.5974,662.9947,l,1,0.7183,1,662.9948,663.4938,,,,,,145,MAS,WORD,AGR,150,león,,el,,0.7183,,663.4939,663.494,-0.006896522,-0.334482804,0,0,0,,0,220,220,144,1,nobo,,,,
,,,,,,5df79331451be551923ad906,676192165fb32c2e1fb7aee6,67d19424a814518212811afa,2025-03-12_08h05.32.036,Tarea de decisión léxica,2024.2.5,Win32,60.24096386,,,,,,,,,,,,,,,,,,,,,,,663.4965,664.9271,a,1,0.7468,1,664.9271,665.4284,,,,,,416,FEM,NOWORD,DIS,150,juira,,el,,0.7468,,665.4284,665.4288,-0.006896522,-0.334482804,0,0,0,,0,221,221,415,1,jaula,,,,
,,,,,,5df79331451be551923ad906,676192165fb32c2e1fb7aee6,67d19424a814518212811afa,2025-03-12_08h05.32.036,Tarea de decisión léxica,2024.2.5,Win32,60.24096386,,,,,,,,,,,,,,,,,,,,,,,665.4313,666.8603,l,1,0.7564,1,666.8604,667.36,,,,,,423,MAS,WORD,DIS,150,queso,,la,,0.7564,,667.3601,667.3604,-0.006896522,-0.334482804,0,0,0,,0,222,222,422,1,quigo,,,,
,,,,,,5df79331451be551923ad906,676192165fb32c2e1fb7aee6,67d19424a814518212811afa,2025-03-12_08h05.32.036,Tarea de decisión léxica,2024.2.5,Win32,60.24096386,,,,,,,,,,,,,,,,,,,,,,,667.3625,668.7602,a,1,0.7183,1,668.7604,669.2594,,,,,,246,FEM,NOWORD,AGR,150,pafle,,la,,0.7183,,669.2613,669.2623,-0.006896522,-0.334482804,0,0,0,,0,223,223,245,1,madre,,,,
,,,,,,5df79331451be551923ad906,676192165fb32c2e1fb7aee6,67d19424a814518212811afa,2025-03-12_08h05.32.036,Tarea de decisión léxica,2024.2.5,Win32,60.24096386,,,,,,,,,,,,,,,,,,,,,,,669.2628,670.8263,a,1,0.8874,1,670.8264,671.3264,,,,,,372,FEM,NOWORD,DIS,150,mosta,,el,,0.8874,,671.3265,671.3266,-0.006896522,-0.334482804,0,0,0,,0,224,224,371,1,pasta,,,,
,,,,,,5df79331451be551923ad906,676192165fb32c2e1fb7aee6,67d19424a814518212811afa,2025-03-12_08h05.32.036,Tarea de decisión léxica,2024.2.5,Win32,60.24096386,,,,,,,,,,,,,,,,,,,,,,,671.3294,673.027,a,1,1.0193,1,673.0274,673.5265,,,,,,100,MAS,NOWORD,DIS,150,soro,,la,,1.0193,,673.5266,673.5268,-0.006896522,-0.334482804,0,0,0,,0,225,225,99,1,lobo,,,,
,,,,,,5df79331451be551923ad906,676192165fb32c2e1fb7aee6,67d19424a814518212811afa,2025-03-12_08h05.32.036,Tarea de decisión léxica,2024.2.5,Win32,60.24096386,,,,,,,,,,,,,,,,,,,,,,,673.5297,674.7598,a,1,0.5555,1,674.76,675.2588,,,,,,18,FEM,NOWORD,AGR,150,paba,,la,,0.5555,,675.2589,675.2592,-0.006896522,-0.334482804,0,0,0,,0,226,226,17,1,mamá,,,,
,,,,,,5df79331451be551923ad906,676192165fb32c2e1fb7aee6,67d19424a814518212811afa,2025-03-12_08h05.32.036,Tarea de decisión léxica,2024.2.5,Win32,60.24096386,,,,,,,,,,,,,,,,,,,,,,,675.2614,676.4767,l,1,0.5348,1,676.4769,676.9769,,,,,,469,MAS,WORD,AGR,150,patio,,el,,0.5348,,676.9796,676.9807,-0.006896522,-0.334482804,0,0,0,,0,227,227,468,1,matia,,,,
,,,,,,5df79331451be551923ad906,676192165fb32c2e1fb7aee6,67d19424a814518212811afa,2025-03-12_08h05.32.036,Tarea de decisión léxica,2024.2.5,Win32,60.24096386,,,,,,,,,,,,,,,,,,,,,,,676.9824,678.1274,l,1,0.4783,1,678.1275,678.6267,,,,,,433,MAS,WORD,AGR,150,disco,,el,,0.4783,,678.6272,678.6278,-0.006896522,-0.334482804,0,0,0,,0,228,228,432,1,durco,,,,
,,,,,,5df79331451be551923ad906,676192165fb32c2e1fb7aee6,67d19424a814518212811afa,2025-03-12_08h05.32.036,Tarea de decisión léxica,2024.2.5,Win32,60.24096386,,,,,,,,,,,,,,,,,,,,,,,678.6304,679.9417,a,1,0.6369,1,679.9418,680.4431,,,,,,456,MAS,NOWORD,DIS,150,riaso,,la,,0.6369,,680.4435,680.4439,-0.006896522,-0.334482804,0,0,0,,0,229,229,455,1,reino,,,,
,,,,,,5df79331451be551923ad906,676192165fb32c2e1fb7aee6,67d19424a814518212811afa,2025-03-12_08h05.32.036,Tarea de decisión léxica,2024.2.5,Win32,60.24096386,,,,,,,,,,,,,,,,,,,,,,,680.4464,681.6079,l,1,0.4843,1,681.6081,682.1082,,,,,,129,MAS,WORD,AGR,150,oído,,el,,0.4843,,682.1082,682.1083,-0.006896522,-0.334482804,0,0,0,,0,230,230,128,1,pima,,,,
,,,,,,5df79331451be551923ad906,676192165fb32c2e1fb7aee6,67d19424a814518212811afa,2025-03-12_08h05.32.036,Tarea de decisión léxica,2024.2.5,Win32,60.24096386,,,,,,,,,,,,,,,,,,,,,,,682.1096,683.2747,l,1,0.5007,1,683.2749,683.7753,,,,,,401,MAS,WORD,AGR,150,polvo,,el,,0.5007,,683.7754,683.7755,-0.006896522,-0.334482804,0,0,0,,0,231,231,400,1,pirvo,,,,
,,,,,,5df79331451be551923ad906,676192165fb32c2e1fb7aee6,67d19424a814518212811afa,2025-03-12_08h05.32.036,Tarea de decisión léxica,2024.2.5,Win32,60.24096386,,,,,,,,,,,,,,,,,,,,,,,683.778,685.0241,a,1,0.5689,1,685.0242,685.5243,,,,,,332,MAS,NOWORD,DIS,150,erato,,la,,0.5689,,685.526,685.5274,-0.006896522,-0.334482804,0,0,0,,0,232,232,331,1,éxito,,,,
,,,,,,5df79331451be551923ad906,676192165fb32c2e1fb7aee6,67d19424a814518212811afa,2025-03-12_08h05.32.036,Tarea de decisión léxica,2024.2.5,Win32,60.24096386,,,,,,,,,,,,,,,,,,,,,,,685.528,686.9407,a,1,0.7375,1,686.9408,687.4412,,,,,,130,MAS,NOWORD,AGR,150,pima,,el,,0.7375,,687.4412,687.4414,-0.006896522,-0.334482804,0,0,0,,0,233,233,129,1,oído,,,,
,,,,,,5df79331451be551923ad906,676192165fb32c2e1fb7aee6,67d19424a814518212811afa,2025-03-12_08h05.32.036,Tarea de decisión léxica,2024.2.5,Win32,60.24096386,,,,,,,,,,,,,,,,,,,,,,,687.4447,688.4907,a,1,0.3731,1,688.4908,688.9907,,,,,,252,MAS,NOWORD,DIS,150,refor,,la,,0.3731,,688.9907,688.9909,-0.006896522,-0.334482804,0,0,0,,0,234,234,251,1,señor,,,,
,,,,,,5df79331451be551923ad906,676192165fb32c2e1fb7aee6,67d19424a814518212811afa,2025-03-12_08h05.32.036,Tarea de decisión léxica,2024.2.5,Win32,60.24096386,,,,,,,,,,,,,,,,,,,,,,,688.9934,690.1741,a,1,0.5006,1,690.1742,690.674,,,,,,356,FEM,NOWORD,DIS,150,bepla,,el,,0.5006,,690.6741,690.6742,-0.006896522,-0.334482804,0,0,0,,0,235,235,355,1,regla,,,,
,,,,,,5df79331451be551923ad906,676192165fb32c2e1fb7aee6,67d19424a814518212811afa,2025-03-12_08h05.32.036,Tarea de decisión léxica,2024.2.5,Win32,60.24096386,,,,,,,,,,,,,,,,,,,,,,,690.6767,691.7405,a,1,0.392,1,691.7405,692.2401,,,,,,288,FEM,NOWORD,DIS,150,fosta,,el,,0.392,,692.2401,692.2402,-0.006896522,-0.334482804,0,0,0,,0,236,236,287,1,lista,,,,
,,,,,,5df79331451be551923ad906,676192165fb32c2e1fb7aee6,67d19424a814518212811afa,2025-03-12_08h05.32.036,Tarea de decisión léxica,2024.2.5,Win32,60.24096386,,,,,,,,,,,,,,,,,,,,,,,692.2422,693.2402,a,1,0.341,1,693.2407,693.7408,,,,,,64,FEM,NOWORD,DIS,150,funa,,el,,0.341,,693.7423,693.7427,-0.006896522,-0.334482804,0,0,0,,0,237,237,63,1,luna,,,,
,,,,,,5df79331451be551923ad906,676192165fb32c2e1fb7aee6,67d19424a814518212811afa,2025-03-12_08h05.32.036,Tarea de decisión léxica,2024.2.5,Win32,60.24096386,,,,,,,,,,,,,,,,,,,,,,,693.743,695.2092,l,1,0.7872,1,695.2096,695.7079,,,,,,3,FEM,WORD,DIS,150,vida,,el,,0.7872,,695.708,695.708,-0.006896522,-0.334482804,0,0,0,,0,238,238,2,1,dica,,,,
,,,,,,5df79331451be551923ad906,676192165fb32c2e1fb7aee6,67d19424a814518212811afa,2025-03-12_08h05.32.036,Tarea de decisión léxica,2024.2.5,Win32,60.24096386,,,,,,,,,,,,,,,,,,,,,,,695.7107,696.8059,l,1,0.4217,1,696.8059,697.3077,,,,,,215,FEM,WORD,DIS,150,raíz,,el,,0.4217,,697.3078,697.308,-0.006896522,-0.334482804,0,0,0,,0,239,239,214,1,raua,,,,
,,,,,,5df79331451be551923ad906,676192165fb32c2e1fb7aee6,67d19424a814518212811afa,2025-03-12_08h05.32.036,Tarea de decisión léxica,2024.2.5,Win32,60.24096386,,,,,,,,,,,,,,,,,,,,,,,697.3108,698.4728,a,1,0.4861,1,698.4729,698.9736,,,,,,344,FEM,NOWORD,DIS,150,trada,,el,,0.4861,,698.9737,698.9738,-0.006896522,-0.334482804,0,0,0,,0,240,240,343,1,plata,,,,
,,,,,,5df79331451be551923ad906,676192165fb32c2e1fb7aee6,67d19424a814518212811afa,2025-03-12_08h05.32.036,Tarea de decisión léxica,2024.2.5,Win32,60.24096386,,,,,,,,,,,,,,,,,,,,,,,698.9769,700.273,l,1,0.6213,1,700.2731,700.7729,,,,,,317,FEM,WORD,AGR,150,playa,,la,,0.6213,,700.773,700.7732,-0.006896522,-0.334482804,0,0,0,,0,241,241,316,1,plaad,,,,
,,,,,,5df79331451be551923ad906,676192165fb32c2e1fb7aee6,67d19424a814518212811afa,2025-03-12_08h05.32.036,Tarea de decisión léxica,2024.2.5,Win32,60.24096386,,,,,,,,,,,,,,,,,,,,,,,700.7756,702.1058,a,1,0.6506,1,702.1059,702.6063,,,,,,360,MAS,NOWORD,DIS,150,cacer,,la,,0.6506,,702.6088,702.6099,-0.006896522,-0.334482804,0,0,0,,0,242,242,359,1,calor,,,,
,,,,,,5df79331451be551923ad906,676192165fb32c2e1fb7aee6,67d19424a814518212811afa,2025-03-12_08h05.32.036,Tarea de decisión léxica,2024.2.5,Win32,60.24096386,,,,,,,,,,,,,,,,,,,,,,,702.6105,703.8054,l,1,0.5176,1,703.8055,704.3061,,,,,,79,FEM,WORD,DIS,150,piel,,el,,0.5176,,704.3061,704.3063,-0.006896522,-0.334482804,0,0,0,,0,243,243,78,1,ciel,,,,
,,,,,,5df79331451be551923ad906,676192165fb32c2e1fb7aee6,67d19424a814518212811afa,2025-03-12_08h05.32.036,Tarea de decisión léxica,2024.2.5,Win32,60.24096386,,,,,,,,,,,,,,,,,,,,,,,704.309,705.8715,l,1,0.8892,1,705.8715,706.3729,,,,,,191,FEM,WORD,DIS,150,pila,,el,,0.8892,,706.373,706.3732,-0.006896522,-0.334482804,0,0,0,,0,244,244,190,1,bila,,,,
,,,,,,5df79331451be551923ad906,676192165fb32c2e1fb7aee6,67d19424a814518212811afa,2025-03-12_08h05.32.036,Tarea de decisión léxica,2024.2.5,Win32,60.24096386,,,,,,,,,,,,,,,,,,,,,,,706.3761,707.4716,a,1,0.4238,1,707.4716,707.9716,,,,,,458,MAS,NOWORD,AGR,150,glaco,,el,,0.4238,,707.9716,707.9717,-0.006896522,-0.334482804,0,0,0,,0,245,245,457,1,plato,,,,
,,,,,,5df79331451be551923ad906,676192165fb32c2e1fb7aee6,67d19424a814518212811afa,2025-03-12_08h05.32.036,Tarea de decisión léxica,2024.2.5,Win32,60.24096386,,,,,,,,,,,,,,,,,,,,,,,707.9747,709.2717,a,1,0.6183,1,709.2718,709.7717,,,,,,88,MAS,NOWORD,DIS,150,damo,,la,,0.6183,,709.7719,709.772,-0.006896522,-0.334482804,0,0,0,,0,246,246,87,1,vaso,,,,
,,,,,,5df79331451be551923ad906,676192165fb32c2e1fb7aee6,67d19424a814518212811afa,2025-03-12_08h05.32.036,Tarea de decisión léxica,2024.2.5,Win32,60.24096386,,,,,,,,,,,,,,,,,,,,,,,709.7744,711.0385,a,1,0.584,1,711.0387,711.5385,,,,,,170,MAS,NOWORD,AGR,150,mibo,,el,,0.584,,711.5417,711.5425,-0.006896522,-0.334482804,0,0,0,,0,247,247,169,1,cubo,,,,
,,,,,,5df79331451be551923ad906,676192165fb32c2e1fb7aee6,67d19424a814518212811afa,2025-03-12_08h05.32.036,Tarea de decisión léxica,2024.2.5,Win32,60.24096386,,,,,,,,,,,,,,,,,,,,,,,711.5433,712.7236,l,1,0.5101,1,712.7238,713.2215,,,,,,65,MAS,WORD,AGR,150,dios,,el,,0.5101,,713.2217,713.2217,-0.006896522,-0.334482804,0,0,0,,0,248,248,64,1,nios,,,,
,,,,,,5df79331451be551923ad906,676192165fb32c2e1fb7aee6,67d19424a814518212811afa,2025-03-12_08h05.32.036,Tarea de decisión léxica,2024.2.5,Win32,60.24096386,,,,,,,,,,,,,,,,,,,,,,,713.2242,714.4379,a,1,0.535,1,714.4381,714.9378,,,,,,186,MAS,NOWORD,AGR,150,raol,,el,,0.535,,714.938,714.9384,-0.006896522,-0.334482804,0,0,0,,0,249,249,185,1,baúl,,,,
,,,,,,5df79331451be551923ad906,676192165fb32c2e1fb7aee6,67d19424a814518212811afa,2025-03-12_08h05.32.036,Tarea de decisión léxica,2024.2.5,Win32,60.24096386,,,,,,,,,,,,,,,,,,,,,,,714.9404,716.4049,l,1,0.7868,1,716.405,716.9047,,,,,,149,MAS,WORD,AGR,150,cabo,,el,,0.7868,,716.905,716.9052,-0.006896522,-0.334482804,0,0,0,,0,250,250,148,1,pafo,,,,
,,,,,,5df79331451be551923ad906,676192165fb32c2e1fb7aee6,67d19424a814518212811afa,2025-03-12_08h05.32.036,Tarea de decisión léxica,2024.2.5,Win32,60.24096386,,,,,,,,,,,,,,,,,,,,,,,716.9079,718.3209,a,1,0.7349,1,718.3211,718.8215,,,,,,322,MAS,NOWORD,AGR,150,rarco,,el,,0.7349,,718.8241,718.8255,-0.006896522,-0.334482804,0,0,0,,0,251,251,321,1,banco,,,,
,,,,,,5df79331451be551923ad906,676192165fb32c2e1fb7aee6,67d19424a814518212811afa,2025-03-12_08h05.32.036,Tarea de decisión léxica,2024.2.5,Win32,60.24096386,,,,,,,,,,,,,,,,,,,,,,,718.8268,720.07,a,1,0.5682,1,720.07,720.5719,,,,,,308,MAS,NOWORD,DIS,150,holol,,la,,0.5682,,720.572,720.5722,-0.006896522,-0.334482804,0,0,0,,0,252,252,307,1,hotel,,,,
,,,,,,5df79331451be551923ad906,676192165fb32c2e1fb7aee6,67d19424a814518212811afa,2025-03-12_08h05.32.036,Tarea de decisión léxica,2024.2.5,Win32,60.24096386,,,,,,,,,,,,,,,,,,,,,,,720.5753,721.9699,l,1,0.7258,1,721.9701,722.4715,,,,,,203,FEM,WORD,DIS,150,leña,,el,,0.7258,,722.4717,722.472,-0.006896522,-0.334482804,0,0,0,,0,253,253,202,1,beja,,,,
,,,,,,5df79331451be551923ad906,676192165fb32c2e1fb7aee6,67d19424a814518212811afa,2025-03-12_08h05.32.036,Tarea de decisión léxica,2024.2.5,Win32,60.24096386,,,,,,,,,,,,,,,,,,,,,,,722.4744,723.8532,l,1,0.706,1,723.8533,724.3537,,,,,,23,FEM,WORD,DIS,150,hija,,el,,0.706,,724.3539,724.354,-0.006896522,-0.334482804,0,0,0,,0,254,254,22,1,giva,,,,
,,,,,,5df79331451be551923ad906,676192165fb32c2e1fb7aee6,67d19424a814518212811afa,2025-03-12_08h05.32.036,Tarea de decisión léxica,2024.2.5,Win32,60.24096386,,,,,,,,,,,,,,,,,,,,,,,724.3564,725.4745,l,1,0.4458,1,725.4747,725.9707,,,,,,85,MAS,WORD,AGR,150,lago,,el,,0.4458,,725.9708,725.971,-0.006896522,-0.334482804,0,0,0,,0,255,255,84,1,babo,,,,
,,,,,,5df79331451be551923ad906,676192165fb32c2e1fb7aee6,67d19424a814518212811afa,2025-03-12_08h05.32.036,Tarea de decisión léxica,2024.2.5,Win32,60.24096386,,,,,,,,,,,,,,,,,,,,,,,725.9738,727.069,l,1,0.4199,1,727.0691,727.57,,,,,,21,MAS,WORD,AGR,150,plan,,el,,0.4199,,727.5719,727.5728,-0.006896522,-0.334482804,0,0,0,,0,256,256,20,1,blan,,,,
,,,,,,5df79331451be551923ad906,676192165fb32c2e1fb7aee6,67d19424a814518212811afa,2025-03-12_08h05.32.036,Tarea de decisión léxica,2024.2.5,Win32,60.24096386,,,,,,,,,,,,,,,,,,,,,,,727.5734,728.7536,l,1,0.5038,1,728.7538,729.2549,,,,,,425,FEM,WORD,AGR,150,viuda,,la,,0.5038,,729.2554,729.2559,-0.006896522,-0.334482804,0,0,0,,0,257,257,424,1,virca,,,,
,,,,,,5df79331451be551923ad906,676192165fb32c2e1fb7aee6,67d19424a814518212811afa,2025-03-12_08h05.32.036,Tarea de decisión léxica,2024.2.5,Win32,60.24096386,,,,,,,,,,,,,,,,,,,,,,,729.2586,730.3526,a,1,0.4187,1,730.353,730.8534,,,,,,218,MAS,NOWORD,AGR,150,budo,,el,,0.4187,,730.8535,730.8536,-0.006896522,-0.334482804,0,0,0,,0,258,258,217,1,luto,,,,
,,,,,,5df79331451be551923ad906,676192165fb32c2e1fb7aee6,67d19424a814518212811afa,2025-03-12_08h05.32.036,Tarea de decisión léxica,2024.2.5,Win32,60.24096386,,,,,,,,,,,,,,,,,,,,,,,730.8571,731.8869,a,1,0.3522,1,731.8871,732.3867,,,,,,180,MAS,NOWORD,DIS,150,sono,,la,,0.3522,,732.387,732.3872,-0.006896522,-0.334482804,0,0,0,,0,259,259,179,1,toro,,,,
,,,,,,5df79331451be551923ad906,676192165fb32c2e1fb7aee6,67d19424a814518212811afa,2025-03-12_08h05.32.036,Tarea de decisión léxica,2024.2.5,Win32,60.24096386,,,,,,,,,,,,,,,,,,,,,,,732.389,734.0354,l,1,0.9701,1,734.0355,734.5351,,,,,,263,FEM,WORD,DIS,150,vista,,el,,0.9701,,734.5351,734.5352,-0.006896522,-0.334482804,0,0,0,,0,260,260,262,1,dosta,,,,
,,,,,,5df79331451be551923ad906,676192165fb32c2e1fb7aee6,67d19424a814518212811afa,2025-03-12_08h05.32.036,Tarea de decisión léxica,2024.2.5,Win32,60.24096386,,,,,,,,,,,,,,,,,,,,,,,734.5375,735.7179,a,1,0.506,1,735.718,736.2185,,,,,,178,MAS,NOWORD,AGR,150,bito,,el,,0.506,,736.2208,736.2219,-0.006896522,-0.334482804,0,0,0,,0,261,261,177,1,reto,,,,
,,,,,,5df79331451be551923ad906,676192165fb32c2e1fb7aee6,67d19424a814518212811afa,2025-03-12_08h05.32.036,Tarea de decisión léxica,2024.2.5,Win32,60.24096386,,,,,,,,,,,,,,,,,,,,,,,736.2226,737.3382,l,1,0.4459,1,737.3384,737.8352,,,,,,39,MAS,WORD,DIS,150,voto,,la,,0.4459,,737.8353,737.8354,-0.006896522,-0.334482804,0,0,0,,0,262,262,38,1,redo,,,,
,,,,,,5df79331451be551923ad906,676192165fb32c2e1fb7aee6,67d19424a814518212811afa,2025-03-12_08h05.32.036,Tarea de decisión léxica,2024.2.5,Win32,60.24096386,,,,,,,,,,,,,,,,,,,,,,,737.838,739.1191,l,1,0.6009,1,739.1192,739.6186,,,,,,437,FEM,WORD,AGR,150,plaza,,la,,0.6009,,739.6187,739.6188,-0.006896522,-0.334482804,0,0,0,,0,263,263,436,1,glava,,,,
