counterbalancing_condition,consent_prescreening.block_1/declare_consent,consent_prescreening.block_1/age_years,consent_prescreening.block_1/gender,consent_prescreening.block_1/language_disorder,consent_prescreening.block_1/first_language,consent_prescreening.block_1/first_language-Comment,PROLIFIC_PID,STUDY_ID,SESSION_ID,date,expName,psychopyVersion,OS,frameRate,check_prescreening_answers.started,check_prescreening_answers.stopped,Instructions.started,Instructions.stopped,instr_done_keyboard.keys,instr_done_keyboard.rt,instr_done_keyboard.duration,instr_done_touch.x,instr_done_touch.y,instr_done_touch.leftButton,instr_done_touch.midButton,instr_done_touch.rightButton,instruction_pages.thisRepN,instruction_pages.thisTrialN,instruction_pages.thisN,instruction_pages.thisIndex,instruction_pages.ran,pageN,phase,instruct_text,has_image,instruct_image,presentTrial.started,presentTrial.stopped,response.keys,response.corr,rt,corr,feedback.started,feedback.stopped,practice_trials.thisRepN,practice_trials.thisTrialN,practice_trials.thisN,practice_trials.thisIndex,practice_trials.ran,TrialID,Gender,StimulusType,Condition,PrimeDuration,Prime,len,Flanker,corrAns,response.rt,response.duration,Break.started,Break.stopped,break_done_touch.x,break_done_touch.y,break_done_touch.leftButton,break_done_touch.midButton,break_done_touch.rightButton,break_done_keyboard.keys,experiment_trials.thisRepN,experiment_trials.thisTrialN,experiment_trials.thisN,experiment_trials.thisIndex,experiment_trials.ran,PairedWith,break_done_keyboard.rt,break_done_keyboard.duration,End.started,End.stopped
2,"[""over_18"",""comfortable"",""read_info"",""consent_given""]",27,M,"[""none""]","[""spanish"",""other""]",Gallego,5dfa6109534539000bdf1496,676192165fb32c2e1fb7aee6,67d17280634ceb8b71ca6843,2025-03-12_12h55.25.812,Tarea de decisión léxica,2024.2.5,Win32,20,,,,,,,,,,,,,,,,,,,,,,,,,,,,,,,,,,,,,,,,,,,,,,,,,,,,,,,,,,,,,,,,
,,,,,,,5dfa6109534539000bdf1496,676192165fb32c2e1fb7aee6,67d17280634ceb8b71ca6843,2025-03-12_12h55.25.812,Tarea de decisión léxica,2024.2.5,Win32,20,88.7771,88.7772,,,,,,,,,,,,,,,,,,,,,,,,,,,,,,,,,,,,,,,,,,,,,,,,,,,,,,,,,,,,,,
,,,,,,,5dfa6109534539000bdf1496,676192165fb32c2e1fb7aee6,67d17280634ceb8b71ca6843,2025-03-12_12h55.25.812,Tarea de decisión léxica,2024.2.5,Win32,20,,,88.7898,116.6558,space,27.7928,,0.822222222,0.062962963,0,0,0,0,0,0,0,1,1,instructions,"INSTRUCCIONES
Va a realizar una prueba de decisión léxica. Desde el comienzo de la prueba mire siempre al centro de la pantalla. Se presentará una serie de cadenas de letras, una a la vez, en la pantalla. Su tarea consiste en determinar si cada cadena de letras constituye una palabra real en español o una no-palabra (una secuencia de letras que no constituye una palabra real). 

Pulse la tecla ESPACIO para continuar.",0,keyboardresponseNW.png,,,,,,,,,,,,,,,,,,,,,,,,,,,,,,,,,,,,,,,,,,
,,,,,,,5dfa6109534539000bdf1496,676192165fb32c2e1fb7aee6,67d17280634ceb8b71ca6843,2025-03-12_12h55.25.812,Tarea de decisión léxica,2024.2.5,Win32,20,,,116.6573,128.8982,space,12.1863,,0.822222222,0.062962963,0,0,0,0,1,1,1,1,2,instructions,"El procedimiento es el siguiente: Aparecerán dos barras verticales posicionadas en el centro de la pantalla, separadas por un pequeño espacio.Por favor, enfoque su atención en el espacio entre las barras. Esto preparará sus ojos para la siguiente cadena de letras, que aparecerá entre las dos barras durante un instante.

Pulse la tecla ESPACIO para continuar.",0,keyboardresponseNW.png,,,,,,,,,,,,,,,,,,,,,,,,,,,,,,,,,,,,,,,,,,
,,,,,,,5dfa6109534539000bdf1496,676192165fb32c2e1fb7aee6,67d17280634ceb8b71ca6843,2025-03-12_12h55.25.812,Tarea de decisión léxica,2024.2.5,Win32,20,,,128.8993,160.5291,space,31.5543,,0.822222222,0.062962963,0,0,0,0,2,2,2,1,3,instructions,"En el teclado de su dispositivo, pulse la tecla ""L"" si la cadena de letras es una palabra real en español (por ejemplo: ""mano"") y la tecla ""A"" si la cadena de letras es una no-palabra (por ejemplo: ""minu"").
Pulse la tecla ESPACIO para continuar.",1,keyboardresponseNW.png,,,,,,,,,,,,,,,,,,,,,,,,,,,,,,,,,,,,,,,,,,
,,,,,,,5dfa6109534539000bdf1496,676192165fb32c2e1fb7aee6,67d17280634ceb8b71ca6843,2025-03-12_12h55.25.812,Tarea de decisión léxica,2024.2.5,Win32,20,,,160.5305,178.3451,space,17.7484,,0.822222222,0.062962963,0,0,0,0,3,3,3,1,4,instructions,"Es muy importante que responda con la mayor rapidez y precisión posibles. Si no responde dentro de 2 segundos, aparecerá el mensaje ""Muy lento"" y el experimento pasará a la siguiente palabra. Inmediatamente después de su respuesta se indicará si fue correcta o no. Los primeros 15 intentos serán de práctica y habrá dos descansos durante la prueba.

Pulse la tecla ESPACIO  para iniciar la parte de práctica.",0,keyboardresponseNW.png,,,,,,,,,,,,,,,,,,,,,,,,,,,,,,,,,,,,,,,,,,
,,,,,,,5dfa6109534539000bdf1496,676192165fb32c2e1fb7aee6,67d17280634ceb8b71ca6843,2025-03-12_12h55.25.812,Tarea de decisión léxica,2024.2.5,Win32,20,,,,,,,,,,,,,,,,,,,,,,,178.3558,180.96,,0,,-1,180.9601,181.4689,0,0,0,1,1,1002,FEM,NOWORD,DIS,150,mabo,4,el,a,,,,,,,,,,,,,,,,,,,,
,,,,,,,5dfa6109534539000bdf1496,676192165fb32c2e1fb7aee6,67d17280634ceb8b71ca6843,2025-03-12_12h55.25.812,Tarea de decisión léxica,2024.2.5,Win32,20,,,,,,,,,,,,,,,,,,,,,,,181.4697,183.2439,l,1,1.0268,1,183.2481,183.7588,0,1,1,9,1,1010,MAS,WORD,DIS,150,video,5,la,l,1.0268,,,,,,,,,,,,,,,,,,,
,,,,,,,5dfa6109534539000bdf1496,676192165fb32c2e1fb7aee6,67d17280634ceb8b71ca6843,2025-03-12_12h55.25.812,Tarea de decisión léxica,2024.2.5,Win32,20,,,,,,,,,,,,,,,,,,,,,,,183.7594,185.0576,l,1,0.5534,1,185.0577,185.5613,0,2,2,6,1,1007,MAS,WORD,DIS,150,masa,4,la,l,0.5534,,,,,,,,,,,,,,,,,,,
,,,,,,,5dfa6109534539000bdf1496,676192165fb32c2e1fb7aee6,67d17280634ceb8b71ca6843,2025-03-12_12h55.25.812,Tarea de decisión léxica,2024.2.5,Win32,20,,,,,,,,,,,,,,,,,,,,,,,185.562,187.0976,a,1,0.8072,1,187.0976,187.6106,0,3,3,0,1,1001,FEM,NOWORD,AGR,150,croz,4,la,a,0.8072,,,,,,,,,,,,,,,,,,,
,,,,,,,5dfa6109534539000bdf1496,676192165fb32c2e1fb7aee6,67d17280634ceb8b71ca6843,2025-03-12_12h55.25.812,Tarea de decisión léxica,2024.2.5,Win32,20,,,,,,,,,,,,,,,,,,,,,,,187.6113,188.9607,l,1,0.6198,1,188.9607,189.46,0,4,4,8,1,1009,FEM,WORD,AGR,150,viejo,5,la,l,0.6198,,,,,,,,,,,,,,,,,,,
,,,,,,,5dfa6109534539000bdf1496,676192165fb32c2e1fb7aee6,67d17280634ceb8b71ca6843,2025-03-12_12h55.25.812,Tarea de decisión léxica,2024.2.5,Win32,20,,,,,,,,,,,,,,,,,,,,,,,189.4606,190.956,a,1,0.7601,1,190.9561,191.4448,0,5,5,4,1,1005,MAS,NOWORD,DIS,150,nobad,5,la,a,0.7601,,,,,,,,,,,,,,,,,,,
,,,,,,,5dfa6109534539000bdf1496,676192165fb32c2e1fb7aee6,67d17280634ceb8b71ca6843,2025-03-12_12h55.25.812,Tarea de decisión léxica,2024.2.5,Win32,20,,,,,,,,,,,,,,,,,,,,,,,191.4452,192.7716,a,1,0.5694,1,192.7716,193.2676,0,6,6,3,1,1004,FEM,NOWORD,AGR,150,bireo,5,la,a,0.5694,,,,,,,,,,,,,,,,,,,
,,,,,,,5dfa6109534539000bdf1496,676192165fb32c2e1fb7aee6,67d17280634ceb8b71ca6843,2025-03-12_12h55.25.812,Tarea de decisión léxica,2024.2.5,Win32,20,,,,,,,,,,,,,,,,,,,,,,,193.2683,194.5094,l,1,0.4972,1,194.5095,194.9996,0,7,7,7,1,1008,MAS,WORD,DIS,150,frío,4,la,l,0.4972,,,,,,,,,,,,,,,,,,,
,,,,,,,5dfa6109534539000bdf1496,676192165fb32c2e1fb7aee6,67d17280634ceb8b71ca6843,2025-03-12_12h55.25.812,Tarea de decisión léxica,2024.2.5,Win32,20,,,,,,,,,,,,,,,,,,,,,,,195,196.1924,l,1,0.4518,1,196.1924,196.704,0,8,8,5,1,1006,FEM,WORD,AGR,150,cara,4,la,l,0.4518,,,,,,,,,,,,,,,,,,,
,,,,,,,5dfa6109534539000bdf1496,676192165fb32c2e1fb7aee6,67d17280634ceb8b71ca6843,2025-03-12_12h55.25.812,Tarea de decisión léxica,2024.2.5,Win32,20,,,,,,,,,,,,,,,,,,,,,,,196.7045,197.8923,a,1,0.4542,1,197.8923,198.41,0,9,9,2,1,1003,FEM,NOWORD,DIS,150,muvor,5,el,a,0.4542,,,,,,,,,,,,,,,,,,,
,,,,,,,5dfa6109534539000bdf1496,676192165fb32c2e1fb7aee6,67d17280634ceb8b71ca6843,2025-03-12_12h55.25.812,Tarea de decisión léxica,2024.2.5,Win32,20,,,202.679,213.8757,space,11.1368,,0.830555556,0.112962963,0,0,0,,,,,,,,,,,213.8954,215.2284,a,1,0.5602,1,215.2284,215.7286,,,,,,36,MAS,NOWORD,AGR,150,meno,,el,,0.5602,,215.7287,215.7313,0.830555556,0.112962963,0,0,0,,0,0,0,35,1,pelo,,,,
,,,,,,,5dfa6109534539000bdf1496,676192165fb32c2e1fb7aee6,67d17280634ceb8b71ca6843,2025-03-12_12h55.25.812,Tarea de decisión léxica,2024.2.5,Win32,20,,,,,,,,,,,,,,,,,,,,,,,215.7317,216.9034,a,1,0.4411,1,216.9034,217.4087,,,,,,56,MAS,NOWORD,AGR,150,jado,,el,,0.4411,,217.4088,217.4088,0.830555556,0.112962963,0,0,0,,0,1,1,55,1,gato,,,,
,,,,,,,5dfa6109534539000bdf1496,676192165fb32c2e1fb7aee6,67d17280634ceb8b71ca6843,2025-03-12_12h55.25.812,Tarea de decisión léxica,2024.2.5,Win32,20,,,,,,,,,,,,,,,,,,,,,,,217.4094,218.5818,a,1,0.4333,1,218.582,219.0778,,,,,,254,MAS,NOWORD,DIS,150,trido,,la,,0.4333,,219.0784,219.0793,0.830555556,0.112962963,0,0,0,,0,2,2,253,1,chico,,,,
,,,,,,,5dfa6109534539000bdf1496,676192165fb32c2e1fb7aee6,67d17280634ceb8b71ca6843,2025-03-12_12h55.25.812,Tarea de decisión léxica,2024.2.5,Win32,20,,,,,,,,,,,,,,,,,,,,,,,219.0796,220.2143,l,1,0.3609,1,220.2143,220.7057,,,,,,389,MAS,WORD,DIS,150,cerdo,,la,,0.3609,,220.7057,220.7058,0.830555556,0.112962963,0,0,0,,0,3,3,388,1,cenco,,,,
,,,,,,,5dfa6109534539000bdf1496,676192165fb32c2e1fb7aee6,67d17280634ceb8b71ca6843,2025-03-12_12h55.25.812,Tarea de decisión léxica,2024.2.5,Win32,20,,,,,,,,,,,,,,,,,,,,,,,220.7062,221.9446,a,1,0.4957,1,221.9447,222.4546,,,,,,328,MAS,NOWORD,AGR,150,lendo,,el,,0.4957,,222.4546,222.4547,0.830555556,0.112962963,0,0,0,,0,4,4,327,1,fondo,,,,
,,,,,,,5dfa6109534539000bdf1496,676192165fb32c2e1fb7aee6,67d17280634ceb8b71ca6843,2025-03-12_12h55.25.812,Tarea de decisión léxica,2024.2.5,Win32,20,,,,,,,,,,,,,,,,,,,,,,,222.4553,223.6871,a,1,0.4919,1,223.6871,224.1918,,,,,,246,FEM,NOWORD,DIS,150,pafle,,el,,0.4919,,224.1918,224.1919,0.830555556,0.112962963,0,0,0,,0,5,5,245,1,madre,,,,
,,,,,,,5dfa6109534539000bdf1496,676192165fb32c2e1fb7aee6,67d17280634ceb8b71ca6843,2025-03-12_12h55.25.812,Tarea de decisión léxica,2024.2.5,Win32,20,,,,,,,,,,,,,,,,,,,,,,,224.1925,225.5617,l,1,0.6393,1,225.5617,226.0354,,,,,,7,MAS,WORD,AGR,150,hijo,,el,,0.6393,,226.0354,226.0355,0.830555556,0.112962963,0,0,0,,0,6,6,6,1,nivo,,,,
,,,,,,,5dfa6109534539000bdf1496,676192165fb32c2e1fb7aee6,67d17280634ceb8b71ca6843,2025-03-12_12h55.25.812,Tarea de decisión léxica,2024.2.5,Win32,20,,,,,,,,,,,,,,,,,,,,,,,226.0359,227.1593,l,1,0.3674,1,227.1594,227.6585,,,,,,91,FEM,WORD,AGR,150,taza,,la,,0.3674,,227.6591,227.6599,0.830555556,0.112962963,0,0,0,,0,7,7,90,1,sava,,,,
,,,,,,,5dfa6109534539000bdf1496,676192165fb32c2e1fb7aee6,67d17280634ceb8b71ca6843,2025-03-12_12h55.25.812,Tarea de decisión léxica,2024.2.5,Win32,20,,,,,,,,,,,,,,,,,,,,,,,227.6602,228.8008,a,1,0.3814,1,228.8009,229.3022,,,,,,394,FEM,NOWORD,DIS,150,ashea,,el,,0.3814,,229.3022,229.3023,0.830555556,0.112962963,0,0,0,,0,8,8,393,1,aldea,,,,
,,,,,,,5dfa6109534539000bdf1496,676192165fb32c2e1fb7aee6,67d17280634ceb8b71ca6843,2025-03-12_12h55.25.812,Tarea de decisión léxica,2024.2.5,Win32,20,,,,,,,,,,,,,,,,,,,,,,,229.3027,230.6545,a,1,0.6168,1,230.6546,231.1566,,,,,,470,MAS,NOWORD,DIS,150,matia,,la,,0.6168,,231.1566,231.1567,0.830555556,0.112962963,0,0,0,,0,9,9,469,1,patio,,,,
,,,,,,,5dfa6109534539000bdf1496,676192165fb32c2e1fb7aee6,67d17280634ceb8b71ca6843,2025-03-12_12h55.25.812,Tarea de decisión léxica,2024.2.5,Win32,20,,,,,,,,,,,,,,,,,,,,,,,231.1572,232.1758,l,1,0.257,1,232.1758,232.6826,,,,,,77,MAS,WORD,DIS,150,loco,,la,,0.257,,232.6827,232.6827,0.830555556,0.112962963,0,0,0,,0,10,10,76,1,fodo,,,,
,,,,,,,5dfa6109534539000bdf1496,676192165fb32c2e1fb7aee6,67d17280634ceb8b71ca6843,2025-03-12_12h55.25.812,Tarea de decisión léxica,2024.2.5,Win32,20,,,,,,,,,,,,,,,,,,,,,,,232.6834,233.848,a,0,0.4254,0,233.8485,234.3496,,,,,,203,FEM,WORD,AGR,150,leña,,la,,0.4254,,234.3502,234.3509,0.830555556,0.112962963,0,0,0,,0,11,11,202,1,beja,,,,
,,,,,,,5dfa6109534539000bdf1496,676192165fb32c2e1fb7aee6,67d17280634ceb8b71ca6843,2025-03-12_12h55.25.812,Tarea de decisión léxica,2024.2.5,Win32,20,,,,,,,,,,,,,,,,,,,,,,,234.3515,235.6769,a,1,0.5797,1,235.6773,236.1781,,,,,,438,FEM,NOWORD,DIS,150,glava,,el,,0.5797,,236.1781,236.1781,0.830555556,0.112962963,0,0,0,,0,12,12,437,1,plaza,,,,
,,,,,,,5dfa6109534539000bdf1496,676192165fb32c2e1fb7aee6,67d17280634ceb8b71ca6843,2025-03-12_12h55.25.812,Tarea de decisión léxica,2024.2.5,Win32,20,,,,,,,,,,,,,,,,,,,,,,,236.1786,237.3659,l,1,0.4493,1,237.3659,237.8577,,,,,,403,FEM,WORD,AGR,150,prima,,la,,0.4493,,237.8577,237.8578,0.830555556,0.112962963,0,0,0,,0,13,13,402,1,grisa,,,,
,,,,,,,5dfa6109534539000bdf1496,676192165fb32c2e1fb7aee6,67d17280634ceb8b71ca6843,2025-03-12_12h55.25.812,Tarea de decisión léxica,2024.2.5,Win32,20,,,,,,,,,,,,,,,,,,,,,,,237.8581,239.0406,a,1,0.4364,1,239.0406,239.5434,,,,,,84,FEM,NOWORD,AGR,150,taga,,la,,0.4364,,239.5434,239.5434,0.830555556,0.112962963,0,0,0,,0,14,14,83,1,bala,,,,
,,,,,,,5dfa6109534539000bdf1496,676192165fb32c2e1fb7aee6,67d17280634ceb8b71ca6843,2025-03-12_12h55.25.812,Tarea de decisión léxica,2024.2.5,Win32,20,,,,,,,,,,,,,,,,,,,,,,,239.5441,240.6652,l,1,0.3566,1,240.6652,241.1638,,,,,,17,FEM,WORD,DIS,150,mamá,,el,,0.3566,,241.1638,241.1638,0.830555556,0.112962963,0,0,0,,0,15,15,16,1,paba,,,,
,,,,,,,5dfa6109534539000bdf1496,676192165fb32c2e1fb7aee6,67d17280634ceb8b71ca6843,2025-03-12_12h55.25.812,Tarea de decisión léxica,2024.2.5,Win32,20,,,,,,,,,,,,,,,,,,,,,,,241.1643,242.3076,a,1,0.383,1,242.3076,242.8058,,,,,,442,FEM,NOWORD,DIS,150,telza,,el,,0.383,,242.8063,242.8072,0.830555556,0.112962963,0,0,0,,0,16,16,441,1,selva,,,,
,,,,,,,5dfa6109534539000bdf1496,676192165fb32c2e1fb7aee6,67d17280634ceb8b71ca6843,2025-03-12_12h55.25.812,Tarea de decisión léxica,2024.2.5,Win32,20,,,,,,,,,,,,,,,,,,,,,,,242.8074,244.048,l,1,0.4912,1,244.048,244.5514,,,,,,277,MAS,WORD,DIS,150,fuego,,la,,0.4912,,244.5514,244.5514,0.830555556,0.112962963,0,0,0,,0,17,17,276,1,vuemo,,,,
,,,,,,,5dfa6109534539000bdf1496,676192165fb32c2e1fb7aee6,67d17280634ceb8b71ca6843,2025-03-12_12h55.25.812,Tarea de decisión léxica,2024.2.5,Win32,20,,,,,,,,,,,,,,,,,,,,,,,244.5519,245.7854,a,1,0.5007,1,245.7856,246.2792,,,,,,396,FEM,NOWORD,AGR,150,paeda,,la,,0.5007,,246.2792,246.2792,0.830555556,0.112962963,0,0,0,,0,18,18,395,1,caída,,,,
,,,,,,,5dfa6109534539000bdf1496,676192165fb32c2e1fb7aee6,67d17280634ceb8b71ca6843,2025-03-12_12h55.25.812,Tarea de decisión léxica,2024.2.5,Win32,20,,,,,,,,,,,,,,,,,,,,,,,246.2796,247.7277,a,1,0.7167,1,247.7279,248.2145,,,,,,332,MAS,NOWORD,AGR,150,erato,,el,,0.7167,,248.2145,248.2145,0.830555556,0.112962963,0,0,0,,0,19,19,331,1,éxito,,,,
,,,,,,,5dfa6109534539000bdf1496,676192165fb32c2e1fb7aee6,67d17280634ceb8b71ca6843,2025-03-12_12h55.25.812,Tarea de decisión léxica,2024.2.5,Win32,20,,,,,,,,,,,,,,,,,,,,,,,248.215,249.3884,l,1,0.4484,1,249.3884,249.8891,,,,,,451,FEM,WORD,AGR,150,fruta,,la,,0.4484,,249.8891,249.8891,0.830555556,0.112962963,0,0,0,,0,20,20,450,1,clita,,,,
,,,,,,,5dfa6109534539000bdf1496,676192165fb32c2e1fb7aee6,67d17280634ceb8b71ca6843,2025-03-12_12h55.25.812,Tarea de decisión léxica,2024.2.5,Win32,20,,,,,,,,,,,,,,,,,,,,,,,249.8896,250.9686,l,1,0.3241,1,250.9688,251.4679,,,,,,359,MAS,WORD,AGR,150,calor,,el,,0.3241,,251.4685,251.4693,0.830555556,0.112962963,0,0,0,,0,21,21,358,1,cacer,,,,
,,,,,,,5dfa6109534539000bdf1496,676192165fb32c2e1fb7aee6,67d17280634ceb8b71ca6843,2025-03-12_12h55.25.812,Tarea de decisión léxica,2024.2.5,Win32,20,,,,,,,,,,,,,,,,,,,,,,,251.4696,252.7387,a,1,0.4991,1,252.7388,253.2439,,,,,,350,MAS,NOWORD,DIS,150,cosir,,la,,0.4991,0.0001,253.2439,253.244,0.830555556,0.112962963,0,0,0,,0,22,22,349,1,color,,,,
,,,,,,,5dfa6109534539000bdf1496,676192165fb32c2e1fb7aee6,67d17280634ceb8b71ca6843,2025-03-12_12h55.25.812,Tarea de decisión léxica,2024.2.5,Win32,20,,,,,,,,,,,,,,,,,,,,,,,253.2445,254.5265,a,1,0.5552,1,254.5265,255.026,,,,,,378,MAS,NOWORD,DIS,150,gaulo,,la,,0.5552,,255.026,255.026,0.830555556,0.112962963,0,0,0,,0,23,23,377,1,hielo,,,,
,,,,,,,5dfa6109534539000bdf1496,676192165fb32c2e1fb7aee6,67d17280634ceb8b71ca6843,2025-03-12_12h55.25.812,Tarea de decisión léxica,2024.2.5,Win32,20,,,,,,,,,,,,,,,,,,,,,,,255.0265,256.2654,l,1,0.5104,1,256.2655,256.7706,,,,,,63,FEM,WORD,AGR,150,luna,,la,,0.5104,,256.7706,256.7706,0.830555556,0.112962963,0,0,0,,0,24,24,62,1,funa,,,,
,,,,,,,5dfa6109534539000bdf1496,676192165fb32c2e1fb7aee6,67d17280634ceb8b71ca6843,2025-03-12_12h55.25.812,Tarea de decisión léxica,2024.2.5,Win32,20,,,,,,,,,,,,,,,,,,,,,,,256.7712,258.0589,l,1,0.5703,1,258.0589,258.5681,,,,,,375,FEM,WORD,AGR,150,salsa,,la,,0.5703,,258.5681,258.5681,0.830555556,0.112962963,0,0,0,,0,25,25,374,1,sasna,,,,
,,,,,,,5dfa6109534539000bdf1496,676192165fb32c2e1fb7aee6,67d17280634ceb8b71ca6843,2025-03-12_12h55.25.812,Tarea de decisión léxica,2024.2.5,Win32,20,,,,,,,,,,,,,,,,,,,,,,,258.5685,259.7249,l,0,0.3925,0,259.7253,260.2148,,,,,,210,MAS,NOWORD,DIS,150,dero,,la,,0.3925,,260.2154,260.2162,0.830555556,0.112962963,0,0,0,,0,26,26,209,1,velo,,,,
,,,,,,,5dfa6109534539000bdf1496,676192165fb32c2e1fb7aee6,67d17280634ceb8b71ca6843,2025-03-12_12h55.25.812,Tarea de decisión léxica,2024.2.5,Win32,20,,,,,,,,,,,,,,,,,,,,,,,260.2164,261.4143,a,0,0.4448,0,261.4144,261.9085,,,,,,237,MAS,WORD,DIS,150,nudo,,la,,0.4448,,261.9085,261.9086,0.830555556,0.112962963,0,0,0,,0,27,27,236,1,huco,,,,
,,,,,,,5dfa6109534539000bdf1496,676192165fb32c2e1fb7aee6,67d17280634ceb8b71ca6843,2025-03-12_12h55.25.812,Tarea de decisión léxica,2024.2.5,Win32,20,,,,,,,,,,,,,,,,,,,,,,,261.909,263.4504,a,1,0.7722,1,263.4507,263.957,,,,,,54,FEM,NOWORD,DIS,150,rora,,el,,0.7722,,263.957,263.957,0.830555556,0.112962963,0,0,0,,0,28,28,53,1,boda,,,,
,,,,,,,5dfa6109534539000bdf1496,676192165fb32c2e1fb7aee6,67d17280634ceb8b71ca6843,2025-03-12_12h55.25.812,Tarea de decisión léxica,2024.2.5,Win32,20,,,,,,,,,,,,,,,,,,,,,,,263.9574,265.4785,a,1,0.7451,1,265.4785,265.9864,,,,,,400,MAS,NOWORD,AGR,150,serro,,el,,0.7451,,265.9865,265.9865,0.830555556,0.112962963,0,0,0,,0,29,29,399,1,techo,,,,
,,,,,,,5dfa6109534539000bdf1496,676192165fb32c2e1fb7aee6,67d17280634ceb8b71ca6843,2025-03-12_12h55.25.812,Tarea de decisión léxica,2024.2.5,Win32,20,,,,,,,,,,,,,,,,,,,,,,,265.987,267.1394,a,1,0.3856,1,267.1394,267.6272,,,,,,88,MAS,NOWORD,AGR,150,damo,,el,,0.3856,,267.6272,267.6272,0.830555556,0.112962963,0,0,0,,0,30,30,87,1,vaso,,,,
,,,,,,,5dfa6109534539000bdf1496,676192165fb32c2e1fb7aee6,67d17280634ceb8b71ca6843,2025-03-12_12h55.25.812,Tarea de decisión léxica,2024.2.5,Win32,20,,,,,,,,,,,,,,,,,,,,,,,267.6277,268.8341,l,1,0.4924,1,268.8342,269.3375,,,,,,369,MAS,WORD,DIS,150,ruido,,la,,0.4924,,269.338,269.3389,0.830555556,0.112962963,0,0,0,,0,31,31,368,1,rioco,,,,
,,,,,,,5dfa6109534539000bdf1496,676192165fb32c2e1fb7aee6,67d17280634ceb8b71ca6843,2025-03-12_12h55.25.812,Tarea de decisión léxica,2024.2.5,Win32,20,,,,,,,,,,,,,,,,,,,,,,,269.3391,270.527,a,1,0.4337,1,270.527,270.9868,,,,,,34,FEM,NOWORD,DIS,150,loda,,el,,0.4337,,270.9868,270.9868,0.830555556,0.112962963,0,0,0,,0,32,32,33,1,boca,,,,
,,,,,,,5dfa6109534539000bdf1496,676192165fb32c2e1fb7aee6,67d17280634ceb8b71ca6843,2025-03-12_12h55.25.812,Tarea de decisión léxica,2024.2.5,Win32,20,,,,,,,,,,,,,,,,,,,,,,,270.9872,272.1809,a,1,0.4412,1,272.1809,272.6695,,,,,,48,MAS,NOWORD,AGR,150,chub,,el,,0.4412,,272.6695,272.6696,0.830555556,0.112962963,0,0,0,,0,33,33,47,1,club,,,,
,,,,,,,5dfa6109534539000bdf1496,676192165fb32c2e1fb7aee6,67d17280634ceb8b71ca6843,2025-03-12_12h55.25.812,Tarea de decisión léxica,2024.2.5,Win32,20,,,,,,,,,,,,,,,,,,,,,,,272.67,273.837,l,1,0.4516,1,273.837,274.3369,,,,,,355,FEM,WORD,AGR,150,regla,,la,,0.4516,,274.3369,274.3369,0.830555556,0.112962963,0,0,0,,0,34,34,354,1,bepla,,,,
,,,,,,,5dfa6109534539000bdf1496,676192165fb32c2e1fb7aee6,67d17280634ceb8b71ca6843,2025-03-12_12h55.25.812,Tarea de decisión léxica,2024.2.5,Win32,20,,,,,,,,,,,,,,,,,,,,,,,274.3375,275.527,a,1,0.4272,1,275.5271,276.0132,,,,,,288,FEM,NOWORD,AGR,150,fosta,,la,,0.4272,,276.0138,276.0147,0.830555556,0.112962963,0,0,0,,0,35,35,287,1,lista,,,,
,,,,,,,5dfa6109534539000bdf1496,676192165fb32c2e1fb7aee6,67d17280634ceb8b71ca6843,2025-03-12_12h55.25.812,Tarea de decisión léxica,2024.2.5,Win32,20,,,,,,,,,,,,,,,,,,,,,,,276.015,277.1393,l,0,0.3872,0,277.1396,277.6487,,,,,,132,FEM,NOWORD,AGR,150,fada,,la,,0.3872,,277.6487,277.6487,0.830555556,0.112962963,0,0,0,,0,36,36,131,1,mina,,,,
,,,,,,,5dfa6109534539000bdf1496,676192165fb32c2e1fb7aee6,67d17280634ceb8b71ca6843,2025-03-12_12h55.25.812,Tarea de decisión léxica,2024.2.5,Win32,20,,,,,,,,,,,,,,,,,,,,,,,277.6492,279.0811,a,1,0.6903,1,279.0815,279.5896,,,,,,80,FEM,NOWORD,AGR,150,ciel,,la,,0.6903,,279.5897,279.5898,0.830555556,0.112962963,0,0,0,,0,37,37,79,1,piel,,,,
,,,,,,,5dfa6109534539000bdf1496,676192165fb32c2e1fb7aee6,67d17280634ceb8b71ca6843,2025-03-12_12h55.25.812,Tarea de decisión léxica,2024.2.5,Win32,20,,,,,,,,,,,,,,,,,,,,,,,279.5902,280.7858,a,1,0.4462,1,280.7859,281.2757,,,,,,456,MAS,NOWORD,AGR,150,riaso,,el,,0.4462,,281.2758,281.2758,0.830555556,0.112962963,0,0,0,,0,38,38,455,1,reino,,,,
,,,,,,,5dfa6109534539000bdf1496,676192165fb32c2e1fb7aee6,67d17280634ceb8b71ca6843,2025-03-12_12h55.25.812,Tarea de decisión léxica,2024.2.5,Win32,20,,,,,,,,,,,,,,,,,,,,,,,281.2762,282.5536,a,1,0.515,1,282.5537,283.0642,,,,,,216,FEM,NOWORD,AGR,150,raua,,la,,0.515,,283.0642,283.0642,0.830555556,0.112962963,0,0,0,,0,39,39,215,1,raíz,,,,
,,,,,,,5dfa6109534539000bdf1496,676192165fb32c2e1fb7aee6,67d17280634ceb8b71ca6843,2025-03-12_12h55.25.812,Tarea de decisión léxica,2024.2.5,Win32,20,,,,,,,,,,,,,,,,,,,,,,,283.0648,284.1927,a,1,0.3721,1,284.1927,284.7081,,,,,,66,MAS,NOWORD,DIS,150,nios,,la,,0.3721,,284.7086,284.7095,0.830555556,0.112962963,0,0,0,,0,40,40,65,1,dios,,,,
,,,,,,,5dfa6109534539000bdf1496,676192165fb32c2e1fb7aee6,67d17280634ceb8b71ca6843,2025-03-12_12h55.25.812,Tarea de decisión léxica,2024.2.5,Win32,20,,,,,,,,,,,,,,,,,,,,,,,284.7101,286.0455,a,1,0.6043,1,286.0455,286.5355,,,,,,178,MAS,NOWORD,DIS,150,bito,,la,,0.6043,,286.5355,286.5356,0.830555556,0.112962963,0,0,0,,0,41,41,177,1,reto,,,,
,,,,,,,5dfa6109534539000bdf1496,676192165fb32c2e1fb7aee6,67d17280634ceb8b71ca6843,2025-03-12_12h55.25.812,Tarea de decisión léxica,2024.2.5,Win32,20,,,,,,,,,,,,,,,,,,,,,,,286.5366,287.8092,a,1,0.5236,1,287.8093,288.2995,,,,,,198,MAS,NOWORD,DIS,150,dade,,la,,0.5236,,288.2995,288.2995,0.830555556,0.112962963,0,0,0,,0,42,42,197,1,bate,,,,
,,,,,,,5dfa6109534539000bdf1496,676192165fb32c2e1fb7aee6,67d17280634ceb8b71ca6843,2025-03-12_12h55.25.812,Tarea de decisión léxica,2024.2.5,Win32,20,,,,,,,,,,,,,,,,,,,,,,,288.2999,289.8037,a,1,0.7359,1,289.8038,290.2929,,,,,,92,FEM,NOWORD,AGR,150,sava,,la,,0.7359,,290.2929,290.2929,0.830555556,0.112962963,0,0,0,,0,43,43,91,1,taza,,,,
,,,,,,,5dfa6109534539000bdf1496,676192165fb32c2e1fb7aee6,67d17280634ceb8b71ca6843,2025-03-12_12h55.25.812,Tarea de decisión léxica,2024.2.5,Win32,20,,,,,,,,,,,,,,,,,,,,,,,290.2933,291.457,a,1,0.419,1,291.4571,291.9612,,,,,,376,FEM,NOWORD,AGR,150,sasna,,la,,0.419,,291.9612,291.9612,0.830555556,0.112962963,0,0,0,,0,44,44,375,1,salsa,,,,
,,,,,,,5dfa6109534539000bdf1496,676192165fb32c2e1fb7aee6,67d17280634ceb8b71ca6843,2025-03-12_12h55.25.812,Tarea de decisión léxica,2024.2.5,Win32,20,,,,,,,,,,,,,,,,,,,,,,,291.9616,293.0333,l,1,0.3295,1,293.0334,293.5257,,,,,,215,FEM,WORD,AGR,150,raíz,,la,,0.3295,,293.5262,293.527,0.830555556,0.112962963,0,0,0,,0,45,45,214,1,raua,,,,
,,,,,,,5dfa6109534539000bdf1496,676192165fb32c2e1fb7aee6,67d17280634ceb8b71ca6843,2025-03-12_12h55.25.812,Tarea de decisión léxica,2024.2.5,Win32,20,,,,,,,,,,,,,,,,,,,,,,,293.5273,294.7131,l,1,0.4337,1,294.7132,295.2229,,,,,,221,FEM,WORD,DIS,150,mula,,el,,0.4337,,295.2229,295.2229,0.830555556,0.112962963,0,0,0,,0,46,46,220,1,puca,,,,
,,,,,,,5dfa6109534539000bdf1496,676192165fb32c2e1fb7aee6,67d17280634ceb8b71ca6843,2025-03-12_12h55.25.812,Tarea de decisión léxica,2024.2.5,Win32,20,,,,,,,,,,,,,,,,,,,,,,,295.2234,296.5704,a,1,0.6061,1,296.5705,297.0742,,,,,,140,MAS,NOWORD,AGR,150,nila,,el,,0.6061,,297.0742,297.0742,0.830555556,0.112962963,0,0,0,,0,47,47,139,1,mago,,,,
,,,,,,,5dfa6109534539000bdf1496,676192165fb32c2e1fb7aee6,67d17280634ceb8b71ca6843,2025-03-12_12h55.25.812,Tarea de decisión léxica,2024.2.5,Win32,20,,,,,,,,,,,,,,,,,,,,,,,297.0747,298.2258,l,1,0.3881,1,298.2259,298.7365,,,,,,255,MAS,WORD,AGR,150,miedo,,el,,0.3881,,298.7366,298.7366,0.830555556,0.112962963,0,0,0,,0,48,48,254,1,mauco,,,,
,,,,,,,5dfa6109534539000bdf1496,676192165fb32c2e1fb7aee6,67d17280634ceb8b71ca6843,2025-03-12_12h55.25.812,Tarea de decisión léxica,2024.2.5,Win32,20,,,,,,,,,,,,,,,,,,,,,,,298.737,300.0145,a,1,0.5506,1,300.0145,300.5221,,,,,,258,FEM,NOWORD,DIS,150,asama,,el,,0.5506,,300.5222,300.5223,0.830555556,0.112962963,0,0,0,,0,49,49,257,1,amiga,,,,
,,,,,,,5dfa6109534539000bdf1496,676192165fb32c2e1fb7aee6,67d17280634ceb8b71ca6843,2025-03-12_12h55.25.812,Tarea de decisión léxica,2024.2.5,Win32,20,,,,,,,,,,,,,,,,,,,,,,,300.5227,301.9412,a,1,0.6855,1,301.9412,302.3918,,,,,,98,MAS,NOWORD,DIS,150,fopo,,la,,0.6855,,302.3923,302.3931,0.830555556,0.112962963,0,0,0,,0,50,50,97,1,mono,,,,
,,,,,,,5dfa6109534539000bdf1496,676192165fb32c2e1fb7aee6,67d17280634ceb8b71ca6843,2025-03-12_12h55.25.812,Tarea de decisión léxica,2024.2.5,Win32,20,,,,,,,,,,,,,,,,,,,,,,,302.3935,303.5769,a,0,0.4494,0,303.5773,304.0905,,,,,,235,FEM,WORD,AGR,150,grúa,,la,,0.4494,,304.0905,304.0906,0.830555556,0.112962963,0,0,0,,0,51,51,234,1,tria,,,,
,,,,,,,5dfa6109534539000bdf1496,676192165fb32c2e1fb7aee6,67d17280634ceb8b71ca6843,2025-03-12_12h55.25.812,Tarea de decisión léxica,2024.2.5,Win32,20,,,,,,,,,,,,,,,,,,,,,,,304.0911,305.2289,a,1,0.3786,1,305.2292,305.7119,,,,,,448,MAS,NOWORD,AGR,150,buaso,,el,,0.3786,,305.7119,305.712,0.830555556,0.112962963,0,0,0,,0,52,52,447,1,bolso,,,,
,,,,,,,5dfa6109534539000bdf1496,676192165fb32c2e1fb7aee6,67d17280634ceb8b71ca6843,2025-03-12_12h55.25.812,Tarea de decisión léxica,2024.2.5,Win32,20,,,,,,,,,,,,,,,,,,,,,,,305.7124,306.9112,a,1,0.4422,1,306.9113,307.3689,,,,,,244,MAS,NOWORD,AGR,150,asamo,,el,,0.4422,,307.3689,307.3689,0.830555556,0.112962963,0,0,0,,0,53,53,243,1,amigo,,,,
,,,,,,,5dfa6109534539000bdf1496,676192165fb32c2e1fb7aee6,67d17280634ceb8b71ca6843,2025-03-12_12h55.25.812,Tarea de decisión léxica,2024.2.5,Win32,20,,,,,,,,,,,,,,,,,,,,,,,307.3693,308.6682,a,1,0.5817,1,308.6683,309.1606,,,,,,302,FEM,NOWORD,DIS,150,ranga,,el,,0.5817,,309.1607,309.1607,0.830555556,0.112962963,0,0,0,,0,54,54,301,1,banda,,,,
,,,,,,,5dfa6109534539000bdf1496,676192165fb32c2e1fb7aee6,67d17280634ceb8b71ca6843,2025-03-12_12h55.25.812,Tarea de decisión léxica,2024.2.5,Win32,20,,,,,,,,,,,,,,,,,,,,,,,309.1611,310.3912,l,1,0.4824,1,310.3913,310.8432,,,,,,251,MAS,WORD,AGR,150,señor,,el,,0.4824,,310.8436,310.8444,0.830555556,0.112962963,0,0,0,,0,55,55,250,1,refor,,,,
,,,,,,,5dfa6109534539000bdf1496,676192165fb32c2e1fb7aee6,67d17280634ceb8b71ca6843,2025-03-12_12h55.25.812,Tarea de decisión léxica,2024.2.5,Win32,20,,,,,,,,,,,,,,,,,,,,,,,310.8447,312.0438,a,1,0.4573,1,312.0439,312.5568,,,,,,214,FEM,NOWORD,DIS,150,bana,,el,,0.4573,,312.5569,312.5569,0.830555556,0.112962963,0,0,0,,0,56,56,213,1,rama,,,,
,,,,,,,5dfa6109534539000bdf1496,676192165fb32c2e1fb7aee6,67d17280634ceb8b71ca6843,2025-03-12_12h55.25.812,Tarea de decisión léxica,2024.2.5,Win32,20,,,,,,,,,,,,,,,,,,,,,,,312.5573,313.7578,l,1,0.4383,1,313.7578,314.2083,,,,,,301,FEM,WORD,DIS,150,banda,,el,,0.4383,,314.2083,314.2083,0.830555556,0.112962963,0,0,0,,0,57,57,300,1,ranga,,,,
,,,,,,,5dfa6109534539000bdf1496,676192165fb32c2e1fb7aee6,67d17280634ceb8b71ca6843,2025-03-12_12h55.25.812,Tarea de decisión léxica,2024.2.5,Win32,20,,,,,,,,,,,,,,,,,,,,,,,314.2088,315.3922,l,1,0.4447,1,315.3922,315.8914,,,,,,167,FEM,WORD,AGR,150,jefa,,la,,0.4447,,315.8914,315.8914,0.830555556,0.112962963,0,0,0,,0,58,58,166,1,zifa,,,,
,,,,,,,5dfa6109534539000bdf1496,676192165fb32c2e1fb7aee6,67d17280634ceb8b71ca6843,2025-03-12_12h55.25.812,Tarea de decisión léxica,2024.2.5,Win32,20,,,,,,,,,,,,,,,,,,,,,,,315.8918,317.1586,a,1,0.5047,1,317.1586,317.673,,,,,,222,FEM,NOWORD,DIS,150,puca,,el,,0.5047,0.0001,317.6735,317.6745,0.830555556,0.112962963,0,0,0,,0,59,59,221,1,mula,,,,
,,,,,,,5dfa6109534539000bdf1496,676192165fb32c2e1fb7aee6,67d17280634ceb8b71ca6843,2025-03-12_12h55.25.812,Tarea de decisión léxica,2024.2.5,Win32,20,,,,,,,,,,,,,,,,,,,,,,,317.6748,318.7279,l,1,0.3136,1,318.728,319.2258,,,,,,293,MAS,WORD,DIS,150,campo,,la,,0.3136,,319.2258,319.2259,0.830555556,0.112962963,0,0,0,,0,60,60,292,1,cacso,,,,
,,,,,,,5dfa6109534539000bdf1496,676192165fb32c2e1fb7aee6,67d17280634ceb8b71ca6843,2025-03-12_12h55.25.812,Tarea de decisión léxica,2024.2.5,Win32,20,,,,,,,,,,,,,,,,,,,,,,,319.2263,320.252,l,1,0.3038,1,320.252,320.7534,,,,,,289,FEM,WORD,DIS,150,bomba,,el,,0.3038,,320.7534,320.7535,0.830555556,0.112962963,0,0,0,,0,61,61,288,1,bumpa,,,,
,,,,,,,5dfa6109534539000bdf1496,676192165fb32c2e1fb7aee6,67d17280634ceb8b71ca6843,2025-03-12_12h55.25.812,Tarea de decisión léxica,2024.2.5,Win32,20,,,,,,,,,,,,,,,,,,,,,,,320.754,321.8159,l,1,0.3137,1,321.8159,322.2916,,,,,,439,FEM,WORD,AGR,150,presa,,la,,0.3137,,322.2916,322.2916,0.830555556,0.112962963,0,0,0,,0,62,62,438,1,prema,,,,
,,,,,,,5dfa6109534539000bdf1496,676192165fb32c2e1fb7aee6,67d17280634ceb8b71ca6843,2025-03-12_12h55.25.812,Tarea de decisión léxica,2024.2.5,Win32,20,,,,,,,,,,,,,,,,,,,,,,,322.292,323.5052,a,1,0.4519,1,323.5052,324.0065,,,,,,220,FEM,NOWORD,AGR,150,miva,,la,,0.4519,,324.0065,324.0065,0.830555556,0.112962963,0,0,0,,0,63,63,219,1,pipa,,,,
,,,,,,,5dfa6109534539000bdf1496,676192165fb32c2e1fb7aee6,67d17280634ceb8b71ca6843,2025-03-12_12h55.25.812,Tarea de decisión léxica,2024.2.5,Win32,20,,,,,,,,,,,,,,,,,,,,,,,324.007,325.2718,a,1,0.5161,1,325.2719,325.7568,,,,,,44,FEM,NOWORD,AGR,150,meda,,la,,0.5161,,325.7572,325.7581,0.830555556,0.112962963,0,0,0,,0,64,64,43,1,pena,,,,
,,,,,,,5dfa6109534539000bdf1496,676192165fb32c2e1fb7aee6,67d17280634ceb8b71ca6843,2025-03-12_12h55.25.812,Tarea de decisión léxica,2024.2.5,Win32,20,,,,,,,,,,,,,,,,,,,,,,,325.7584,326.8909,l,0,0.3792,0,326.8913,327.4075,,,,,,304,MAS,NOWORD,AGR,150,lanco,,el,,0.3792,,327.4075,327.4076,0.830555556,0.112962963,0,0,0,,0,65,65,303,1,barco,,,,
,,,,,,,5dfa6109534539000bdf1496,676192165fb32c2e1fb7aee6,67d17280634ceb8b71ca6843,2025-03-12_12h55.25.812,Tarea de decisión léxica,2024.2.5,Win32,20,,,,,,,,,,,,,,,,,,,,,,,327.4081,328.4225,l,1,0.256,1,328.4228,328.8771,,,,,,429,FEM,WORD,DIS,150,tarta,,el,,0.256,,328.8772,328.8772,0.830555556,0.112962963,0,0,0,,0,66,66,428,1,tenta,,,,
,,,,,,,5dfa6109534539000bdf1496,676192165fb32c2e1fb7aee6,67d17280634ceb8b71ca6843,2025-03-12_12h55.25.812,Tarea de decisión léxica,2024.2.5,Win32,20,,,,,,,,,,,,,,,,,,,,,,,328.8776,330.1825,a,1,0.5653,1,330.1826,330.6592,,,,,,322,MAS,NOWORD,DIS,150,rarco,,la,,0.5653,,330.6592,330.6592,0.830555556,0.112962963,0,0,0,,0,67,67,321,1,banco,,,,
,,,,,,,5dfa6109534539000bdf1496,676192165fb32c2e1fb7aee6,67d17280634ceb8b71ca6843,2025-03-12_12h55.25.812,Tarea de decisión léxica,2024.2.5,Win32,20,,,,,,,,,,,,,,,,,,,,,,,330.6597,331.894,a,1,0.5009,1,331.894,332.3906,,,,,,6,FEM,NOWORD,DIS,150,poga,,el,,0.5009,,332.3907,332.3907,0.830555556,0.112962963,0,0,0,,0,68,68,5,1,cosa,,,,
,,,,,,,5dfa6109534539000bdf1496,676192165fb32c2e1fb7aee6,67d17280634ceb8b71ca6843,2025-03-12_12h55.25.812,Tarea de decisión léxica,2024.2.5,Win32,20,,,,,,,,,,,,,,,,,,,,,,,332.3912,333.5398,l,1,0.3949,1,333.5401,334.0411,,,,,,75,MAS,WORD,AGR,150,olor,,el,,0.3949,,334.0416,334.0424,0.830555556,0.112962963,0,0,0,,0,69,69,74,1,ocer,,,,
,,,,,,,5dfa6109534539000bdf1496,676192165fb32c2e1fb7aee6,67d17280634ceb8b71ca6843,2025-03-12_12h55.25.812,Tarea de decisión léxica,2024.2.5,Win32,20,,,,,,,,,,,,,,,,,,,,,,,334.0427,335.2504,a,1,0.4298,1,335.2505,335.7391,,,,,,312,MAS,NOWORD,AGR,150,nosor,,el,,0.4298,,335.7392,335.7392,0.830555556,0.112962963,0,0,0,,0,70,70,311,1,honor,,,,
,,,,,,,5dfa6109534539000bdf1496,676192165fb32c2e1fb7aee6,67d17280634ceb8b71ca6843,2025-03-12_12h55.25.812,Tarea de decisión léxica,2024.2.5,Win32,20,,,,,,,,,,,,,,,,,,,,,,,335.7396,336.9413,l,1,0.4447,1,336.9415,337.3917,,,,,,81,FEM,WORD,DIS,150,dama,,el,,0.4447,,337.3918,337.3918,0.830555556,0.112962963,0,0,0,,0,71,71,80,1,vasa,,,,
,,,,,,,5dfa6109534539000bdf1496,676192165fb32c2e1fb7aee6,67d17280634ceb8b71ca6843,2025-03-12_12h55.25.812,Tarea de decisión léxica,2024.2.5,Win32,20,,,,,,,,,,,,,,,,,,,,,,,337.3922,338.5875,a,1,0.4336,1,338.5876,339.0385,,,,,,262,MAS,NOWORD,DIS,150,titio,,la,,0.4336,,339.0385,339.0385,0.830555556,0.112962963,0,0,0,,0,72,72,261,1,sitio,,,,
,,,,,,,5dfa6109534539000bdf1496,676192165fb32c2e1fb7aee6,67d17280634ceb8b71ca6843,2025-03-12_12h55.25.812,Tarea de decisión léxica,2024.2.5,Win32,20,,,,,,,,,,,,,,,,,,,,,,,339.039,340.2897,a,1,0.5043,1,340.2898,340.7937,,,,,,228,MAS,NOWORD,AGR,150,laro,,el,,0.5043,,340.7938,340.7938,0.830555556,0.112962963,0,0,0,,0,73,73,227,1,faro,,,,
,,,,,,,5dfa6109534539000bdf1496,676192165fb32c2e1fb7aee6,67d17280634ceb8b71ca6843,2025-03-12_12h55.25.812,Tarea de decisión léxica,2024.2.5,Win32,20,,,,,,,,,,,,,,,,,,,,,,,340.7944,342.1723,l,0,0.6196,0,342.1726,342.6658,,,,,,250,FEM,NOWORD,DIS,150,plane,,el,,0.6196,,342.6663,342.6672,0.830555556,0.112962963,0,0,0,,0,74,74,249,1,clase,,,,
,,,,,,,5dfa6109534539000bdf1496,676192165fb32c2e1fb7aee6,67d17280634ceb8b71ca6843,2025-03-12_12h55.25.812,Tarea de decisión léxica,2024.2.5,Win32,20,,,,,,,,,,,,,,,,,,,,,,,342.6674,343.9087,l,1,0.4928,1,343.909,344.3958,,,,,,437,FEM,WORD,DIS,150,plaza,,el,,0.4928,,344.3958,344.3958,0.830555556,0.112962963,0,0,0,,0,75,75,436,1,glava,,,,
,,,,,,,5dfa6109534539000bdf1496,676192165fb32c2e1fb7aee6,67d17280634ceb8b71ca6843,2025-03-12_12h55.25.812,Tarea de decisión léxica,2024.2.5,Win32,20,,,,,,,,,,,,,,,,,,,,,,,344.3963,345.6286,l,1,0.5032,1,345.6287,346.1331,,,,,,115,FEM,WORD,AGR,150,pata,,la,,0.5032,,346.1331,346.1331,0.830555556,0.112962963,0,0,0,,0,76,76,114,1,haca,,,,
,,,,,,,5dfa6109534539000bdf1496,676192165fb32c2e1fb7aee6,67d17280634ceb8b71ca6843,2025-03-12_12h55.25.812,Tarea de decisión léxica,2024.2.5,Win32,20,,,,,,,,,,,,,,,,,,,,,,,346.1336,347.2666,l,1,0.3813,1,347.2666,347.7461,,,,,,57,MAS,WORD,DIS,150,dedo,,la,,0.3813,,347.7461,347.7462,0.830555556,0.112962963,0,0,0,,0,77,77,56,1,heco,,,,
,,,,,,,5dfa6109534539000bdf1496,676192165fb32c2e1fb7aee6,67d17280634ceb8b71ca6843,2025-03-12_12h55.25.812,Tarea de decisión léxica,2024.2.5,Win32,20,,,,,,,,,,,,,,,,,,,,,,,347.7466,348.8577,l,1,0.3827,1,348.8577,349.3597,,,,,,297,MAS,WORD,DIS,150,grupo,,la,,0.3827,,349.3597,349.3597,0.830555556,0.112962963,0,0,0,,0,78,78,296,1,brubo,,,,
,,,,,,,5dfa6109534539000bdf1496,676192165fb32c2e1fb7aee6,67d17280634ceb8b71ca6843,2025-03-12_12h55.25.812,Tarea de decisión léxica,2024.2.5,Win32,20,,,,,,,,,,,,,,,,,,,,,,,349.3602,350.481,l,1,0.3781,1,350.4811,350.9691,,,,,,3,FEM,WORD,AGR,150,vida,,la,,0.3781,,350.9696,350.9705,0.830555556,0.112962963,0,0,0,,0,79,79,2,1,dica,,,,
,,,,,,,5dfa6109534539000bdf1496,676192165fb32c2e1fb7aee6,67d17280634ceb8b71ca6843,2025-03-12_12h55.25.812,Tarea de decisión léxica,2024.2.5,Win32,20,,,,,,,,,,,,,,,,,,,,,,,350.9706,352.1583,l,1,0.443,1,352.1584,352.6696,,,,,,303,MAS,WORD,AGR,150,barco,,el,,0.443,0.0001,352.6696,352.6696,0.830555556,0.112962963,0,0,0,,0,80,80,302,1,lanco,,,,
,,,,,,,5dfa6109534539000bdf1496,676192165fb32c2e1fb7aee6,67d17280634ceb8b71ca6843,2025-03-12_12h55.25.812,Tarea de decisión léxica,2024.2.5,Win32,20,,,,,,,,,,,,,,,,,,,,,,,352.6702,353.8067,l,1,0.3921,1,353.8067,354.2955,,,,,,143,MAS,WORD,AGR,150,pavo,,el,,0.3921,,354.2955,354.2956,0.830555556,0.112962963,0,0,0,,0,81,81,142,1,pezo,,,,
,,,,,,,5dfa6109534539000bdf1496,676192165fb32c2e1fb7aee6,67d17280634ceb8b71ca6843,2025-03-12_12h55.25.812,Tarea de decisión léxica,2024.2.5,Win32,20,,,,,,,,,,,,,,,,,,,,,,,354.2959,355.4248,l,1,0.3872,1,355.4249,355.9228,,,,,,37,MAS,WORD,DIS,150,rato,,la,,0.3872,,355.9228,355.9228,0.830555556,0.112962963,0,0,0,,0,82,82,36,1,gaco,,,,
,,,,,,,5dfa6109534539000bdf1496,676192165fb32c2e1fb7aee6,67d17280634ceb8b71ca6843,2025-03-12_12h55.25.812,Tarea de decisión léxica,2024.2.5,Win32,20,,,,,,,,,,,,,,,,,,,,,,,355.9233,357.1538,a,1,0.5174,1,357.1538,357.6502,,,,,,150,MAS,NOWORD,DIS,150,pafo,,la,,0.5174,,357.6506,357.6514,0.830555556,0.112962963,0,0,0,,0,83,83,149,1,cabo,,,,
,,,,,,,5dfa6109534539000bdf1496,676192165fb32c2e1fb7aee6,67d17280634ceb8b71ca6843,2025-03-12_12h55.25.812,Tarea de decisión léxica,2024.2.5,Win32,20,,,,,,,,,,,,,,,,,,,,,,,357.6517,358.9819,a,1,0.5754,1,358.9819,359.4755,,,,,,408,FEM,NOWORD,AGR,150,cauba,,la,,0.5754,,359.4756,359.4756,0.830555556,0.112962963,0,0,0,,0,84,84,407,1,cueva,,,,
,,,,,,,5dfa6109534539000bdf1496,676192165fb32c2e1fb7aee6,67d17280634ceb8b71ca6843,2025-03-12_12h55.25.812,Tarea de decisión léxica,2024.2.5,Win32,20,,,,,,,,,,,,,,,,,,,,,,,359.4761,360.6817,a,1,0.4471,1,360.6817,361.1539,,,,,,28,MAS,NOWORD,AGR,150,ravo,,el,,0.4471,,361.154,361.154,0.830555556,0.112962963,0,0,0,,0,85,85,27,1,baño,,,,
,,,,,,,5dfa6109534539000bdf1496,676192165fb32c2e1fb7aee6,67d17280634ceb8b71ca6843,2025-03-12_12h55.25.812,Tarea de decisión léxica,2024.2.5,Win32,20,,,,,,,,,,,,,,,,,,,,,,,361.1544,362.491,a,1,0.5883,1,362.491,362.9937,,,,,,2,FEM,NOWORD,DIS,150,mada,,el,,0.5883,,362.9937,362.9937,0.830555556,0.112962963,0,0,0,,0,86,86,1,1,casa,,,,
,,,,,,,5dfa6109534539000bdf1496,676192165fb32c2e1fb7aee6,67d17280634ceb8b71ca6843,2025-03-12_12h55.25.812,Tarea de decisión léxica,2024.2.5,Win32,20,,,,,,,,,,,,,,,,,,,,,,,362.9941,364.1872,l,1,0.4503,1,364.1873,364.6779,,,,,,103,FEM,WORD,AGR,150,ruta,,la,,0.4503,,364.6779,364.6779,0.830555556,0.112962963,0,0,0,,0,87,87,102,1,rova,,,,
,,,,,,,5dfa6109534539000bdf1496,676192165fb32c2e1fb7aee6,67d17280634ceb8b71ca6843,2025-03-12_12h55.25.812,Tarea de decisión léxica,2024.2.5,Win32,20,,,,,,,,,,,,,,,,,,,,,,,364.6784,366.0573,a,1,0.6448,1,366.0573,366.5246,,,,,,202,FEM,NOWORD,DIS,150,cusa,,el,,0.6448,,366.5251,366.5259,0.830555556,0.112962963,0,0,0,,0,88,88,201,1,cuna,,,,
,,,,,,,5dfa6109534539000bdf1496,676192165fb32c2e1fb7aee6,67d17280634ceb8b71ca6843,2025-03-12_12h55.25.812,Tarea de decisión léxica,2024.2.5,Win32,20,,,,,,,,,,,,,,,,,,,,,,,366.5262,367.7745,a,1,0.5052,1,367.7745,368.2358,,,,,,190,MAS,NOWORD,DIS,150,muvo,,la,,0.5052,,368.2358,368.2359,0.830555556,0.112962963,0,0,0,,0,89,89,189,1,puño,,,,
,,,,,,,5dfa6109534539000bdf1496,676192165fb32c2e1fb7aee6,67d17280634ceb8b71ca6843,2025-03-12_12h55.25.812,Tarea de decisión léxica,2024.2.5,Win32,20,,,,,,,,,,,,,,,,,,,,,,,368.2364,369.449,a,0,0.4624,0,369.4494,369.9463,,,,,,189,MAS,WORD,DIS,150,puño,,la,,0.4624,,369.9463,369.9464,0.830555556,0.112962963,0,0,0,,0,90,90,188,1,muvo,,,,
,,,,,,,5dfa6109534539000bdf1496,676192165fb32c2e1fb7aee6,67d17280634ceb8b71ca6843,2025-03-12_12h55.25.812,Tarea de decisión léxica,2024.2.5,Win32,20,,,,,,,,,,,,,,,,,,,,,,,369.9468,371.1246,a,0,0.4543,0,371.1247,371.6182,,,,,,479,MAS,WORD,AGR,150,rumbo,,el,,0.4543,,371.6183,371.6184,0.830555556,0.112962963,0,0,0,,0,91,91,478,1,rimpo,,,,
,,,,,,,5dfa6109534539000bdf1496,676192165fb32c2e1fb7aee6,67d17280634ceb8b71ca6843,2025-03-12_12h55.25.812,Tarea de decisión léxica,2024.2.5,Win32,20,,,,,,,,,,,,,,,,,,,,,,,371.6189,372.7978,a,1,0.4282,1,372.7982,373.3073,,,,,,176,FEM,NOWORD,AGR,150,hosa,,la,,0.4282,,373.3073,373.3074,0.830555556,0.112962963,0,0,0,,0,92,92,175,1,goma,,,,
,,,,,,,5dfa6109534539000bdf1496,676192165fb32c2e1fb7aee6,67d17280634ceb8b71ca6843,2025-03-12_12h55.25.812,Tarea de decisión léxica,2024.2.5,Win32,20,,,,,,,,,,,,,,,,,,,,,,,373.3079,374.6578,a,1,0.6194,1,374.6578,375.1536,,,,,,354,FEM,NOWORD,DIS,150,cezca,,el,,0.6194,,375.154,375.1548,0.830555556,0.112962963,0,0,0,,0,93,93,353,1,celda,,,,
,,,,,,,5dfa6109534539000bdf1496,676192165fb32c2e1fb7aee6,67d17280634ceb8b71ca6843,2025-03-12_12h55.25.812,Tarea de decisión léxica,2024.2.5,Win32,20,,,,,,,,,,,,,,,,,,,,,,,375.1551,376.2625,l,1,0.3798,1,376.2626,376.7626,,,,,,455,MAS,WORD,AGR,150,reino,,el,,0.3798,,376.7626,376.7627,0.830555556,0.112962963,0,0,0,,0,94,94,454,1,riaso,,,,
,,,,,,,5dfa6109534539000bdf1496,676192165fb32c2e1fb7aee6,67d17280634ceb8b71ca6843,2025-03-12_12h55.25.812,Tarea de decisión léxica,2024.2.5,Win32,20,,,,,,,,,,,,,,,,,,,,,,,376.7631,377.8641,l,1,0.386,1,377.8641,378.3535,,,,,,65,MAS,WORD,DIS,150,dios,,la,,0.386,,378.3535,378.3535,0.830555556,0.112962963,0,0,0,,0,95,95,64,1,nios,,,,
,,,,,,,5dfa6109534539000bdf1496,676192165fb32c2e1fb7aee6,67d17280634ceb8b71ca6843,2025-03-12_12h55.25.812,Tarea de decisión léxica,2024.2.5,Win32,20,,,,,,,,,,,,,,,,,,,,,,,378.354,379.5744,a,1,0.5029,1,379.5744,380.0584,,,,,,392,MAS,NOWORD,AGR,150,dievo,,el,,0.5029,,380.0585,380.0585,0.830555556,0.112962963,0,0,0,,0,96,96,391,1,dueño,,,,
,,,,,,,5dfa6109534539000bdf1496,676192165fb32c2e1fb7aee6,67d17280634ceb8b71ca6843,2025-03-12_12h55.25.812,Tarea de decisión léxica,2024.2.5,Win32,20,,,,,,,,,,,,,,,,,,,,,,,380.0589,381.2266,a,1,0.4215,1,381.2267,381.7118,,,,,,268,MAS,NOWORD,AGR,150,figro,,el,,0.4215,,381.7118,381.7119,0.830555556,0.112962963,0,0,0,,0,97,97,267,1,libro,,,,
,,,,,,,5dfa6109534539000bdf1496,676192165fb32c2e1fb7aee6,67d17280634ceb8b71ca6843,2025-03-12_12h55.25.812,Tarea de decisión léxica,2024.2.5,Win32,20,,,,,,,,,,,,,,,,,,,,,,,381.7123,382.9102,a,1,0.4423,1,382.9103,383.4054,,,,,,466,FEM,NOWORD,DIS,150,asuba,,el,,0.4423,,383.4059,383.4067,0.830555556,0.112962963,0,0,0,,0,98,98,465,1,aguja,,,,
,,,,,,,5dfa6109534539000bdf1496,676192165fb32c2e1fb7aee6,67d17280634ceb8b71ca6843,2025-03-12_12h55.25.812,Tarea de decisión léxica,2024.2.5,Win32,20,,,,,,,,,,,,,,,,,,,,,,,383.407,384.574,a,1,0.424,1,384.5741,385.0919,,,,,,168,FEM,NOWORD,AGR,150,zifa,,la,,0.424,,385.0919,385.092,0.830555556,0.112962963,0,0,0,,0,99,99,167,1,jefa,,,,
,,,,,,,5dfa6109534539000bdf1496,676192165fb32c2e1fb7aee6,67d17280634ceb8b71ca6843,2025-03-12_12h55.25.812,Tarea de decisión léxica,2024.2.5,Win32,20,,,,,,,,,,,,,,,,,,,,,,,385.0926,386.1712,l,1,0.3742,1,386.1712,386.6764,,,,,,233,FEM,WORD,DIS,150,lana,,el,,0.3742,,386.6764,386.6765,0.830555556,0.112962963,0,0,0,,0,100,100,232,1,fasa,,,,
,,,,,,,5dfa6109534539000bdf1496,676192165fb32c2e1fb7aee6,67d17280634ceb8b71ca6843,2025-03-12_12h55.25.812,Tarea de decisión léxica,2024.2.5,Win32,20,,,,,,,,,,,,,,,,,,,,,,,386.6769,387.759,l,1,0.3228,1,387.7591,388.2624,,,,,,85,MAS,WORD,DIS,150,lago,,la,,0.3228,,388.2624,388.2625,0.830555556,0.112962963,0,0,0,,0,101,101,84,1,babo,,,,
,,,,,,,5dfa6109534539000bdf1496,676192165fb32c2e1fb7aee6,67d17280634ceb8b71ca6843,2025-03-12_12h55.25.812,Tarea de decisión léxica,2024.2.5,Win32,20,,,,,,,,,,,,,,,,,,,,,,,388.263,389.2675,l,1,0.2585,1,389.2675,389.7766,,,,,,467,MAS,WORD,AGR,150,piano,,el,,0.2585,,389.7767,389.7767,0.830555556,0.112962963,0,0,0,,0,102,102,466,1,peiso,,,,
,,,,,,,5dfa6109534539000bdf1496,676192165fb32c2e1fb7aee6,67d17280634ceb8b71ca6843,2025-03-12_12h55.25.812,Tarea de decisión léxica,2024.2.5,Win32,20,,,,,,,,,,,,,,,,,,,,,,,389.7771,391.0417,a,1,0.5211,1,391.0417,391.5181,,,,,,440,FEM,NOWORD,AGR,150,prema,,la,,0.5211,,391.5186,391.5193,0.830555556,0.112962963,0,0,0,,0,103,103,439,1,presa,,,,
,,,,,,,5dfa6109534539000bdf1496,676192165fb32c2e1fb7aee6,67d17280634ceb8b71ca6843,2025-03-12_12h55.25.812,Tarea de decisión léxica,2024.2.5,Win32,20,,,,,,,,,,,,,,,,,,,,,,,391.5197,392.704,l,1,0.4495,1,392.7041,393.2046,,,,,,43,FEM,WORD,AGR,150,pena,,la,,0.4495,,393.2046,393.2046,0.830555556,0.112962963,0,0,0,,0,104,104,42,1,meda,,,,
,,,,,,,5dfa6109534539000bdf1496,676192165fb32c2e1fb7aee6,67d17280634ceb8b71ca6843,2025-03-12_12h55.25.812,Tarea de decisión léxica,2024.2.5,Win32,20,,,,,,,,,,,,,,,,,,,,,,,393.2052,394.3038,l,1,0.3662,1,394.304,394.8108,,,,,,257,FEM,WORD,DIS,150,amiga,,el,,0.3662,,394.8108,394.8108,0.830555556,0.112962963,0,0,0,,0,105,105,256,1,asama,,,,
,,,,,,,5dfa6109534539000bdf1496,676192165fb32c2e1fb7aee6,67d17280634ceb8b71ca6843,2025-03-12_12h55.25.812,Tarea de decisión léxica,2024.2.5,Win32,20,,,,,,,,,,,,,,,,,,,,,,,394.8113,396.0462,a,1,0.4949,1,396.0462,396.543,,,,,,342,MAS,NOWORD,DIS,150,daror,,la,,0.4949,,396.543,396.5431,0.830555556,0.112962963,0,0,0,,0,106,106,341,1,valor,,,,
,,,,,,,5dfa6109534539000bdf1496,676192165fb32c2e1fb7aee6,67d17280634ceb8b71ca6843,2025-03-12_12h55.25.812,Tarea de decisión léxica,2024.2.5,Win32,20,,,,,,,,,,,,,,,,,,,,,,,396.5435,397.7052,a,1,0.3902,1,397.7053,398.1564,,,,,,364,FEM,NOWORD,AGR,150,veida,,la,,0.3902,,398.1569,398.1577,0.830555556,0.112962963,0,0,0,,0,107,107,363,1,deuda,,,,
,,,,,,,5dfa6109534539000bdf1496,676192165fb32c2e1fb7aee6,67d17280634ceb8b71ca6843,2025-03-12_12h55.25.812,Tarea de decisión léxica,2024.2.5,Win32,20,,,,,,,,,,,,,,,,,,,,,,,398.158,399.39,a,1,0.502,1,399.39,399.8949,,,,,,22,MAS,NOWORD,DIS,150,blan,,la,,0.502,,399.8949,399.8949,0.830555556,0.112962963,0,0,0,,0,108,108,21,1,plan,,,,
,,,,,,,5dfa6109534539000bdf1496,676192165fb32c2e1fb7aee6,67d17280634ceb8b71ca6843,2025-03-12_12h55.25.812,Tarea de decisión léxica,2024.2.5,Win32,20,,,,,,,,,,,,,,,,,,,,,,,399.8953,401.0216,a,1,0.3757,1,401.0217,401.5005,,,,,,62,FEM,NOWORD,DIS,150,efla,,el,,0.3757,,401.5005,401.5005,0.830555556,0.112962963,0,0,0,,0,109,109,61,1,obra,,,,
,,,,,,,5dfa6109534539000bdf1496,676192165fb32c2e1fb7aee6,67d17280634ceb8b71ca6843,2025-03-12_12h55.25.812,Tarea de decisión léxica,2024.2.5,Win32,20,,,,,,,,,,,,,,,,,,,,,,,401.501,402.6709,l,1,0.4387,1,402.671,403.152,,,,,,223,FEM,WORD,AGR,150,cera,,la,,0.4387,,403.152,403.1521,0.830555556,0.112962963,0,0,0,,0,110,110,222,1,cira,,,,
,,,,,,,5dfa6109534539000bdf1496,676192165fb32c2e1fb7aee6,67d17280634ceb8b71ca6843,2025-03-12_12h55.25.812,Tarea de decisión léxica,2024.2.5,Win32,20,,,,,,,,,,,,,,,,,,,,,,,403.1526,404.3983,a,1,0.5119,1,404.3983,404.8904,,,,,,8,MAS,NOWORD,AGR,150,nivo,,el,,0.5119,,404.8904,404.8904,0.830555556,0.112962963,0,0,0,,0,111,111,7,1,hijo,,,,
,,,,,,,5dfa6109534539000bdf1496,676192165fb32c2e1fb7aee6,67d17280634ceb8b71ca6843,2025-03-12_12h55.25.812,Tarea de decisión léxica,2024.2.5,Win32,20,,,,,,,,,,,,,,,,,,,,,,,404.8909,406.1727,a,1,0.5284,1,406.1728,406.6702,,,,,,42,FEM,NOWORD,DIS,150,haje,,el,,0.5284,,406.6707,406.6716,0.830555556,0.112962963,0,0,0,,0,112,112,41,1,nave,,,,
,,,,,,,5dfa6109534539000bdf1496,676192165fb32c2e1fb7aee6,67d17280634ceb8b71ca6843,2025-03-12_12h55.25.812,Tarea de decisión léxica,2024.2.5,Win32,20,,,,,,,,,,,,,,,,,,,,,,,406.6719,407.8753,a,1,0.4502,1,407.8753,408.3676,,,,,,308,MAS,NOWORD,AGR,150,holol,,el,,0.4502,,408.3677,408.3677,0.830555556,0.112962963,0,0,0,,0,113,113,307,1,hotel,,,,
,,,,,,,5dfa6109534539000bdf1496,676192165fb32c2e1fb7aee6,67d17280634ceb8b71ca6843,2025-03-12_12h55.25.812,Tarea de decisión léxica,2024.2.5,Win32,20,,,,,,,,,,,,,,,,,,,,,,,408.3681,409.6345,l,1,0.5009,1,409.6346,410.1078,,,,,,263,FEM,WORD,AGR,150,vista,,la,,0.5009,,410.1079,410.1079,0.830555556,0.112962963,0,0,0,,0,114,114,262,1,dosta,,,,
,,,,,,,5dfa6109534539000bdf1496,676192165fb32c2e1fb7aee6,67d17280634ceb8b71ca6843,2025-03-12_12h55.25.812,Tarea de decisión léxica,2024.2.5,Win32,20,,,,,,,,,,,,,,,,,,,,,,,410.1084,411.6345,l,1,0.7651,1,411.6345,412.1255,,,,,,405,FEM,WORD,DIS,150,barra,,el,,0.7651,,412.1255,412.1256,0.830555556,0.112962963,0,0,0,,0,115,115,404,1,rarra,,,,
,,,,,,,5dfa6109534539000bdf1496,676192165fb32c2e1fb7aee6,67d17280634ceb8b71ca6843,2025-03-12_12h55.25.812,Tarea de decisión léxica,2024.2.5,Win32,20,,,,,,,,,,,,,,,,,,,,,,,412.126,413.3741,l,1,0.5035,1,413.3741,413.8535,,,,,,299,FEM,WORD,AGR,150,bolsa,,la,,0.5035,,413.8535,413.8536,0.830555556,0.112962963,0,0,0,,0,116,116,298,1,bosga,,,,
,,,,,,,5dfa6109534539000bdf1496,676192165fb32c2e1fb7aee6,67d17280634ceb8b71ca6843,2025-03-12_12h55.25.812,Tarea de decisión léxica,2024.2.5,Win32,20,,,,,,,,,,,,,,,,,,,,,,,413.854,414.9487,l,1,0.3393,1,414.9488,415.4319,,,,,,329,MAS,WORD,DIS,150,hueso,,la,,0.3393,0.0002,415.4324,415.4333,0.830555556,0.112962963,0,0,0,,0,117,117,328,1,nueno,,,,
,,,,,,,5dfa6109534539000bdf1496,676192165fb32c2e1fb7aee6,67d17280634ceb8b71ca6843,2025-03-12_12h55.25.812,Tarea de decisión léxica,2024.2.5,Win32,20,,,,,,,,,,,,,,,,,,,,,,,415.4338,416.6901,l,1,0.5081,1,416.6902,417.1724,,,,,,245,FEM,WORD,DIS,150,madre,,el,,0.5081,,417.1724,417.1725,0.830555556,0.112962963,0,0,0,,0,118,118,244,1,pafle,,,,
,,,,,,,5dfa6109534539000bdf1496,676192165fb32c2e1fb7aee6,67d17280634ceb8b71ca6843,2025-03-12_12h55.25.812,Tarea de decisión léxica,2024.2.5,Win32,20,,,,,,,,,,,,,,,,,,,,,,,417.1729,418.2899,l,1,0.3714,1,418.2899,418.791,,,,,,13,FEM,WORD,DIS,150,hora,,el,,0.3714,,418.791,418.791,0.830555556,0.112962963,0,0,0,,0,119,119,12,1,nola,,,,
,,,,,,,5dfa6109534539000bdf1496,676192165fb32c2e1fb7aee6,67d17280634ceb8b71ca6843,2025-03-12_12h55.25.812,Tarea de decisión léxica,2024.2.5,Win32,20,,,,,,,,,,,,,,,,,,,,,,,418.7915,419.9137,a,1,0.3916,1,419.9138,420.4116,,,,,,280,FEM,NOWORD,AGR,150,grina,,la,,0.3916,,420.4117,420.4117,0.830555556,0.112962963,0,0,0,,0,120,120,279,1,prisa,,,,
,,,,,,,5dfa6109534539000bdf1496,676192165fb32c2e1fb7aee6,67d17280634ceb8b71ca6843,2025-03-12_12h55.25.812,Tarea de decisión léxica,2024.2.5,Win32,20,,,,,,,,,,,,,,,,,,,,,,,420.4121,421.7138,l,1,0.5565,1,421.7139,422.207,,,,,,61,FEM,WORD,DIS,150,obra,,el,,0.5565,,422.207,422.2071,0.830555556,0.112962963,0,0,0,,0,121,121,60,1,efla,,,,
,,,,,,,5dfa6109534539000bdf1496,676192165fb32c2e1fb7aee6,67d17280634ceb8b71ca6843,2025-03-12_12h55.25.812,Tarea de decisión léxica,2024.2.5,Win32,20,,,,,,,,,,,,,,,,,,,,,,,422.2075,423.4408,a,1,0.4937,1,423.4409,423.9262,,,,,,452,FEM,NOWORD,AGR,150,clita,,la,,0.4937,,423.9267,423.9276,0.830555556,0.112962963,0,0,0,,0,122,122,451,1,fruta,,,,
,,,,,,,5dfa6109534539000bdf1496,676192165fb32c2e1fb7aee6,67d17280634ceb8b71ca6843,2025-03-12_12h55.25.812,Tarea de decisión léxica,2024.2.5,Win32,20,,,,,,,,,,,,,,,,,,,,,,,423.9278,425.1382,a,1,0.4543,1,425.1383,425.642,,,,,,158,MAS,NOWORD,DIS,150,hico,,la,,0.4543,,425.642,425.6421,0.830555556,0.112962963,0,0,0,,0,123,123,157,1,nido,,,,
,,,,,,,5dfa6109534539000bdf1496,676192165fb32c2e1fb7aee6,67d17280634ceb8b71ca6843,2025-03-12_12h55.25.812,Tarea de decisión léxica,2024.2.5,Win32,20,,,,,,,,,,,,,,,,,,,,,,,425.6431,426.8208,a,1,0.457,1,426.8209,427.3203,,,,,,434,MAS,NOWORD,DIS,150,durco,,la,,0.457,,427.3203,427.3203,0.830555556,0.112962963,0,0,0,,0,124,124,433,1,disco,,,,
,,,,,,,5dfa6109534539000bdf1496,676192165fb32c2e1fb7aee6,67d17280634ceb8b71ca6843,2025-03-12_12h55.25.812,Tarea de decisión léxica,2024.2.5,Win32,20,,,,,,,,,,,,,,,,,,,,,,,427.3208,428.4272,a,1,0.3759,1,428.4272,428.9337,,,,,,462,FEM,NOWORD,DIS,150,pagra,,el,,0.3759,,428.9337,428.9338,0.830555556,0.112962963,0,0,0,,0,125,125,461,1,tabla,,,,
,,,,,,,5dfa6109534539000bdf1496,676192165fb32c2e1fb7aee6,67d17280634ceb8b71ca6843,2025-03-12_12h55.25.812,Tarea de decisión léxica,2024.2.5,Win32,20,,,,,,,,,,,,,,,,,,,,,,,428.9342,430.058,l,1,0.3831,1,430.0581,430.5434,,,,,,287,FEM,WORD,AGR,150,lista,,la,,0.3831,,430.5434,430.5435,0.830555556,0.112962963,0,0,0,,0,126,126,286,1,fosta,,,,
,,,,,,,5dfa6109534539000bdf1496,676192165fb32c2e1fb7aee6,67d17280634ceb8b71ca6843,2025-03-12_12h55.25.812,Tarea de decisión léxica,2024.2.5,Win32,20,,,,,,,,,,,,,,,,,,,,,,,430.5439,431.6097,l,1,0.3203,1,431.6101,432.1235,,,,,,345,FEM,WORD,DIS,150,arena,,el,,0.3203,,432.124,432.1248,0.830555556,0.112962963,0,0,0,,0,127,127,344,1,anera,,,,
,,,,,,,5dfa6109534539000bdf1496,676192165fb32c2e1fb7aee6,67d17280634ceb8b71ca6843,2025-03-12_12h55.25.812,Tarea de decisión léxica,2024.2.5,Win32,20,,,,,,,,,,,,,,,,,,,,,,,432.1251,433.3038,l,1,0.4367,1,433.3039,433.7953,,,,,,83,FEM,WORD,AGR,150,bala,,la,,0.4367,,433.7953,433.7953,0.830555556,0.112962963,0,0,0,,0,128,128,82,1,taga,,,,
,,,,,,,5dfa6109534539000bdf1496,676192165fb32c2e1fb7aee6,67d17280634ceb8b71ca6843,2025-03-12_12h55.25.812,Tarea de decisión léxica,2024.2.5,Win32,20,,,,,,,,,,,,,,,,,,,,,,,433.7959,434.9738,l,0,0.4459,0,434.9741,435.4737,,,,,,112,MAS,NOWORD,AGR,150,siro,,el,,0.4459,,435.4737,435.4738,0.830555556,0.112962963,0,0,0,,0,129,129,111,1,muro,,,,
,,,,,,,5dfa6109534539000bdf1496,676192165fb32c2e1fb7aee6,67d17280634ceb8b71ca6843,2025-03-12_12h55.25.812,Tarea de decisión léxica,2024.2.5,Win32,20,,,,,,,,,,,,,,,,,,,,,,,435.4742,436.5657,l,1,0.3465,1,436.566,437.0606,,,,,,415,FEM,WORD,AGR,150,jaula,,la,,0.3465,,437.0606,437.0606,0.830555556,0.112962963,0,0,0,,0,130,130,414,1,juira,,,,
,,,,,,,5dfa6109534539000bdf1496,676192165fb32c2e1fb7aee6,67d17280634ceb8b71ca6843,2025-03-12_12h55.25.812,Tarea de decisión léxica,2024.2.5,Win32,20,,,,,,,,,,,,,,,,,,,,,,,437.0611,438.2402,l,1,0.4372,1,438.2402,438.7356,,,,,,465,FEM,WORD,DIS,150,aguja,,el,,0.4372,,438.736,438.7368,0.830555556,0.112962963,0,0,0,,0,131,131,464,1,asuba,,,,
,,,,,,,5dfa6109534539000bdf1496,676192165fb32c2e1fb7aee6,67d17280634ceb8b71ca6843,2025-03-12_12h55.25.812,Tarea de decisión léxica,2024.2.5,Win32,20,,,,,,,,,,,,,,,,,,,,,,,438.7371,439.8714,l,1,0.3896,1,439.8715,440.3503,,,,,,101,MAS,WORD,DIS,150,tono,,la,,0.3896,,440.3503,440.3503,0.830555556,0.112962963,0,0,0,,0,132,132,100,1,gito,,,,
,,,,,,,5dfa6109534539000bdf1496,676192165fb32c2e1fb7aee6,67d17280634ceb8b71ca6843,2025-03-12_12h55.25.812,Tarea de decisión léxica,2024.2.5,Win32,20,,,,,,,,,,,,,,,,,,,,,,,440.3508,441.6872,a,1,0.6159,1,441.6872,442.1379,,,,,,388,FEM,NOWORD,AGR,150,bresa,,la,,0.6159,,442.1379,442.1379,0.830555556,0.112962963,0,0,0,,0,133,133,387,1,crema,,,,
,,,,,,,5dfa6109534539000bdf1496,676192165fb32c2e1fb7aee6,67d17280634ceb8b71ca6843,2025-03-12_12h55.25.812,Tarea de decisión léxica,2024.2.5,Win32,20,,,,,,,,,,,,,,,,,,,,,,,442.1383,443.268,a,1,0.3859,1,443.2681,443.7744,,,,,,204,FEM,NOWORD,AGR,150,beja,,la,,0.3859,,443.7744,443.7745,0.830555556,0.112962963,0,0,0,,0,134,134,203,1,leña,,,,
,,,,,,,5dfa6109534539000bdf1496,676192165fb32c2e1fb7aee6,67d17280634ceb8b71ca6843,2025-03-12_12h55.25.812,Tarea de decisión léxica,2024.2.5,Win32,20,,,,,,,,,,,,,,,,,,,,,,,443.7748,444.9311,a,1,0.4417,1,444.9312,445.4271,,,,,,230,MAS,NOWORD,DIS,150,ador,,la,,0.4417,,445.4271,445.4271,0.830555556,0.112962963,0,0,0,,0,135,135,229,1,amor,,,,
,,,,,,,5dfa6109534539000bdf1496,676192165fb32c2e1fb7aee6,67d17280634ceb8b71ca6843,2025-03-12_12h55.25.812,Tarea de decisión léxica,2024.2.5,Win32,20,,,,,,,,,,,,,,,,,,,,,,,445.4276,446.5805,a,1,0.4085,1,446.5806,447.1052,,,,,,16,FEM,NOWORD,AGR,150,odea,,la,,0.4085,,447.1056,447.1064,0.830555556,0.112962963,0,0,0,,0,136,136,15,1,idea,,,,
,,,,,,,5dfa6109534539000bdf1496,676192165fb32c2e1fb7aee6,67d17280634ceb8b71ca6843,2025-03-12_12h55.25.812,Tarea de decisión léxica,2024.2.5,Win32,20,,,,,,,,,,,,,,,,,,,,,,,447.1068,448.3574,l,1,0.501,1,448.3575,448.8186,,,,,,325,FEM,WORD,DIS,150,magia,,el,,0.501,,448.8187,448.8187,0.830555556,0.112962963,0,0,0,,0,137,137,324,1,mabia,,,,
,,,,,,,5dfa6109534539000bdf1496,676192165fb32c2e1fb7aee6,67d17280634ceb8b71ca6843,2025-03-12_12h55.25.812,Tarea de decisión léxica,2024.2.5,Win32,20,,,,,,,,,,,,,,,,,,,,,,,448.8191,450.0707,a,1,0.4832,1,450.0707,450.5619,,,,,,72,FEM,NOWORD,AGR,150,urla,,la,,0.4832,,450.562,450.5621,0.830555556,0.112962963,0,0,0,,0,138,138,71,1,isla,,,,
,,,,,,,5dfa6109534539000bdf1496,676192165fb32c2e1fb7aee6,67d17280634ceb8b71ca6843,2025-03-12_12h55.25.812,Tarea de decisión léxica,2024.2.5,Win32,20,,,,,,,,,,,,,,,,,,,,,,,450.5625,451.7054,l,1,0.3764,1,451.7055,452.1578,,,,,,131,FEM,WORD,AGR,150,mina,,la,,0.3764,,452.1578,452.1578,0.830555556,0.112962963,0,0,0,,0,139,139,130,1,fada,,,,
,,,,,,,5dfa6109534539000bdf1496,676192165fb32c2e1fb7aee6,67d17280634ceb8b71ca6843,2025-03-12_12h55.25.812,Tarea de decisión léxica,2024.2.5,Win32,20,,,,,,,,,,,,,,,,,,,,,,,452.1586,454.3244,l,1,1.3887,1,454.3245,454.8289,,,,,,133,FEM,WORD,DIS,150,vaca,,el,,1.3887,0,454.8289,454.8289,0.830555556,0.112962963,0,0,0,,0,140,140,132,1,vesa,,,,
,,,,,,,5dfa6109534539000bdf1496,676192165fb32c2e1fb7aee6,67d17280634ceb8b71ca6843,2025-03-12_12h55.25.812,Tarea de decisión léxica,2024.2.5,Win32,20,,,,,,,,,,,,,,,,,,,,,,,454.8294,456.2046,l,1,0.6262,1,456.2046,456.7025,,,,,,117,MAS,WORD,DIS,150,palo,,la,,0.6262,,456.703,456.704,0.830555556,0.112962963,0,0,0,,0,141,141,116,1,movo,,,,
,,,,,,,5dfa6109534539000bdf1496,676192165fb32c2e1fb7aee6,67d17280634ceb8b71ca6843,2025-03-12_12h55.25.812,Tarea de decisión léxica,2024.2.5,Win32,20,,,,,,,,,,,,,,,,,,,,,,,456.7043,458.323,a,1,0.8733,1,458.3232,458.7742,,,,,,480,MAS,NOWORD,AGR,150,rimpo,,el,,0.8733,,458.7743,458.7743,0.830555556,0.112962963,0,0,0,,0,142,142,479,1,rumbo,,,,
,,,,,,,5dfa6109534539000bdf1496,676192165fb32c2e1fb7aee6,67d17280634ceb8b71ca6843,2025-03-12_12h55.25.812,Tarea de decisión léxica,2024.2.5,Win32,20,,,,,,,,,,,,,,,,,,,,,,,458.7747,460.2932,a,1,0.7691,1,460.2932,460.7889,,,,,,432,MAS,NOWORD,AGR,150,tetor,,el,,0.7691,,460.789,460.789,0.830555556,0.112962963,0,0,0,,0,143,143,431,1,motor,,,,
,,,,,,,5dfa6109534539000bdf1496,676192165fb32c2e1fb7aee6,67d17280634ceb8b71ca6843,2025-03-12_12h55.25.812,Tarea de decisión léxica,2024.2.5,Win32,20,,,,,,,,,,,,,,,,,,,,,,,460.7897,462.0613,a,1,0.5092,1,462.0614,462.5547,,,,,,120,MAS,NOWORD,AGR,150,hooy,,el,,0.5092,,462.5548,462.5548,0.830555556,0.112962963,0,0,0,,0,144,144,119,1,pozo,,,,
,,,,,,,5dfa6109534539000bdf1496,676192165fb32c2e1fb7aee6,67d17280634ceb8b71ca6843,2025-03-12_12h55.25.812,Tarea de decisión léxica,2024.2.5,Win32,20,,,,,,,,,,,,,,,,,,,,,,,462.5552,463.6327,a,0,0.3112,0,463.6333,464.1435,,,,,,453,FEM,WORD,DIS,150,mafia,,el,,0.3112,,464.1435,464.1436,0.830555556,0.112962963,0,0,0,,0,145,145,452,1,pafia,,,,
,,,,,,,5dfa6109534539000bdf1496,676192165fb32c2e1fb7aee6,67d17280634ceb8b71ca6843,2025-03-12_12h55.25.812,Tarea de decisión léxica,2024.2.5,Win32,20,,,,,,,,,,,,,,,,,,,,,,,464.1441,465.3865,a,1,0.5203,1,465.3867,465.8906,,,,,,102,MAS,NOWORD,DIS,150,gito,,la,,0.5203,,465.8911,465.8919,0.830555556,0.112962963,0,0,0,,0,146,146,101,1,tono,,,,
,,,,,,,5dfa6109534539000bdf1496,676192165fb32c2e1fb7aee6,67d17280634ceb8b71ca6843,2025-03-12_12h55.25.812,Tarea de decisión léxica,2024.2.5,Win32,20,,,,,,,,,,,,,,,,,,,,,,,465.8921,467.2742,a,1,0.6208,1,467.2743,467.7867,,,,,,276,MAS,NOWORD,AGR,150,musto,,el,,0.6208,,467.7867,467.7867,0.830555556,0.112962963,0,0,0,,0,147,147,275,1,punto,,,,
,,,,,,,5dfa6109534539000bdf1496,676192165fb32c2e1fb7aee6,67d17280634ceb8b71ca6843,2025-03-12_12h55.25.812,Tarea de decisión léxica,2024.2.5,Win32,20,,,,,,,,,,,,,,,,,,,,,,,467.7873,469.274,a,0,0.759,0,469.2744,469.7711,,,,,,9,MAS,WORD,DIS,150,tipo,,la,,0.759,,469.7711,469.7712,0.830555556,0.112962963,0,0,0,,0,148,148,8,1,sibo,,,,
,,,,,,,5dfa6109534539000bdf1496,676192165fb32c2e1fb7aee6,67d17280634ceb8b71ca6843,2025-03-12_12h55.25.812,Tarea de decisión léxica,2024.2.5,Win32,20,,,,,,,,,,,,,,,,,,,,,,,469.7717,470.9712,a,1,0.4471,1,470.9715,471.4748,,,,,,110,MAS,NOWORD,DIS,150,suno,,la,,0.4471,,471.4749,471.4749,0.830555556,0.112962963,0,0,0,,0,149,149,109,1,rayo,,,,
,,,,,,,5dfa6109534539000bdf1496,676192165fb32c2e1fb7aee6,67d17280634ceb8b71ca6843,2025-03-12_12h55.25.812,Tarea de decisión léxica,2024.2.5,Win32,20,,,,,,,,,,,,,,,,,,,,,,,471.4753,472.5907,a,1,0.3866,1,472.5908,473.1043,,,,,,10,MAS,NOWORD,DIS,150,sibo,,la,,0.3866,,473.1044,473.1044,0.830555556,0.112962963,0,0,0,,0,150,150,9,1,tipo,,,,
,,,,,,,5dfa6109534539000bdf1496,676192165fb32c2e1fb7aee6,67d17280634ceb8b71ca6843,2025-03-12_12h55.25.812,Tarea de decisión léxica,2024.2.5,Win32,20,,,,,,,,,,,,,,,,,,,,,,,473.1048,474.2752,l,1,0.4359,1,474.2752,474.7576,,,,,,317,FEM,WORD,DIS,150,playa,,el,,0.4359,,474.758,474.7589,0.830555556,0.112962963,0,0,0,,0,151,151,316,1,plaad,,,,
,,,,,,,5dfa6109534539000bdf1496,676192165fb32c2e1fb7aee6,67d17280634ceb8b71ca6843,2025-03-12_12h55.25.812,Tarea de decisión léxica,2024.2.5,Win32,20,,,,,,,,,,,,,,,,,,,,,,,474.7591,475.8311,l,1,0.3168,1,475.8311,476.3443,,,,,,99,MAS,WORD,AGR,150,lobo,,el,,0.3168,,476.3444,476.3444,0.830555556,0.112962963,0,0,0,,0,152,152,98,1,soro,,,,
,,,,,,,5dfa6109534539000bdf1496,676192165fb32c2e1fb7aee6,67d17280634ceb8b71ca6843,2025-03-12_12h55.25.812,Tarea de decisión léxica,2024.2.5,Win32,20,,,,,,,,,,,,,,,,,,,,,,,476.3448,477.463,l,1,0.3593,1,477.463,477.9696,,,,,,457,MAS,WORD,DIS,150,plato,,la,,0.3593,,477.9696,477.9696,0.830555556,0.112962963,0,0,0,,0,153,153,456,1,glaco,,,,
,,,,,,,5dfa6109534539000bdf1496,676192165fb32c2e1fb7aee6,67d17280634ceb8b71ca6843,2025-03-12_12h55.25.812,Tarea de decisión léxica,2024.2.5,Win32,20,,,,,,,,,,,,,,,,,,,,,,,477.9701,479.1688,a,1,0.4821,1,479.1688,479.6693,,,,,,172,MAS,NOWORD,AGR,150,niro,,el,,0.4821,,479.6694,479.6695,0.830555556,0.112962963,0,0,0,,0,154,154,171,1,hilo,,,,
,,,,,,,5dfa6109534539000bdf1496,676192165fb32c2e1fb7aee6,67d17280634ceb8b71ca6843,2025-03-12_12h55.25.812,Tarea de decisión léxica,2024.2.5,Win32,20,,,,,,,,,,,,,,,,,,,,,,,479.6699,480.8735,a,1,0.4966,1,480.8735,481.3582,,,,,,386,FEM,NOWORD,DIS,150,febra,,el,,0.4966,,481.3586,481.3595,0.830555556,0.112962963,0,0,0,,0,155,155,385,1,letra,,,,
,,,,,,,5dfa6109534539000bdf1496,676192165fb32c2e1fb7aee6,67d17280634ceb8b71ca6843,2025-03-12_12h55.25.812,Tarea de decisión léxica,2024.2.5,Win32,20,,,,,,,,,,,,,,,,,,,,,,,481.3598,482.608,l,1,0.5037,1,482.608,483.0582,,,,,,137,MAS,WORD,DIS,150,nene,,la,,0.5037,,483.0582,483.0583,0.830555556,0.112962963,0,0,0,,0,156,156,136,1,pamo,,,,
,,,,,,,5dfa6109534539000bdf1496,676192165fb32c2e1fb7aee6,67d17280634ceb8b71ca6843,2025-03-12_12h55.25.812,Tarea de decisión léxica,2024.2.5,Win32,20,,,,,,,,,,,,,,,,,,,,,,,483.0587,484.2407,l,1,0.4313,1,484.2407,484.7406,,,,,,351,MAS,WORD,AGR,150,vuelo,,el,,0.4313,,484.7406,484.7407,0.830555556,0.112962963,0,0,0,,0,157,157,350,1,duepo,,,,
,,,,,,,5dfa6109534539000bdf1496,676192165fb32c2e1fb7aee6,67d17280634ceb8b71ca6843,2025-03-12_12h55.25.812,Tarea de decisión léxica,2024.2.5,Win32,20,,,,,,,,,,,,,,,,,,,,,,,484.7412,486.0492,l,1,0.5584,1,486.0492,486.5575,,,,,,149,MAS,WORD,DIS,150,cabo,,la,,0.5584,,486.5575,486.5575,0.830555556,0.112962963,0,0,0,,0,158,158,148,1,pafo,,,,
,,,,,,,5dfa6109534539000bdf1496,676192165fb32c2e1fb7aee6,67d17280634ceb8b71ca6843,2025-03-12_12h55.25.812,Tarea de decisión léxica,2024.2.5,Win32,20,,,,,,,,,,,,,,,,,,,,,,,486.558,488.0925,a,1,0.7932,1,488.0925,488.5687,,,,,,464,FEM,NOWORD,AGR,150,matla,,la,,0.7932,,488.5687,488.5687,0.830555556,0.112962963,0,0,0,,0,159,159,463,1,cabra,,,,
,,,,,,,5dfa6109534539000bdf1496,676192165fb32c2e1fb7aee6,67d17280634ceb8b71ca6843,2025-03-12_12h55.25.812,Tarea de decisión léxica,2024.2.5,Win32,20,,,,,,,,,,,,,,,,,,,,,,,488.5691,489.8501,l,1,0.5478,1,489.8502,490.354,,,,,,35,MAS,WORD,AGR,150,pelo,,el,,0.5478,,490.3545,499.8743,0.830555556,0.112962963,0,0,0,space,0,160,160,34,1,meno,9.4559,,,
,,,,,,,5dfa6109534539000bdf1496,676192165fb32c2e1fb7aee6,67d17280634ceb8b71ca6843,2025-03-12_12h55.25.812,Tarea de decisión léxica,2024.2.5,Win32,20,,,,,,,,,,,,,,,,,,,,,,,499.8747,502.1819,l,1,1.5701,1,502.1819,502.6907,,,,,,95,FEM,WORD,AGR,151,moda,,la,,1.5701,,502.6907,502.6907,0.830555556,0.112962963,0,0,0,,0,161,161,94,1,neda,,,,
,,,,,,,5dfa6109534539000bdf1496,676192165fb32c2e1fb7aee6,67d17280634ceb8b71ca6843,2025-03-12_12h55.25.812,Tarea de decisión léxica,2024.2.5,Win32,20,,,,,,,,,,,,,,,,,,,,,,,502.6912,503.859,l,1,0.4248,1,503.859,504.3683,,,,,,173,FEM,WORD,DIS,150,rosa,,el,,0.4248,,504.3683,504.3683,0.830555556,0.112962963,0,0,0,,0,162,162,172,1,boma,,,,
,,,,,,,5dfa6109534539000bdf1496,676192165fb32c2e1fb7aee6,67d17280634ceb8b71ca6843,2025-03-12_12h55.25.812,Tarea de decisión léxica,2024.2.5,Win32,20,,,,,,,,,,,,,,,,,,,,,,,504.3689,505.4373,a,1,0.3298,1,505.4374,505.9457,,,,,,410,MAS,NOWORD,DIS,150,pafro,,la,,0.3298,,505.9457,505.9457,0.830555556,0.112962963,0,0,0,,0,163,163,409,1,carro,,,,
,,,,,,,5dfa6109534539000bdf1496,676192165fb32c2e1fb7aee6,67d17280634ceb8b71ca6843,2025-03-12_12h55.25.812,Tarea de decisión léxica,2024.2.5,Win32,20,,,,,,,,,,,,,,,,,,,,,,,505.9462,507.1742,a,1,0.4908,1,507.1742,507.6637,,,,,,278,MAS,NOWORD,DIS,150,vuemo,,la,,0.4908,0,507.6637,507.6637,0.830555556,0.112962963,0,0,0,,0,164,164,277,1,fuego,,,,
,,,,,,,5dfa6109534539000bdf1496,676192165fb32c2e1fb7aee6,67d17280634ceb8b71ca6843,2025-03-12_12h55.25.812,Tarea de decisión léxica,2024.2.5,Win32,20,,,,,,,,,,,,,,,,,,,,,,,507.6643,508.857,l,1,0.43,1,508.8571,509.3578,,,,,,227,MAS,WORD,AGR,150,faro,,el,,0.43,,509.3582,509.3592,0.830555556,0.112962963,0,0,0,,0,165,165,226,1,laro,,,,
,,,,,,,5dfa6109534539000bdf1496,676192165fb32c2e1fb7aee6,67d17280634ceb8b71ca6843,2025-03-12_12h55.25.812,Tarea de decisión léxica,2024.2.5,Win32,20,,,,,,,,,,,,,,,,,,,,,,,509.3594,510.5038,l,0,0.3955,0,510.5041,511.0052,,,,,,324,FEM,NOWORD,AGR,150,certa,,la,,0.3955,,511.0053,511.0053,0.830555556,0.112962963,0,0,0,,0,166,166,323,1,cinta,,,,
,,,,,,,5dfa6109534539000bdf1496,676192165fb32c2e1fb7aee6,67d17280634ceb8b71ca6843,2025-03-12_12h55.25.812,Tarea de decisión léxica,2024.2.5,Win32,20,,,,,,,,,,,,,,,,,,,,,,,511.0058,512.1922,l,1,0.4489,1,512.1926,512.6881,,,,,,401,MAS,WORD,DIS,150,polvo,,la,,0.4489,,512.6881,512.6881,0.830555556,0.112962963,0,0,0,,0,167,167,400,1,pirvo,,,,
,,,,,,,5dfa6109534539000bdf1496,676192165fb32c2e1fb7aee6,67d17280634ceb8b71ca6843,2025-03-12_12h55.25.812,Tarea de decisión léxica,2024.2.5,Win32,20,,,,,,,,,,,,,,,,,,,,,,,512.6886,513.8313,a,1,0.3839,1,513.8313,514.3325,,,,,,362,FEM,NOWORD,DIS,150,solle,,el,,0.3839,,514.3326,514.3326,0.830555556,0.112962963,0,0,0,,0,168,168,361,1,torre,,,,
,,,,,,,5dfa6109534539000bdf1496,676192165fb32c2e1fb7aee6,67d17280634ceb8b71ca6843,2025-03-12_12h55.25.812,Tarea de decisión léxica,2024.2.5,Win32,20,,,,,,,,,,,,,,,,,,,,,,,514.333,515.4744,l,1,0.3752,1,515.4745,515.9755,,,,,,67,FEM,WORD,AGR,150,nena,,la,,0.3752,,515.9755,515.9755,0.830555556,0.112962963,0,0,0,,0,169,169,66,1,gesa,,,,
,,,,,,,5dfa6109534539000bdf1496,676192165fb32c2e1fb7aee6,67d17280634ceb8b71ca6843,2025-03-12_12h55.25.812,Tarea de decisión léxica,2024.2.5,Win32,20,,,,,,,,,,,,,,,,,,,,,,,515.9759,517.2694,l,1,0.5724,1,517.2694,517.7645,,,,,,155,FEM,WORD,AGR,150,fuga,,la,,0.5724,,517.765,517.7658,0.830555556,0.112962963,0,0,0,,0,170,170,154,1,luma,,,,
,,,,,,,5dfa6109534539000bdf1496,676192165fb32c2e1fb7aee6,67d17280634ceb8b71ca6843,2025-03-12_12h55.25.812,Tarea de decisión léxica,2024.2.5,Win32,20,,,,,,,,,,,,,,,,,,,,,,,517.7661,518.8353,l,1,0.3158,1,518.8353,519.3385,,,,,,315,FEM,WORD,AGR,150,reina,,la,,0.3158,,519.3386,519.3387,0.830555556,0.112962963,0,0,0,,0,171,171,314,1,riosa,,,,
,,,,,,,5dfa6109534539000bdf1496,676192165fb32c2e1fb7aee6,67d17280634ceb8b71ca6843,2025-03-12_12h55.25.812,Tarea de decisión léxica,2024.2.5,Win32,20,,,,,,,,,,,,,,,,,,,,,,,519.3391,520.3881,l,1,0.3095,1,520.3883,520.8717,,,,,,241,MAS,WORD,DIS,150,mundo,,la,,0.3095,,520.8718,520.8718,0.830555556,0.112962963,0,0,0,,0,172,172,240,1,mirdo,,,,
,,,,,,,5dfa6109534539000bdf1496,676192165fb32c2e1fb7aee6,67d17280634ceb8b71ca6843,2025-03-12_12h55.25.812,Tarea de decisión léxica,2024.2.5,Win32,20,,,,,,,,,,,,,,,,,,,,,,,520.8722,521.9366,l,0,0.3224,0,521.937,522.4219,,,,,,26,FEM,NOWORD,DIS,150,paza,,el,,0.3224,,522.4219,522.4219,0.830555556,0.112962963,0,0,0,,0,173,173,25,1,cama,,,,
,,,,,,,5dfa6109534539000bdf1496,676192165fb32c2e1fb7aee6,67d17280634ceb8b71ca6843,2025-03-12_12h55.25.812,Tarea de decisión léxica,2024.2.5,Win32,20,,,,,,,,,,,,,,,,,,,,,,,522.4224,523.4624,l,1,0.3165,1,523.4628,523.9747,,,,,,163,FEM,WORD,AGR,150,fama,,la,,0.3165,,523.9747,523.9748,0.830555556,0.112962963,0,0,0,,0,174,174,162,1,laga,,,,
,,,,,,,5dfa6109534539000bdf1496,676192165fb32c2e1fb7aee6,67d17280634ceb8b71ca6843,2025-03-12_12h55.25.812,Tarea de decisión léxica,2024.2.5,Win32,20,,,,,,,,,,,,,,,,,,,,,,,523.9752,525.0245,l,1,0.3185,1,525.0245,525.5211,,,,,,371,FEM,WORD,AGR,150,pasta,,la,,0.3185,,525.5215,525.5223,0.830555556,0.112962963,0,0,0,,0,175,175,370,1,mosta,,,,
,,,,,,,5dfa6109534539000bdf1496,676192165fb32c2e1fb7aee6,67d17280634ceb8b71ca6843,2025-03-12_12h55.25.812,Tarea de decisión léxica,2024.2.5,Win32,20,,,,,,,,,,,,,,,,,,,,,,,525.5226,526.6632,a,0,0.3937,0,526.6635,527.17,,,,,,53,FEM,WORD,DIS,150,boda,,el,,0.3937,,527.17,527.17,0.830555556,0.112962963,0,0,0,,0,176,176,52,1,rora,,,,
,,,,,,,5dfa6109534539000bdf1496,676192165fb32c2e1fb7aee6,67d17280634ceb8b71ca6843,2025-03-12_12h55.25.812,Tarea de decisión léxica,2024.2.5,Win32,20,,,,,,,,,,,,,,,,,,,,,,,527.1705,528.3067,a,1,0.3869,1,528.3069,528.7976,,,,,,256,MAS,NOWORD,AGR,150,mauco,,el,,0.3869,0.0001,528.7976,528.7976,0.830555556,0.112962963,0,0,0,,0,177,177,255,1,miedo,,,,
,,,,,,,5dfa6109534539000bdf1496,676192165fb32c2e1fb7aee6,67d17280634ceb8b71ca6843,2025-03-12_12h55.25.812,Tarea de decisión léxica,2024.2.5,Win32,20,,,,,,,,,,,,,,,,,,,,,,,528.7982,530.0038,l,1,0.4507,1,530.0038,530.5064,,,,,,363,FEM,WORD,AGR,150,deuda,,la,,0.4507,,530.5064,530.5065,0.830555556,0.112962963,0,0,0,,0,178,178,362,1,veida,,,,
,,,,,,,5dfa6109534539000bdf1496,676192165fb32c2e1fb7aee6,67d17280634ceb8b71ca6843,2025-03-12_12h55.25.812,Tarea de decisión léxica,2024.2.5,Win32,20,,,,,,,,,,,,,,,,,,,,,,,530.5069,531.5706,l,0,0.3215,0,531.571,532.0733,,,,,,24,FEM,NOWORD,AGR,150,giva,,la,,0.3215,,532.0737,532.0745,0.830555556,0.112962963,0,0,0,,0,179,179,23,1,hija,,,,
,,,,,,,5dfa6109534539000bdf1496,676192165fb32c2e1fb7aee6,67d17280634ceb8b71ca6843,2025-03-12_12h55.25.812,Tarea de decisión léxica,2024.2.5,Win32,20,,,,,,,,,,,,,,,,,,,,,,,532.0748,533.1458,l,0,0.3258,0,533.1458,533.6559,,,,,,372,FEM,NOWORD,AGR,150,mosta,,la,,0.3258,,533.6559,533.656,0.830555556,0.112962963,0,0,0,,0,180,180,371,1,pasta,,,,
,,,,,,,5dfa6109534539000bdf1496,676192165fb32c2e1fb7aee6,67d17280634ceb8b71ca6843,2025-03-12_12h55.25.812,Tarea de decisión léxica,2024.2.5,Win32,20,,,,,,,,,,,,,,,,,,,,,,,533.6564,534.9405,a,1,0.5573,1,534.9409,535.4351,,,,,,384,FEM,NOWORD,AGR,150,brame,,la,,0.5573,,535.4351,535.4352,0.830555556,0.112962963,0,0,0,,0,181,181,383,1,frase,,,,
,,,,,,,5dfa6109534539000bdf1496,676192165fb32c2e1fb7aee6,67d17280634ceb8b71ca6843,2025-03-12_12h55.25.812,Tarea de decisión léxica,2024.2.5,Win32,20,,,,,,,,,,,,,,,,,,,,,,,535.4356,536.5412,a,1,0.3753,1,536.5413,536.9933,,,,,,478,MAS,NOWORD,DIS,150,hocon,,la,,0.3753,,536.9934,536.9934,0.830555556,0.112962963,0,0,0,,0,182,182,477,1,botón,,,,
,,,,,,,5dfa6109534539000bdf1496,676192165fb32c2e1fb7aee6,67d17280634ceb8b71ca6843,2025-03-12_12h55.25.812,Tarea de decisión léxica,2024.2.5,Win32,20,,,,,,,,,,,,,,,,,,,,,,,536.9938,538.1396,l,1,0.3822,1,538.1396,538.6412,,,,,,261,MAS,WORD,DIS,150,sitio,,la,,0.3822,,538.6412,538.6412,0.830555556,0.112962963,0,0,0,,0,183,183,260,1,titio,,,,
,,,,,,,5dfa6109534539000bdf1496,676192165fb32c2e1fb7aee6,67d17280634ceb8b71ca6843,2025-03-12_12h55.25.812,Tarea de decisión léxica,2024.2.5,Win32,20,,,,,,,,,,,,,,,,,,,,,,,538.6417,540.0063,l,1,0.5866,1,540.0063,540.4578,,,,,,265,FEM,WORD,DIS,150,mitad,,el,,0.5866,,540.4582,540.4591,0.830555556,0.112962963,0,0,0,,0,184,184,264,1,pitat,,,,
,,,,,,,5dfa6109534539000bdf1496,676192165fb32c2e1fb7aee6,67d17280634ceb8b71ca6843,2025-03-12_12h55.25.812,Tarea de decisión léxica,2024.2.5,Win32,20,,,,,,,,,,,,,,,,,,,,,,,540.4593,541.5416,l,1,0.3394,1,541.5417,542.0038,,,,,,147,FEM,WORD,AGR,150,hoja,,la,,0.3394,,542.0038,542.0038,0.830555556,0.112962963,0,0,0,,0,185,185,146,1,pama,,,,
,,,,,,,5dfa6109534539000bdf1496,676192165fb32c2e1fb7aee6,67d17280634ceb8b71ca6843,2025-03-12_12h55.25.812,Tarea de decisión léxica,2024.2.5,Win32,20,,,,,,,,,,,,,,,,,,,,,,,542.0045,543.1014,l,1,0.3266,1,543.1015,543.5909,,,,,,145,MAS,WORD,DIS,150,león,,la,,0.3266,,543.5909,543.591,0.830555556,0.112962963,0,0,0,,0,186,186,144,1,nobo,,,,
,,,,,,,5dfa6109534539000bdf1496,676192165fb32c2e1fb7aee6,67d17280634ceb8b71ca6843,2025-03-12_12h55.25.812,Tarea de decisión léxica,2024.2.5,Win32,20,,,,,,,,,,,,,,,,,,,,,,,543.5914,544.7574,a,1,0.4344,1,544.7575,545.2523,,,,,,314,MAS,NOWORD,DIS,150,govio,,la,,0.4344,,545.2523,545.2524,0.830555556,0.112962963,0,0,0,,0,187,187,313,1,novio,,,,
,,,,,,,5dfa6109534539000bdf1496,676192165fb32c2e1fb7aee6,67d17280634ceb8b71ca6843,2025-03-12_12h55.25.812,Tarea de decisión léxica,2024.2.5,Win32,20,,,,,,,,,,,,,,,,,,,,,,,545.2528,546.4432,a,0,0.4218,0,546.4436,546.9326,,,,,,175,FEM,WORD,AGR,150,goma,,la,,0.4218,,546.9326,546.9327,0.830555556,0.112962963,0,0,0,,0,188,188,174,1,hosa,,,,
,,,,,,,5dfa6109534539000bdf1496,676192165fb32c2e1fb7aee6,67d17280634ceb8b71ca6843,2025-03-12_12h55.25.812,Tarea de decisión léxica,2024.2.5,Win32,20,,,,,,,,,,,,,,,,,,,,,,,546.9331,548.105,a,1,0.4405,1,548.1053,548.5596,,,,,,136,MAS,NOWORD,AGR,150,geso,,el,,0.4405,,548.5601,548.5609,0.830555556,0.112962963,0,0,0,,0,189,189,135,1,tubo,,,,
,,,,,,,5dfa6109534539000bdf1496,676192165fb32c2e1fb7aee6,67d17280634ceb8b71ca6843,2025-03-12_12h55.25.812,Tarea de decisión léxica,2024.2.5,Win32,20,,,,,,,,,,,,,,,,,,,,,,,548.5612,549.6334,l,1,0.3077,1,549.6334,550.1397,,,,,,431,MAS,WORD,AGR,150,motor,,el,,0.3077,,550.1397,550.1397,0.830555556,0.112962963,0,0,0,,0,190,190,430,1,tetor,,,,
,,,,,,,5dfa6109534539000bdf1496,676192165fb32c2e1fb7aee6,67d17280634ceb8b71ca6843,2025-03-12_12h55.25.812,Tarea de decisión léxica,2024.2.5,Win32,20,,,,,,,,,,,,,,,,,,,,,,,550.1402,551.4408,l,1,0.5606,1,551.4408,551.9507,,,,,,459,MAS,WORD,AGR,150,grado,,el,,0.5606,,551.9507,551.9507,0.830555556,0.112962963,0,0,0,,0,191,191,458,1,fraco,,,,
,,,,,,,5dfa6109534539000bdf1496,676192165fb32c2e1fb7aee6,67d17280634ceb8b71ca6843,2025-03-12_12h55.25.812,Tarea de decisión léxica,2024.2.5,Win32,20,,,,,,,,,,,,,,,,,,,,,,,551.9511,553.1959,a,1,0.4926,1,553.1959,553.7043,,,,,,344,FEM,NOWORD,AGR,150,trada,,la,,0.4926,,553.7043,553.7043,0.830555556,0.112962963,0,0,0,,0,192,192,343,1,plata,,,,
,,,,,,,5dfa6109534539000bdf1496,676192165fb32c2e1fb7aee6,67d17280634ceb8b71ca6843,2025-03-12_12h55.25.812,Tarea de decisión léxica,2024.2.5,Win32,20,,,,,,,,,,,,,,,,,,,,,,,553.7049,554.9063,a,1,0.4767,1,554.9063,555.4199,,,,,,382,MAS,NOWORD,DIS,150,nusor,,la,,0.4767,,555.4199,555.42,0.830555556,0.112962963,0,0,0,,0,193,193,381,1,humor,,,,
,,,,,,,5dfa6109534539000bdf1496,676192165fb32c2e1fb7aee6,67d17280634ceb8b71ca6843,2025-03-12_12h55.25.812,Tarea de decisión léxica,2024.2.5,Win32,20,,,,,,,,,,,,,,,,,,,,,,,555.4204,556.6231,l,1,0.4551,1,556.6231,557.0738,,,,,,27,MAS,WORD,AGR,150,baño,,el,,0.4551,0.0001,557.0742,557.075,0.830555556,0.112962963,0,0,0,,0,194,194,26,1,ravo,,,,
,,,,,,,5dfa6109534539000bdf1496,676192165fb32c2e1fb7aee6,67d17280634ceb8b71ca6843,2025-03-12_12h55.25.812,Tarea de decisión léxica,2024.2.5,Win32,20,,,,,,,,,,,,,,,,,,,,,,,557.0753,558.1945,l,1,0.3919,1,558.1945,558.691,,,,,,477,MAS,WORD,DIS,150,botón,,la,,0.3919,,558.691,558.6911,0.830555556,0.112962963,0,0,0,,0,195,195,476,1,hocon,,,,
,,,,,,,5dfa6109534539000bdf1496,676192165fb32c2e1fb7aee6,67d17280634ceb8b71ca6843,2025-03-12_12h55.25.812,Tarea de decisión léxica,2024.2.5,Win32,20,,,,,,,,,,,,,,,,,,,,,,,558.6915,559.8749,a,1,0.4388,1,559.8749,560.388,,,,,,116,FEM,NOWORD,AGR,150,haca,,la,,0.4388,,560.388,560.3881,0.830555556,0.112962963,0,0,0,,0,196,196,115,1,pata,,,,
,,,,,,,5dfa6109534539000bdf1496,676192165fb32c2e1fb7aee6,67d17280634ceb8b71ca6843,2025-03-12_12h55.25.812,Tarea de decisión léxica,2024.2.5,Win32,20,,,,,,,,,,,,,,,,,,,,,,,560.3885,561.6828,a,1,0.5473,1,561.6829,562.1731,,,,,,274,FEM,NOWORD,DIS,150,frosa,,el,,0.5473,,562.1731,562.1731,0.830555556,0.112962963,0,0,0,,0,197,197,273,1,broma,,,,
,,,,,,,5dfa6109534539000bdf1496,676192165fb32c2e1fb7aee6,67d17280634ceb8b71ca6843,2025-03-12_12h55.25.812,Tarea de decisión léxica,2024.2.5,Win32,20,,,,,,,,,,,,,,,,,,,,,,,562.1736,563.3534,a,1,0.43,1,563.3534,563.8558,,,,,,144,MAS,NOWORD,AGR,150,pezo,,el,,0.43,,563.8559,563.8559,0.830555556,0.112962963,0,0,0,,0,198,198,143,1,pavo,,,,
,,,,,,,5dfa6109534539000bdf1496,676192165fb32c2e1fb7aee6,67d17280634ceb8b71ca6843,2025-03-12_12h55.25.812,Tarea de decisión léxica,2024.2.5,Win32,20,,,,,,,,,,,,,,,,,,,,,,,563.8562,565.0182,l,1,0.429,1,565.0182,565.5239,,,,,,385,FEM,WORD,DIS,150,letra,,el,,0.429,,565.5265,565.5275,0.830555556,0.112962963,0,0,0,,0,199,199,384,1,febra,,,,
,,,,,,,5dfa6109534539000bdf1496,676192165fb32c2e1fb7aee6,67d17280634ceb8b71ca6843,2025-03-12_12h55.25.812,Tarea de decisión léxica,2024.2.5,Win32,20,,,,,,,,,,,,,,,,,,,,,,,565.5278,566.8215,a,1,0.5628,1,566.8216,567.3238,,,,,,390,MAS,NOWORD,DIS,150,cenco,,la,,0.5628,,567.3238,567.3238,0.830555556,0.112962963,0,0,0,,0,200,200,389,1,cerdo,,,,
,,,,,,,5dfa6109534539000bdf1496,676192165fb32c2e1fb7aee6,67d17280634ceb8b71ca6843,2025-03-12_12h55.25.812,Tarea de decisión léxica,2024.2.5,Win32,20,,,,,,,,,,,,,,,,,,,,,,,567.3243,568.9905,a,1,0.9195,1,568.9905,569.4741,,,,,,146,MAS,NOWORD,DIS,150,nobo,,la,,0.9195,,569.4741,569.4742,0.830555556,0.112962963,0,0,0,,0,201,201,145,1,león,,,,
,,,,,,,5dfa6109534539000bdf1496,676192165fb32c2e1fb7aee6,67d17280634ceb8b71ca6843,2025-03-12_12h55.25.812,Tarea de decisión léxica,2024.2.5,Win32,20,,,,,,,,,,,,,,,,,,,,,,,569.4746,570.7546,l,1,0.5201,1,570.7546,571.2205,,,,,,381,MAS,WORD,DIS,150,humor,,la,,0.5201,,571.2205,571.2208,0.830555556,0.112962963,0,0,0,,0,202,202,380,1,nusor,,,,
,,,,,,,5dfa6109534539000bdf1496,676192165fb32c2e1fb7aee6,67d17280634ceb8b71ca6843,2025-03-12_12h55.25.812,Tarea de decisión léxica,2024.2.5,Win32,20,,,,,,,,,,,,,,,,,,,,,,,571.2212,572.621,a,1,0.6835,1,572.621,573.0712,,,,,,60,FEM,NOWORD,AGR,150,tafa,,la,,0.6835,,573.0717,573.0725,0.830555556,0.112962963,0,0,0,,0,203,203,59,1,sala,,,,
,,,,,,,5dfa6109534539000bdf1496,676192165fb32c2e1fb7aee6,67d17280634ceb8b71ca6843,2025-03-12_12h55.25.812,Tarea de decisión léxica,2024.2.5,Win32,20,,,,,,,,,,,,,,,,,,,,,,,573.0728,574.2978,l,1,0.4939,1,574.2978,574.8071,,,,,,279,FEM,WORD,AGR,150,prisa,,la,,0.4939,,574.8071,574.8072,0.830555556,0.112962963,0,0,0,,0,204,204,278,1,grina,,,,
,,,,,,,5dfa6109534539000bdf1496,676192165fb32c2e1fb7aee6,67d17280634ceb8b71ca6843,2025-03-12_12h55.25.812,Tarea de decisión léxica,2024.2.5,Win32,20,,,,,,,,,,,,,,,,,,,,,,,574.8076,575.8729,l,0,0.3171,0,575.8732,576.3566,,,,,,356,FEM,NOWORD,AGR,150,bepla,,la,,0.3171,,576.3566,576.3566,0.830555556,0.112962963,0,0,0,,0,205,205,355,1,regla,,,,
,,,,,,,5dfa6109534539000bdf1496,676192165fb32c2e1fb7aee6,67d17280634ceb8b71ca6843,2025-03-12_12h55.25.812,Tarea de decisión léxica,2024.2.5,Win32,20,,,,,,,,,,,,,,,,,,,,,,,576.3571,577.6225,l,1,0.5206,1,577.6228,578.129,,,,,,121,MAS,WORD,DIS,150,hoyo,,la,,0.5206,,578.1291,578.1292,0.830555556,0.112962963,0,0,0,,0,206,206,120,1,bomo,,,,
,,,,,,,5dfa6109534539000bdf1496,676192165fb32c2e1fb7aee6,67d17280634ceb8b71ca6843,2025-03-12_12h55.25.812,Tarea de decisión léxica,2024.2.5,Win32,20,,,,,,,,,,,,,,,,,,,,,,,578.1295,579.2479,l,1,0.3858,1,579.248,579.7343,,,,,,319,MAS,WORD,AGR,150,suelo,,el,,0.3858,,579.7343,579.7343,0.830555556,0.112962963,0,0,0,,0,207,207,318,1,tuero,,,,
,,,,,,,5dfa6109534539000bdf1496,676192165fb32c2e1fb7aee6,67d17280634ceb8b71ca6843,2025-03-12_12h55.25.812,Tarea de decisión léxica,2024.2.5,Win32,20,,,,,,,,,,,,,,,,,,,,,,,579.7348,580.8775,a,1,0.3945,1,580.8776,581.3893,,,,,,242,MAS,NOWORD,DIS,150,mirdo,,la,,0.3945,,581.3898,581.3906,0.830555556,0.112962963,0,0,0,,0,208,208,241,1,mundo,,,,
,,,,,,,5dfa6109534539000bdf1496,676192165fb32c2e1fb7aee6,67d17280634ceb8b71ca6843,2025-03-12_12h55.25.812,Tarea de decisión léxica,2024.2.5,Win32,20,,,,,,,,,,,,,,,,,,,,,,,581.3908,582.5326,l,1,0.3844,1,582.5328,583.019,,,,,,229,MAS,WORD,DIS,150,amor,,la,,0.3844,,583.019,583.0191,0.830555556,0.112962963,0,0,0,,0,209,209,228,1,ador,,,,
,,,,,,,5dfa6109534539000bdf1496,676192165fb32c2e1fb7aee6,67d17280634ceb8b71ca6843,2025-03-12_12h55.25.812,Tarea de decisión léxica,2024.2.5,Win32,20,,,,,,,,,,,,,,,,,,,,,,,583.0195,584.2733,a,1,0.507,1,584.2733,584.7878,,,,,,272,FEM,NOWORD,AGR,150,refal,,la,,0.507,,584.7879,584.7879,0.830555556,0.112962963,0,0,0,,0,210,210,271,1,señal,,,,
,,,,,,,5dfa6109534539000bdf1496,676192165fb32c2e1fb7aee6,67d17280634ceb8b71ca6843,2025-03-12_12h55.25.812,Tarea de decisión léxica,2024.2.5,Win32,20,,,,,,,,,,,,,,,,,,,,,,,584.7883,585.9405,l,1,0.3888,1,585.9405,586.4334,,,,,,119,MAS,WORD,AGR,150,pozo,,el,,0.3888,,586.4334,586.4335,0.830555556,0.112962963,0,0,0,,0,211,211,118,1,hooy,,,,
,,,,,,,5dfa6109534539000bdf1496,676192165fb32c2e1fb7aee6,67d17280634ceb8b71ca6843,2025-03-12_12h55.25.812,Tarea de decisión léxica,2024.2.5,Win32,20,,,,,,,,,,,,,,,,,,,,,,,586.4339,587.5727,a,0,0.3809,0,587.5731,588.076,,,,,,127,MAS,WORD,AGR,150,pico,,el,,0.3809,,588.076,588.076,0.830555556,0.112962963,0,0,0,,0,212,212,126,1,itio,,,,
,,,,,,,5dfa6109534539000bdf1496,676192165fb32c2e1fb7aee6,67d17280634ceb8b71ca6843,2025-03-12_12h55.25.812,Tarea de decisión léxica,2024.2.5,Win32,20,,,,,,,,,,,,,,,,,,,,,,,588.0764,589.1724,a,1,0.3365,1,589.1727,589.623,,,,,,436,MAS,NOWORD,AGR,150,ricno,,el,,0.3365,,589.6235,589.6243,0.830555556,0.112962963,0,0,0,,0,213,213,435,1,ritmo,,,,
,,,,,,,5dfa6109534539000bdf1496,676192165fb32c2e1fb7aee6,67d17280634ceb8b71ca6843,2025-03-12_12h55.25.812,Tarea de decisión léxica,2024.2.5,Win32,20,,,,,,,,,,,,,,,,,,,,,,,589.6246,590.7863,l,1,0.4014,1,590.7864,591.2925,,,,,,435,MAS,WORD,AGR,150,ritmo,,el,,0.4014,,591.2926,591.2926,0.830555556,0.112962963,0,0,0,,0,214,214,434,1,ricno,,,,
,,,,,,,5dfa6109534539000bdf1496,676192165fb32c2e1fb7aee6,67d17280634ceb8b71ca6843,2025-03-12_12h55.25.812,Tarea de decisión léxica,2024.2.5,Win32,20,,,,,,,,,,,,,,,,,,,,,,,591.2931,592.4978,a,1,0.4404,1,592.4978,592.9849,,,,,,170,MAS,NOWORD,DIS,150,mibo,,la,,0.4404,0.0001,592.9849,592.9849,0.830555556,0.112962963,0,0,0,,0,215,215,169,1,cubo,,,,
,,,,,,,5dfa6109534539000bdf1496,676192165fb32c2e1fb7aee6,67d17280634ceb8b71ca6843,2025-03-12_12h55.25.812,Tarea de decisión léxica,2024.2.5,Win32,20,,,,,,,,,,,,,,,,,,,,,,,592.9854,594.1119,l,1,0.3783,1,594.112,594.606,,,,,,333,FEM,WORD,DIS,150,tarea,,el,,0.3783,,594.6061,594.6061,0.830555556,0.112962963,0,0,0,,0,216,216,332,1,dalea,,,,
,,,,,,,5dfa6109534539000bdf1496,676192165fb32c2e1fb7aee6,67d17280634ceb8b71ca6843,2025-03-12_12h55.25.812,Tarea de decisión léxica,2024.2.5,Win32,20,,,,,,,,,,,,,,,,,,,,,,,594.6066,595.8935,a,1,0.5556,1,595.8936,596.405,,,,,,96,FEM,NOWORD,AGR,151,neda,,la,,0.5556,,596.405,596.4051,0.830555556,0.112962963,0,0,0,,0,217,217,95,1,moda,,,,
,,,,,,,5dfa6109534539000bdf1496,676192165fb32c2e1fb7aee6,67d17280634ceb8b71ca6843,2025-03-12_12h55.25.812,Tarea de decisión léxica,2024.2.5,Win32,20,,,,,,,,,,,,,,,,,,,,,,,596.4055,597.9132,l,0,0.7609,0,597.9135,598.4226,,,,,,64,FEM,NOWORD,AGR,150,funa,,la,,0.7609,,598.4231,598.4239,0.830555556,0.112962963,0,0,0,,0,218,218,63,1,luna,,,,
,,,,,,,5dfa6109534539000bdf1496,676192165fb32c2e1fb7aee6,67d17280634ceb8b71ca6843,2025-03-12_12h55.25.812,Tarea de decisión léxica,2024.2.5,Win32,20,,,,,,,,,,,,,,,,,,,,,,,598.4244,599.5505,l,1,0.3767,1,599.5508,600.0378,,,,,,463,FEM,WORD,AGR,150,cabra,,la,,0.3767,,600.0378,600.0378,0.830555556,0.112962963,0,0,0,,0,219,219,462,1,matla,,,,
,,,,,,,5dfa6109534539000bdf1496,676192165fb32c2e1fb7aee6,67d17280634ceb8b71ca6843,2025-03-12_12h55.25.812,Tarea de decisión léxica,2024.2.5,Win32,20,,,,,,,,,,,,,,,,,,,,,,,600.0382,601.1052,l,1,0.3154,1,601.1052,601.6002,,,,,,71,FEM,WORD,AGR,150,isla,,la,,0.3154,,601.6002,601.6002,0.830555556,0.112962963,0,0,0,,0,220,220,70,1,urla,,,,
,,,,,,,5dfa6109534539000bdf1496,676192165fb32c2e1fb7aee6,67d17280634ceb8b71ca6843,2025-03-12_12h55.25.812,Tarea de decisión léxica,2024.2.5,Win32,20,,,,,,,,,,,,,,,,,,,,,,,601.6006,602.9896,a,1,0.6365,1,602.9897,603.4743,,,,,,474,FEM,NOWORD,DIS,150,felia,,el,,0.6365,,603.4743,603.4744,0.830555556,0.112962963,0,0,0,,0,221,221,473,1,feria,,,,
,,,,,,,5dfa6109534539000bdf1496,676192165fb32c2e1fb7aee6,67d17280634ceb8b71ca6843,2025-03-12_12h55.25.812,Tarea de decisión léxica,2024.2.5,Win32,20,,,,,,,,,,,,,,,,,,,,,,,603.4748,604.7523,l,0,0.552,0,604.7527,605.2519,,,,,,370,MAS,NOWORD,DIS,150,rioco,,la,,0.552,,605.2519,605.252,0.830555556,0.112962963,0,0,0,,0,222,222,369,1,ruido,,,,
,,,,,,,5dfa6109534539000bdf1496,676192165fb32c2e1fb7aee6,67d17280634ceb8b71ca6843,2025-03-12_12h55.25.812,Tarea de decisión léxica,2024.2.5,Win32,20,,,,,,,,,,,,,,,,,,,,,,,605.2523,606.3531,l,1,0.3821,1,606.3534,606.8513,,,,,,311,MAS,WORD,AGR,150,honor,,el,,0.3821,,606.8517,606.8525,0.830555556,0.112962963,0,0,0,,0,223,223,310,1,nosor,,,,
,,,,,,,5dfa6109534539000bdf1496,676192165fb32c2e1fb7aee6,67d17280634ceb8b71ca6843,2025-03-12_12h55.25.812,Tarea de decisión léxica,2024.2.5,Win32,20,,,,,,,,,,,,,,,,,,,,,,,606.8528,607.9923,a,1,0.3742,1,607.9923,608.4922,,,,,,380,MAS,NOWORD,AGR,150,tunso,,el,,0.3742,,608.4922,608.4923,0.830555556,0.112962963,0,0,0,,0,224,224,379,1,turno,,,,
,,,,,,,5dfa6109534539000bdf1496,676192165fb32c2e1fb7aee6,67d17280634ceb8b71ca6843,2025-03-12_12h55.25.812,Tarea de decisión léxica,2024.2.5,Win32,20,,,,,,,,,,,,,,,,,,,,,,,608.4927,609.6776,l,1,0.4411,1,609.6776,610.1772,,,,,,89,MAS,WORD,DIS,150,humo,,la,,0.4411,0.0001,610.1772,610.1772,0.830555556,0.112962963,0,0,0,,0,225,225,88,1,guso,,,,
,,,,,,,5dfa6109534539000bdf1496,676192165fb32c2e1fb7aee6,67d17280634ceb8b71ca6843,2025-03-12_12h55.25.812,Tarea de decisión léxica,2024.2.5,Win32,20,,,,,,,,,,,,,,,,,,,,,,,610.1776,611.3774,l,1,0.4416,1,611.3775,611.8887,,,,,,253,MAS,WORD,DIS,150,chico,,la,,0.4416,,611.8887,611.8887,0.830555556,0.112962963,0,0,0,,0,226,226,252,1,trido,,,,
,,,,,,,5dfa6109534539000bdf1496,676192165fb32c2e1fb7aee6,67d17280634ceb8b71ca6843,2025-03-12_12h55.25.812,Tarea de decisión léxica,2024.2.5,Win32,20,,,,,,,,,,,,,,,,,,,,,,,611.8892,612.9634,l,0,0.3192,0,612.9638,613.416,,,,,,86,MAS,NOWORD,DIS,150,babo,,la,,0.3192,,613.4164,613.4173,0.830555556,0.112962963,0,0,0,,0,227,227,85,1,lago,,,,
,,,,,,,5dfa6109534539000bdf1496,676192165fb32c2e1fb7aee6,67d17280634ceb8b71ca6843,2025-03-12_12h55.25.812,Tarea de decisión léxica,2024.2.5,Win32,20,,,,,,,,,,,,,,,,,,,,,,,613.4176,614.7395,a,1,0.5705,1,614.7398,615.2475,,,,,,402,MAS,NOWORD,DIS,150,pirvo,,la,,0.5705,,615.2475,615.2475,0.830555556,0.112962963,0,0,0,,0,228,228,401,1,polvo,,,,
,,,,,,,5dfa6109534539000bdf1496,676192165fb32c2e1fb7aee6,67d17280634ceb8b71ca6843,2025-03-12_12h55.25.812,Tarea de decisión léxica,2024.2.5,Win32,20,,,,,,,,,,,,,,,,,,,,,,,615.248,616.5335,a,1,0.5492,1,616.5335,617.0425,,,,,,142,FEM,NOWORD,DIS,150,sina,,el,,0.5492,,617.0426,617.0426,0.830555556,0.112962963,0,0,0,,0,229,229,141,1,cruz,,,,
,,,,,,,5dfa6109534539000bdf1496,676192165fb32c2e1fb7aee6,67d17280634ceb8b71ca6843,2025-03-12_12h55.25.812,Tarea de decisión léxica,2024.2.5,Win32,20,,,,,,,,,,,,,,,,,,,,,,,617.0431,618.2893,l,1,0.5203,1,618.2893,618.7481,,,,,,25,FEM,WORD,DIS,150,cama,,el,,0.5203,,618.7481,618.7482,0.830555556,0.112962963,0,0,0,,0,230,230,24,1,paza,,,,
,,,,,,,5dfa6109534539000bdf1496,676192165fb32c2e1fb7aee6,67d17280634ceb8b71ca6843,2025-03-12_12h55.25.812,Tarea de decisión léxica,2024.2.5,Win32,20,,,,,,,,,,,,,,,,,,,,,,,618.7486,619.8278,l,1,0.3253,1,619.8279,620.3031,,,,,,421,MAS,WORD,DIS,150,primo,,la,,0.3253,,620.3031,620.3031,0.830555556,0.112962963,0,0,0,,0,231,231,420,1,griso,,,,
,,,,,,,5dfa6109534539000bdf1496,676192165fb32c2e1fb7aee6,67d17280634ceb8b71ca6843,2025-03-12_12h55.25.812,Tarea de decisión léxica,2024.2.5,Win32,20,,,,,,,,,,,,,,,,,,,,,,,620.3036,621.4074,l,1,0.3735,1,621.4075,621.8992,,,,,,199,MAS,WORD,AGR,150,lazo,,el,,0.3735,,621.8997,621.9006,0.830555556,0.112962963,0,0,0,,0,232,232,198,1,fano,,,,
,,,,,,,5dfa6109534539000bdf1496,676192165fb32c2e1fb7aee6,67d17280634ceb8b71ca6843,2025-03-12_12h55.25.812,Tarea de decisión léxica,2024.2.5,Win32,20,,,,,,,,,,,,,,,,,,,,,,,621.9009,623.0222,l,1,0.3859,1,623.0222,623.5227,,,,,,427,FEM,WORD,AGR,150,oreja,,la,,0.3859,,623.5227,623.5227,0.830555556,0.112962963,0,0,0,,0,233,233,426,1,oseva,,,,
,,,,,,,5dfa6109534539000bdf1496,676192165fb32c2e1fb7aee6,67d17280634ceb8b71ca6843,2025-03-12_12h55.25.812,Tarea de decisión léxica,2024.2.5,Win32,20,,,,,,,,,,,,,,,,,,,,,,,623.5232,624.5832,l,0,0.3172,0,624.5835,625.0888,,,,,,196,FEM,NOWORD,AGR,150,sira,,la,,0.3172,,625.0888,625.0889,0.830555556,0.112962963,0,0,0,,0,234,234,195,1,tela,,,,
,,,,,,,5dfa6109534539000bdf1496,676192165fb32c2e1fb7aee6,67d17280634ceb8b71ca6843,2025-03-12_12h55.25.812,Tarea de decisión léxica,2024.2.5,Win32,20,,,,,,,,,,,,,,,,,,,,,,,625.0893,626.1425,l,1,0.3245,1,626.1429,626.6563,,,,,,15,FEM,WORD,AGR,150,idea,,la,,0.3245,,626.6564,626.6564,0.830555556,0.112962963,0,0,0,,0,235,235,14,1,odea,,,,
,,,,,,,5dfa6109534539000bdf1496,676192165fb32c2e1fb7aee6,67d17280634ceb8b71ca6843,2025-03-12_12h55.25.812,Tarea de decisión léxica,2024.2.5,Win32,20,,,,,,,,,,,,,,,,,,,,,,,626.6569,627.7335,l,0,0.3448,0,627.7338,628.2273,,,,,,224,FEM,NOWORD,AGR,150,cira,,la,,0.3448,,628.2273,628.2273,0.830555556,0.112962963,0,0,0,,0,236,236,223,1,cera,,,,
,,,,,,,5dfa6109534539000bdf1496,676192165fb32c2e1fb7aee6,67d17280634ceb8b71ca6843,2025-03-12_12h55.25.812,Tarea de decisión léxica,2024.2.5,Win32,20,,,,,,,,,,,,,,,,,,,,,,,628.2279,629.2912,l,1,0.2996,1,629.2915,629.7806,,,,,,135,MAS,WORD,AGR,150,tubo,,el,,0.2996,,629.7809,629.7817,0.830555556,0.112962963,0,0,0,,0,237,237,134,1,geso,,,,
,,,,,,,5dfa6109534539000bdf1496,676192165fb32c2e1fb7aee6,67d17280634ceb8b71ca6843,2025-03-12_12h55.25.812,Tarea de decisión léxica,2024.2.5,Win32,20,,,,,,,,,,,,,,,,,,,,,,,629.782,631.0479,a,1,0.5018,1,631.048,631.5555,,,,,,426,FEM,NOWORD,DIS,150,virca,,el,,0.5018,,631.5555,631.5555,0.830555556,0.112962963,0,0,0,,0,238,238,425,1,viuda,,,,
,,,,,,,5dfa6109534539000bdf1496,676192165fb32c2e1fb7aee6,67d17280634ceb8b71ca6843,2025-03-12_12h55.25.812,Tarea de decisión léxica,2024.2.5,Win32,20,,,,,,,,,,,,,,,,,,,,,,,631.5559,632.7301,l,1,0.4385,1,632.7302,633.2332,,,,,,187,MAS,WORD,AGR,150,mito,,el,,0.4385,,633.2332,633.2333,0.830555556,0.112962963,0,0,0,,0,239,239,186,1,suto,,,,
,,,,,,,5dfa6109534539000bdf1496,676192165fb32c2e1fb7aee6,67d17280634ceb8b71ca6843,2025-03-12_12h55.25.812,Tarea de decisión léxica,2024.2.5,Win32,20,,,,,,,,,,,,,,,,,,,,,,,633.2338,634.5101,a,1,0.5509,1,634.5102,635.0175,,,,,,68,FEM,NOWORD,AGR,150,gesa,,la,,0.5509,,635.0175,635.0176,0.830555556,0.112962963,0,0,0,,0,240,240,67,1,nena,,,,
,,,,,,,5dfa6109534539000bdf1496,676192165fb32c2e1fb7aee6,67d17280634ceb8b71ca6843,2025-03-12_12h55.25.812,Tarea de decisión léxica,2024.2.5,Win32,20,,,,,,,,,,,,,,,,,,,,,,,635.0181,636.2983,l,1,0.5574,1,636.2983,636.8067,,,,,,323,FEM,WORD,AGR,150,cinta,,la,,0.5574,,636.8067,636.8068,0.830555556,0.112962963,0,0,0,,0,241,241,322,1,certa,,,,
,,,,,,,5dfa6109534539000bdf1496,676192165fb32c2e1fb7aee6,67d17280634ceb8b71ca6843,2025-03-12_12h55.25.812,Tarea de decisión léxica,2024.2.5,Win32,20,,,,,,,,,,,,,,,,,,,,,,,636.8072,638.1106,a,1,0.5577,1,638.1106,638.6123,,,,,,46,FEM,NOWORD,DIS,150,pema,,el,,0.5577,,638.6128,638.6136,0.830555556,0.112962963,0,0,0,,0,242,242,45,1,mesa,,,,
,,,,,,,5dfa6109534539000bdf1496,676192165fb32c2e1fb7aee6,67d17280634ceb8b71ca6843,2025-03-12_12h55.25.812,Tarea de decisión léxica,2024.2.5,Win32,20,,,,,,,,,,,,,,,,,,,,,,,638.6138,639.9609,a,1,0.6076,1,639.9609,640.4663,,,,,,58,MAS,NOWORD,DIS,150,heco,,la,,0.6076,,640.4663,640.4664,0.830555556,0.112962963,0,0,0,,0,243,243,57,1,dedo,,,,
,,,,,,,5dfa6109534539000bdf1496,676192165fb32c2e1fb7aee6,67d17280634ceb8b71ca6843,2025-03-12_12h55.25.812,Tarea de decisión léxica,2024.2.5,Win32,20,,,,,,,,,,,,,,,,,,,,,,,640.4669,641.5566,l,1,0.3489,1,641.5567,642.0572,,,,,,347,FEM,WORD,AGR,150,pieza,,la,,0.3489,,642.0572,642.0573,0.830555556,0.112962963,0,0,0,,0,244,244,346,1,mueza,,,,
,,,,,,,5dfa6109534539000bdf1496,676192165fb32c2e1fb7aee6,67d17280634ceb8b71ca6843,2025-03-12_12h55.25.812,Tarea de decisión léxica,2024.2.5,Win32,20,,,,,,,,,,,,,,,,,,,,,,,642.0577,643.2371,l,1,0.4456,1,643.2371,643.7241,,,,,,475,FEM,WORD,AGR,150,manta,,la,,0.4456,,643.7241,643.7242,0.830555556,0.112962963,0,0,0,,0,245,245,474,1,mucta,,,,
,,,,,,,5dfa6109534539000bdf1496,676192165fb32c2e1fb7aee6,67d17280634ceb8b71ca6843,2025-03-12_12h55.25.812,Tarea de decisión léxica,2024.2.5,Win32,20,,,,,,,,,,,,,,,,,,,,,,,643.7246,644.8374,l,1,0.3785,1,644.8374,645.3368,,,,,,267,MAS,WORD,AGR,150,libro,,el,,0.3785,,645.3368,645.3368,0.830555556,0.112962963,0,0,0,,0,246,246,266,1,figro,,,,
,,,,,,,5dfa6109534539000bdf1496,676192165fb32c2e1fb7aee6,67d17280634ceb8b71ca6843,2025-03-12_12h55.25.812,Tarea de decisión léxica,2024.2.5,Win32,20,,,,,,,,,,,,,,,,,,,,,,,645.3373,646.4527,l,1,0.373,1,646.4527,646.955,,,,,,411,MAS,WORD,AGR,150,pollo,,el,,0.373,,646.9554,646.9563,0.830555556,0.112962963,0,0,0,,0,247,247,410,1,mobro,,,,
,,,,,,,5dfa6109534539000bdf1496,676192165fb32c2e1fb7aee6,67d17280634ceb8b71ca6843,2025-03-12_12h55.25.812,Tarea de decisión léxica,2024.2.5,Win32,20,,,,,,,,,,,,,,,,,,,,,,,646.9566,648.3057,a,1,0.6174,1,648.3057,648.7998,,,,,,458,MAS,NOWORD,DIS,150,glaco,,la,,0.6174,,648.7999,648.7999,0.830555556,0.112962963,0,0,0,,0,248,248,457,1,plato,,,,
,,,,,,,5dfa6109534539000bdf1496,676192165fb32c2e1fb7aee6,67d17280634ceb8b71ca6843,2025-03-12_12h55.25.812,Tarea de decisión léxica,2024.2.5,Win32,20,,,,,,,,,,,,,,,,,,,,,,,648.8006,650.1344,l,0,0.5976,0,650.1347,650.621,,,,,,208,MAS,NOWORD,AGR,150,kedo,,el,,0.5976,,650.621,650.621,0.830555556,0.112962963,0,0,0,,0,249,249,207,1,kilo,,,,
,,,,,,,5dfa6109534539000bdf1496,676192165fb32c2e1fb7aee6,67d17280634ceb8b71ca6843,2025-03-12_12h55.25.812,Tarea de decisión léxica,2024.2.5,Win32,20,,,,,,,,,,,,,,,,,,,,,,,650.6215,651.6588,l,1,0.3055,1,651.6591,652.1725,,,,,,425,FEM,WORD,DIS,150,viuda,,el,,0.3055,,652.1725,652.1726,0.830555556,0.112962963,0,0,0,,0,250,250,424,1,virca,,,,
,,,,,,,5dfa6109534539000bdf1496,676192165fb32c2e1fb7aee6,67d17280634ceb8b71ca6843,2025-03-12_12h55.25.812,Tarea de decisión léxica,2024.2.5,Win32,20,,,,,,,,,,,,,,,,,,,,,,,652.1731,653.3337,l,1,0.412,1,653.3337,653.8404,,,,,,31,FEM,WORD,AGR,150,ropa,,la,,0.412,,653.8409,653.8417,0.830555556,0.112962963,0,0,0,,0,251,251,30,1,bova,,,,
,,,,,,,5dfa6109534539000bdf1496,676192165fb32c2e1fb7aee6,67d17280634ceb8b71ca6843,2025-03-12_12h55.25.812,Tarea de decisión léxica,2024.2.5,Win32,20,,,,,,,,,,,,,,,,,,,,,,,653.842,654.9256,l,1,0.3084,1,654.9256,655.4212,,,,,,339,MAS,WORD,AGR,150,brazo,,el,,0.3084,,655.4213,655.4214,0.830555556,0.112962963,0,0,0,,0,252,252,338,1,plajo,,,,
,,,,,,,5dfa6109534539000bdf1496,676192165fb32c2e1fb7aee6,67d17280634ceb8b71ca6843,2025-03-12_12h55.25.812,Tarea de decisión léxica,2024.2.5,Win32,20,,,,,,,,,,,,,,,,,,,,,,,655.4218,656.4918,a,1,0.321,1,656.4918,656.9737,,,,,,166,FEM,NOWORD,DIS,150,dera,,el,,0.321,,656.9737,656.9737,0.830555556,0.112962963,0,0,0,,0,253,253,165,1,vela,,,,
,,,,,,,5dfa6109534539000bdf1496,676192165fb32c2e1fb7aee6,67d17280634ceb8b71ca6843,2025-03-12_12h55.25.812,Tarea de decisión léxica,2024.2.5,Win32,20,,,,,,,,,,,,,,,,,,,,,,,656.9742,658.1886,a,1,0.4834,1,658.1887,658.692,,,,,,338,MAS,NOWORD,DIS,150,nuejo,,la,,0.4834,,658.692,658.692,0.830555556,0.112962963,0,0,0,,0,254,254,337,1,huevo,,,,
,,,,,,,5dfa6109534539000bdf1496,676192165fb32c2e1fb7aee6,67d17280634ceb8b71ca6843,2025-03-12_12h55.25.812,Tarea de decisión léxica,2024.2.5,Win32,20,,,,,,,,,,,,,,,,,,,,,,,658.6925,659.8817,a,1,0.4465,1,659.8817,660.3774,,,,,,30,MAS,NOWORD,DIS,150,pono,,la,,0.4465,,660.3774,660.3774,0.830555556,0.112962963,0,0,0,,0,255,255,29,1,modo,,,,
,,,,,,,5dfa6109534539000bdf1496,676192165fb32c2e1fb7aee6,67d17280634ceb8b71ca6843,2025-03-12_12h55.25.812,Tarea de decisión léxica,2024.2.5,Win32,20,,,,,,,,,,,,,,,,,,,,,,,660.3779,661.4838,l,1,0.3685,1,661.4838,661.9778,,,,,,313,MAS,WORD,DIS,150,novio,,la,,0.3685,,661.9783,661.979,0.830555556,0.112962963,0,0,0,,0,256,256,312,1,govio,,,,
,,,,,,,5dfa6109534539000bdf1496,676192165fb32c2e1fb7aee6,67d17280634ceb8b71ca6843,2025-03-12_12h55.25.812,Tarea de decisión léxica,2024.2.5,Win32,20,,,,,,,,,,,,,,,,,,,,,,,661.9793,663.1058,l,1,0.3749,1,663.1059,663.6199,,,,,,11,MAS,WORD,AGR,150,lado,,el,,0.3749,,663.6199,663.6199,0.830555556,0.112962963,0,0,0,,0,257,257,10,1,bapo,,,,
,,,,,,,5dfa6109534539000bdf1496,676192165fb32c2e1fb7aee6,67d17280634ceb8b71ca6843,2025-03-12_12h55.25.812,Tarea de decisión léxica,2024.2.5,Win32,20,,,,,,,,,,,,,,,,,,,,,,,663.6203,664.7368,a,1,0.377,1,664.7368,665.2385,,,,,,424,MAS,NOWORD,AGR,150,quigo,,el,,0.377,,665.2385,665.2386,0.830555556,0.112962963,0,0,0,,0,258,258,423,1,queso,,,,
,,,,,,,5dfa6109534539000bdf1496,676192165fb32c2e1fb7aee6,67d17280634ceb8b71ca6843,2025-03-12_12h55.25.812,Tarea de decisión léxica,2024.2.5,Win32,20,,,,,,,,,,,,,,,,,,,,,,,665.239,666.3914,a,1,0.4292,1,666.3915,666.8804,,,,,,104,FEM,NOWORD,AGR,150,rova,,la,,0.4292,,666.8804,666.8804,0.830555556,0.112962963,0,0,0,,0,259,259,103,1,ruta,,,,
,,,,,,,5dfa6109534539000bdf1496,676192165fb32c2e1fb7aee6,67d17280634ceb8b71ca6843,2025-03-12_12h55.25.812,Tarea de decisión léxica,2024.2.5,Win32,20,,,,,,,,,,,,,,,,,,,,,,,666.8809,667.9347,a,1,0.3266,1,667.9347,668.3897,,,,,,122,MAS,NOWORD,DIS,150,bomo,,la,,0.3266,,668.3898,668.3898,0.830555556,0.112962963,0,0,0,,0,260,260,121,1,hoyo,,,,
,,,,,,,5dfa6109534539000bdf1496,676192165fb32c2e1fb7aee6,67d17280634ceb8b71ca6843,2025-03-12_12h55.25.812,Tarea de decisión léxica,2024.2.5,Win32,20,,,,,,,,,,,,,,,,,,,,,,,668.3901,669.5421,l,1,0.4426,1,669.5421,670.0338,,,,,,305,MAS,WORD,DIS,150,avión,,la,,0.4426,,670.0342,670.0354,0.830555556,0.112962963,0,0,0,,0,261,261,304,1,adiol,,,,
,,,,,,,5dfa6109534539000bdf1496,676192165fb32c2e1fb7aee6,67d17280634ceb8b71ca6843,2025-03-12_12h55.25.812,Tarea de decisión léxica,2024.2.5,Win32,20,,,,,,,,,,,,,,,,,,,,,,,670.0357,671.0423,l,0,0.2431,0,671.0426,671.5496,,,,,,124,FEM,NOWORD,AGR,150,maba,,la,,0.2431,,671.5496,671.5496,0.830555556,0.112962963,0,0,0,,0,262,262,123,1,flor,,,,
,,,,,,,5dfa6109534539000bdf1496,676192165fb32c2e1fb7aee6,67d17280634ceb8b71ca6843,2025-03-12_12h55.25.812,Tarea de decisión léxica,2024.2.5,Win32,20,,,,,,,,,,,,,,,,,,,,,,,671.55,672.8199,a,1,0.5148,1,672.8202,673.3215,,,,,,12,MAS,NOWORD,AGR,150,bapo,,el,,0.5148,,673.3215,673.3216,0.830555556,0.112962963,0,0,0,,0,263,263,11,1,lado,,,,
,,,,,,,5dfa6109534539000bdf1496,676192165fb32c2e1fb7aee6,67d17280634ceb8b71ca6843,2025-03-12_12h55.25.812,Tarea de decisión léxica,2024.2.5,Win32,20,,,,,,,,,,,,,,,,,,,,,,,673.322,674.474,l,1,0.3985,1,674.4741,674.9721,,,,,,219,FEM,WORD,AGR,150,pipa,,la,,0.3985,,674.9721,674.9722,0.830555556,0.112962963,0,0,0,,0,264,264,218,1,miva,,,,
,,,,,,,5dfa6109534539000bdf1496,676192165fb32c2e1fb7aee6,67d17280634ceb8b71ca6843,2025-03-12_12h55.25.812,Tarea de decisión léxica,2024.2.5,Win32,20,,,,,,,,,,,,,,,,,,,,,,,674.9727,676.0041,a,0,0.3207,0,676.0045,676.5149,,,,,,161,MAS,WORD,DIS,150,coro,,la,,0.3207,,676.515,676.515,0.830555556,0.112962963,0,0,0,,0,265,265,160,1,bopo,,,,
,,,,,,,5dfa6109534539000bdf1496,676192165fb32c2e1fb7aee6,67d17280634ceb8b71ca6843,2025-03-12_12h55.25.812,Tarea de decisión léxica,2024.2.5,Win32,20,,,,,,,,,,,,,,,,,,,,,,,676.5154,677.5895,l,1,0.3372,1,677.5899,678.0424,,,,,,1,FEM,WORD,DIS,150,casa,,el,,0.3372,,678.0428,678.0438,0.830555556,0.112962963,0,0,0,,0,266,266,0,1,mada,,,,
,,,,,,,5dfa6109534539000bdf1496,676192165fb32c2e1fb7aee6,67d17280634ceb8b71ca6843,2025-03-12_12h55.25.812,Tarea de decisión léxica,2024.2.5,Win32,20,,,,,,,,,,,,,,,,,,,,,,,678.044,679.1918,l,1,0.3874,1,679.1919,679.7023,,,,,,447,MAS,WORD,AGR,150,bolso,,el,,0.3874,,679.7024,679.7024,0.830555556,0.112962963,0,0,0,,0,267,267,446,1,buaso,,,,
,,,,,,,5dfa6109534539000bdf1496,676192165fb32c2e1fb7aee6,67d17280634ceb8b71ca6843,2025-03-12_12h55.25.812,Tarea de decisión léxica,2024.2.5,Win32,20,,,,,,,,,,,,,,,,,,,,,,,679.7029,680.9556,a,1,0.5211,1,680.9557,681.4454,,,,,,444,MAS,NOWORD,AGR,150,taron,,el,,0.5211,,681.4454,681.4454,0.830555556,0.112962963,0,0,0,,0,268,268,443,1,salón,,,,
,,,,,,,5dfa6109534539000bdf1496,676192165fb32c2e1fb7aee6,67d17280634ceb8b71ca6843,2025-03-12_12h55.25.812,Tarea de decisión léxica,2024.2.5,Win32,20,,,,,,,,,,,,,,,,,,,,,,,681.4458,682.6373,l,1,0.4451,1,682.6374,683.1497,,,,,,271,FEM,WORD,AGR,150,señal,,la,,0.4451,,683.1498,683.1499,0.830555556,0.112962963,0,0,0,,0,269,269,270,1,refal,,,,
,,,,,,,5dfa6109534539000bdf1496,676192165fb32c2e1fb7aee6,67d17280634ceb8b71ca6843,2025-03-12_12h55.25.812,Tarea de decisión léxica,2024.2.5,Win32,20,,,,,,,,,,,,,,,,,,,,,,,683.1502,684.1828,l,1,0.3281,1,684.1828,684.6721,,,,,,361,FEM,WORD,DIS,150,torre,,el,,0.3281,,684.6721,684.6721,0.830555556,0.112962963,0,0,0,,0,270,270,360,1,solle,,,,
