counterbalancing_condition,consent_prescreening.block_1/declare_consent,consent_prescreening.block_1/age_years,consent_prescreening.block_1/gender,consent_prescreening.block_1/language_disorder,consent_prescreening.block_1/first_language,PROLIFIC_PID,STUDY_ID,SESSION_ID,date,expName,psychopyVersion,OS,frameRate,check_prescreening_answers.started,check_prescreening_answers.stopped,Instructions.started,Instructions.stopped,instr_done_keyboard.keys,instr_done_keyboard.rt,instr_done_keyboard.duration,instr_done_touch.x,instr_done_touch.y,instr_done_touch.leftButton,instr_done_touch.midButton,instr_done_touch.rightButton,instr_done_touch.clicked_name,instruction_pages.thisRepN,instruction_pages.thisTrialN,instruction_pages.thisN,instruction_pages.thisIndex,instruction_pages.ran,pageN,phase,instruct_text,has_image,instruct_image,presentTrial.started,presentTrial.stopped,response.keys,response.corr,response.rt,response.duration,rt,corr,feedback.started,feedback.stopped,practice_trials.thisRepN,practice_trials.thisTrialN,practice_trials.thisN,practice_trials.thisIndex,practice_trials.ran,TrialID,Gender,StimulusType,Condition,PrimeDuration,Prime,len,Flanker,corrAns,Break.started,Break.stopped,break_done_touch.x,break_done_touch.y,break_done_touch.leftButton,break_done_touch.midButton,break_done_touch.rightButton,break_done_keyboard.keys,experiment_trials.thisRepN,experiment_trials.thisTrialN,experiment_trials.thisN,experiment_trials.thisIndex,experiment_trials.ran,PairedWith,break_done_touch.clicked_name,break_done_keyboard.rt,break_done_keyboard.duration,End.started,End.stopped
2,"[""comfortable"",""over_18"",""read_info"",""consent_given""]",32,M,"[""none""]","[""spanish""]",5e23c7e45ade0b6743da7d73,676192165fb32c2e1fb7aee6,67d177c5c99443588f4eb146,2025-03-12_06h02.55.390,Tarea de decisión léxica,2024.2.5,Win32,59.95203837,,,,,,,,,,,,,,,,,,,,,,,,,,,,,,,,,,,,,,,,,,,,,,,,,,,,,,,,,,,,,,,,,,
,,,,,,5e23c7e45ade0b6743da7d73,676192165fb32c2e1fb7aee6,67d177c5c99443588f4eb146,2025-03-12_06h02.55.390,Tarea de decisión léxica,2024.2.5,Win32,59.95203837,51.496,51.496,,,,,,,,,,,,,,,,,,,,,,,,,,,,,,,,,,,,,,,,,,,,,,,,,,,,,,,,,,,,,,,,
,,,,,,5e23c7e45ade0b6743da7d73,676192165fb32c2e1fb7aee6,67d177c5c99443588f4eb146,2025-03-12_06h02.55.390,Tarea de decisión léxica,2024.2.5,Win32,59.95203837,,,51.529,80.655,space,29.078,,-0.02037037,-0.134259259,0,0,0,,0,0,0,0,1,1,instructions,"INSTRUCCIONES
Va a realizar una prueba de decisión léxica. Desde el comienzo de la prueba mire siempre al centro de la pantalla. Se presentará una serie de cadenas de letras, una a la vez, en la pantalla. Su tarea consiste en determinar si cada cadena de letras constituye una palabra real en español o una no-palabra (una secuencia de letras que no constituye una palabra real). 

Pulse la tecla ESPACIO para continuar.",0,keyboardresponseNW.png,,,,,,,,,,,,,,,,,,,,,,,,,,,,,,,,,,,,,,,,,,,
,,,,,,5e23c7e45ade0b6743da7d73,676192165fb32c2e1fb7aee6,67d177c5c99443588f4eb146,2025-03-12_06h02.55.390,Tarea de decisión léxica,2024.2.5,Win32,59.95203837,,,80.66,90.66,space,9.98,,-0.02037037,-0.134259259,0,0,0,,0,1,1,1,1,2,instructions,"El procedimiento es el siguiente: Aparecerán dos barras verticales posicionadas en el centro de la pantalla, separadas por un pequeño espacio.Por favor, enfoque su atención en el espacio entre las barras. Esto preparará sus ojos para la siguiente cadena de letras, que aparecerá entre las dos barras durante un instante.

Pulse la tecla ESPACIO para continuar.",0,keyboardresponseNW.png,,,,,,,,,,,,,,,,,,,,,,,,,,,,,,,,,,,,,,,,,,,
,,,,,,5e23c7e45ade0b6743da7d73,676192165fb32c2e1fb7aee6,67d177c5c99443588f4eb146,2025-03-12_06h02.55.390,Tarea de decisión léxica,2024.2.5,Win32,59.95203837,,,90.663,124.384,space,33.658,,0.887962963,-0.038888889,0,0,0,,0,2,2,2,1,3,instructions,"En el teclado de su dispositivo, pulse la tecla ""L"" si la cadena de letras es una palabra real en español (por ejemplo: ""mano"") y la tecla ""A"" si la cadena de letras es una no-palabra (por ejemplo: ""minu"").
Pulse la tecla ESPACIO para continuar.",1,keyboardresponseNW.png,,,,,,,,,,,,,,,,,,,,,,,,,,,,,,,,,,,,,,,,,,,
,,,,,,5e23c7e45ade0b6743da7d73,676192165fb32c2e1fb7aee6,67d177c5c99443588f4eb146,2025-03-12_06h02.55.390,Tarea de decisión léxica,2024.2.5,Win32,59.95203837,,,124.387,134.502,space,10.083,,0.887962963,-0.038888889,0,0,0,,0,3,3,3,1,4,instructions,"Es muy importante que responda con la mayor rapidez y precisión posibles. Si no responde dentro de 2 segundos, aparecerá el mensaje ""Muy lento"" y el experimento pasará a la siguiente palabra. Inmediatamente después de su respuesta se indicará si fue correcta o no. Los primeros 15 intentos serán de práctica y habrá dos descansos durante la prueba.

Pulse la tecla ESPACIO  para iniciar la parte de práctica.",0,keyboardresponseNW.png,,,,,,,,,,,,,,,,,,,,,,,,,,,,,,,,,,,,,,,,,,,
,,,,,,5e23c7e45ade0b6743da7d73,676192165fb32c2e1fb7aee6,67d177c5c99443588f4eb146,2025-03-12_06h02.55.390,Tarea de decisión léxica,2024.2.5,Win32,59.95203837,,,,,,,,,,,,,,,,,,,,,,,,134.529,136.451,a,0,1.254,,1.254,0,136.453,136.949,0,0,0,7,1,1008,MAS,WORD,DIS,150,frío,4,la,l,,,,,,,,,,,,,,,,,,,
,,,,,,5e23c7e45ade0b6743da7d73,676192165fb32c2e1fb7aee6,67d177c5c99443588f4eb146,2025-03-12_06h02.55.390,Tarea de decisión léxica,2024.2.5,Win32,59.95203837,,,,,,,,,,,,,,,,,,,,,,,,136.953,138.766,l,0,1.141,,1.141,0,138.767,139.266,0,1,1,2,1,1003,FEM,NOWORD,DIS,150,muvor,5,el,a,,,,,,,,,,,,,,,,,,,
,,,,,,5e23c7e45ade0b6743da7d73,676192165fb32c2e1fb7aee6,67d177c5c99443588f4eb146,2025-03-12_06h02.55.390,Tarea de decisión léxica,2024.2.5,Win32,59.95203837,,,,,,,,,,,,,,,,,,,,,,,,139.27,141.25,l,1,1.311,,1.311,1,141.253,141.732,0,2,2,6,1,1007,MAS,WORD,DIS,150,masa,4,la,l,,,,,,,,,,,,,,,,,,,
,,,,,,5e23c7e45ade0b6743da7d73,676192165fb32c2e1fb7aee6,67d177c5c99443588f4eb146,2025-03-12_06h02.55.390,Tarea de decisión léxica,2024.2.5,Win32,59.95203837,,,,,,,,,,,,,,,,,,,,,,,,141.736,143.499,l,0,1.089,,1.089,0,143.502,143.991,0,3,3,0,1,1001,FEM,NOWORD,AGR,150,croz,4,la,a,,,,,,,,,,,,,,,,,,,
,,,,,,5e23c7e45ade0b6743da7d73,676192165fb32c2e1fb7aee6,67d177c5c99443588f4eb146,2025-03-12_06h02.55.390,Tarea de decisión léxica,2024.2.5,Win32,59.95203837,,,,,,,,,,,,,,,,,,,,,,,,143.996,145.666,a,1,1,,1,1,145.668,146.166,0,4,4,4,1,1005,MAS,NOWORD,DIS,150,nobad,5,la,a,,,,,,,,,,,,,,,,,,,
,,,,,,5e23c7e45ade0b6743da7d73,676192165fb32c2e1fb7aee6,67d177c5c99443588f4eb146,2025-03-12_06h02.55.390,Tarea de decisión léxica,2024.2.5,Win32,59.95203837,,,,,,,,,,,,,,,,,,,,,,,,146.17,147.452,l,1,0.611,,0.611,1,147.452,147.95,0,5,5,5,1,1006,FEM,WORD,AGR,150,cara,4,la,l,,,,,,,,,,,,,,,,,,,
,,,,,,5e23c7e45ade0b6743da7d73,676192165fb32c2e1fb7aee6,67d177c5c99443588f4eb146,2025-03-12_06h02.55.390,Tarea de decisión léxica,2024.2.5,Win32,59.95203837,,,,,,,,,,,,,,,,,,,,,,,,147.955,149.256,l,1,0.61,,0.61,1,149.256,149.753,0,6,6,9,1,1010,MAS,WORD,DIS,150,video,5,la,l,,,,,,,,,,,,,,,,,,,
,,,,,,5e23c7e45ade0b6743da7d73,676192165fb32c2e1fb7aee6,67d177c5c99443588f4eb146,2025-03-12_06h02.55.390,Tarea de decisión léxica,2024.2.5,Win32,59.95203837,,,,,,,,,,,,,,,,,,,,,,,,149.755,150.934,l,1,0.506,,0.506,1,150.934,151.426,0,7,7,8,1,1009,FEM,WORD,AGR,150,viejo,5,la,l,,,,,,,,,,,,,,,,,,,
,,,,,,5e23c7e45ade0b6743da7d73,676192165fb32c2e1fb7aee6,67d177c5c99443588f4eb146,2025-03-12_06h02.55.390,Tarea de decisión léxica,2024.2.5,Win32,59.95203837,,,,,,,,,,,,,,,,,,,,,,,,151.428,152.836,a,1,0.74,,0.74,1,152.836,153.332,0,8,8,3,1,1004,FEM,NOWORD,AGR,150,bireo,5,la,a,,,,,,,,,,,,,,,,,,,
,,,,,,5e23c7e45ade0b6743da7d73,676192165fb32c2e1fb7aee6,67d177c5c99443588f4eb146,2025-03-12_06h02.55.390,Tarea de decisión léxica,2024.2.5,Win32,59.95203837,,,,,,,,,,,,,,,,,,,,,,,,153.335,154.819,a,1,0.82,,0.82,1,154.819,155.318,0,9,9,1,1,1002,FEM,NOWORD,DIS,150,mabo,4,el,a,,,,,,,,,,,,,,,,,,,
,,,,,,5e23c7e45ade0b6743da7d73,676192165fb32c2e1fb7aee6,67d177c5c99443588f4eb146,2025-03-12_06h02.55.390,Tarea de decisión léxica,2024.2.5,Win32,59.95203837,,,160.472,169.244,space,8.751,,0.887962963,-0.038888889,0,0,0,,,,,,,,,,,,169.343,170.667,a,1,0.656,,0.656,1,170.669,171.167,,,,,,392,MAS,NOWORD,AGR,150,dievo,,el,,171.167,171.176,0.887962963,-0.038888889,0,0,0,,0,0,0,391,1,dueño,,,,,
,,,,,,5e23c7e45ade0b6743da7d73,676192165fb32c2e1fb7aee6,67d177c5c99443588f4eb146,2025-03-12_06h02.55.390,Tarea de decisión léxica,2024.2.5,Win32,59.95203837,,,,,,,,,,,,,,,,,,,,,,,,171.177,172.215,a,1,0.374,,0.374,1,172.216,172.704,,,,,,376,FEM,NOWORD,AGR,150,sasna,,la,,172.705,172.705,0.887962963,-0.038888889,0,0,0,,0,1,1,375,1,salsa,,,,,
,,,,,,5e23c7e45ade0b6743da7d73,676192165fb32c2e1fb7aee6,67d177c5c99443588f4eb146,2025-03-12_06h02.55.390,Tarea de decisión léxica,2024.2.5,Win32,59.95203837,,,,,,,,,,,,,,,,,,,,,,,,172.711,173.915,a,1,0.536,,0.536,1,173.915,174.415,,,,,,122,MAS,NOWORD,DIS,150,bomo,,la,,174.418,174.421,0.887962963,-0.038888889,0,0,0,,0,2,2,121,1,hoyo,,,,,
,,,,,,5e23c7e45ade0b6743da7d73,676192165fb32c2e1fb7aee6,67d177c5c99443588f4eb146,2025-03-12_06h02.55.390,Tarea de decisión léxica,2024.2.5,Win32,59.95203837,,,,,,,,,,,,,,,,,,,,,,,,174.422,175.582,l,1,0.485,,0.485,1,175.583,176.082,,,,,,265,FEM,WORD,DIS,150,mitad,,el,,176.082,176.083,0.887962963,-0.038888889,0,0,0,,0,3,3,264,1,pitat,,,,,
,,,,,,5e23c7e45ade0b6743da7d73,676192165fb32c2e1fb7aee6,67d177c5c99443588f4eb146,2025-03-12_06h02.55.390,Tarea de decisión léxica,2024.2.5,Win32,59.95203837,,,,,,,,,,,,,,,,,,,,,,,,176.086,177.733,l,1,0.978,,0.978,1,177.733,178.232,,,,,,223,FEM,WORD,AGR,150,cera,,la,,178.232,178.232,0.887962963,-0.038888889,0,0,0,,0,4,4,222,1,cira,,,,,
,,,,,,5e23c7e45ade0b6743da7d73,676192165fb32c2e1fb7aee6,67d177c5c99443588f4eb146,2025-03-12_06h02.55.390,Tarea de decisión léxica,2024.2.5,Win32,59.95203837,,,,,,,,,,,,,,,,,,,,,,,,178.235,179.366,l,1,0.469,,0.469,1,179.366,179.865,,,,,,471,FEM,WORD,AGR,150,grasa,,la,,179.866,179.866,0.887962963,-0.038888889,0,0,0,,0,5,5,470,1,prana,,,,,
,,,,,,5e23c7e45ade0b6743da7d73,676192165fb32c2e1fb7aee6,67d177c5c99443588f4eb146,2025-03-12_06h02.55.390,Tarea de decisión léxica,2024.2.5,Win32,59.95203837,,,,,,,,,,,,,,,,,,,,,,,,179.869,181.199,l,0,0.661,,0.661,0,181.201,181.686,,,,,,258,FEM,NOWORD,DIS,150,asama,,el,,181.686,181.686,0.887962963,-0.038888889,0,0,0,,0,6,6,257,1,amiga,,,,,
,,,,,,5e23c7e45ade0b6743da7d73,676192165fb32c2e1fb7aee6,67d177c5c99443588f4eb146,2025-03-12_06h02.55.390,Tarea de decisión léxica,2024.2.5,Win32,59.95203837,,,,,,,,,,,,,,,,,,,,,,,,181.688,182.935,l,1,0.579,,0.579,1,182.937,183.432,,,,,,439,FEM,WORD,AGR,150,presa,,la,,183.434,183.437,0.887962963,-0.038888889,0,0,0,,0,7,7,438,1,prema,,,,,
,,,,,,5e23c7e45ade0b6743da7d73,676192165fb32c2e1fb7aee6,67d177c5c99443588f4eb146,2025-03-12_06h02.55.390,Tarea de decisión léxica,2024.2.5,Win32,59.95203837,,,,,,,,,,,,,,,,,,,,,,,,183.438,184.599,a,1,0.5,,0.5,1,184.599,185.1,,,,,,256,MAS,NOWORD,AGR,150,mauco,,el,,185.1,185.101,0.887962963,-0.038888889,0,0,0,,0,8,8,255,1,miedo,,,,,
,,,,,,5e23c7e45ade0b6743da7d73,676192165fb32c2e1fb7aee6,67d177c5c99443588f4eb146,2025-03-12_06h02.55.390,Tarea de decisión léxica,2024.2.5,Win32,59.95203837,,,,,,,,,,,,,,,,,,,,,,,,185.103,186.439,a,1,0.669,,0.669,1,186.439,186.932,,,,,,324,FEM,NOWORD,AGR,150,certa,,la,,186.933,186.933,0.887962963,-0.038888889,0,0,0,,0,9,9,323,1,cinta,,,,,
,,,,,,5e23c7e45ade0b6743da7d73,676192165fb32c2e1fb7aee6,67d177c5c99443588f4eb146,2025-03-12_06h02.55.390,Tarea de decisión léxica,2024.2.5,Win32,59.95203837,,,,,,,,,,,,,,,,,,,,,,,,186.934,188.133,a,1,0.528,,0.528,1,188.133,188.632,,,,,,414,FEM,NOWORD,DIS,150,bieda,,el,,188.632,188.634,0.887962963,-0.038888889,0,0,0,,0,10,10,413,1,rueda,,,,,
,,,,,,5e23c7e45ade0b6743da7d73,676192165fb32c2e1fb7aee6,67d177c5c99443588f4eb146,2025-03-12_06h02.55.390,Tarea de decisión léxica,2024.2.5,Win32,59.95203837,,,,,,,,,,,,,,,,,,,,,,,,188.635,189.732,l,0,0.421,,0.421,0,189.734,190.232,,,,,,174,FEM,NOWORD,DIS,150,boma,,el,,190.235,190.238,0.887962963,-0.038888889,0,0,0,,0,11,11,173,1,rosa,,,,,
,,,,,,5e23c7e45ade0b6743da7d73,676192165fb32c2e1fb7aee6,67d177c5c99443588f4eb146,2025-03-12_06h02.55.390,Tarea de decisión léxica,2024.2.5,Win32,59.95203837,,,,,,,,,,,,,,,,,,,,,,,,190.239,191.289,l,1,0.374,,0.374,1,191.29,191.785,,,,,,19,MAS,WORD,AGR,150,niño,,el,,191.785,191.786,0.887962963,-0.038888889,0,0,0,,0,12,12,18,1,himo,,,,,
,,,,,,5e23c7e45ade0b6743da7d73,676192165fb32c2e1fb7aee6,67d177c5c99443588f4eb146,2025-03-12_06h02.55.390,Tarea de decisión léxica,2024.2.5,Win32,59.95203837,,,,,,,,,,,,,,,,,,,,,,,,191.788,192.999,a,1,0.541,,0.541,1,193,193.499,,,,,,388,FEM,NOWORD,AGR,150,bresa,,la,,193.499,193.499,0.887962963,-0.038888889,0,0,0,,0,13,13,387,1,crema,,,,,
,,,,,,5e23c7e45ade0b6743da7d73,676192165fb32c2e1fb7aee6,67d177c5c99443588f4eb146,2025-03-12_06h02.55.390,Tarea de decisión léxica,2024.2.5,Win32,59.95203837,,,,,,,,,,,,,,,,,,,,,,,,193.501,194.954,l,1,0.772,,0.772,1,194.955,195.452,,,,,,297,MAS,WORD,DIS,150,grupo,,la,,195.452,195.453,0.887962963,-0.038888889,0,0,0,,0,14,14,296,1,brubo,,,,,
,,,,,,5e23c7e45ade0b6743da7d73,676192165fb32c2e1fb7aee6,67d177c5c99443588f4eb146,2025-03-12_06h02.55.390,Tarea de decisión léxica,2024.2.5,Win32,59.95203837,,,,,,,,,,,,,,,,,,,,,,,,195.455,196.656,a,1,0.534,,0.534,1,196.657,197.153,,,,,,264,FEM,NOWORD,AGR,150,dosta,,la,,197.154,197.154,0.887962963,-0.038888889,0,0,0,,0,15,15,263,1,vista,,,,,
,,,,,,5e23c7e45ade0b6743da7d73,676192165fb32c2e1fb7aee6,67d177c5c99443588f4eb146,2025-03-12_06h02.55.390,Tarea de decisión léxica,2024.2.5,Win32,59.95203837,,,,,,,,,,,,,,,,,,,,,,,,197.159,198.565,a,1,0.743,,0.743,1,198.566,199.066,,,,,,336,FEM,NOWORD,AGR,150,pesta,,la,,199.069,199.072,0.887962963,-0.038888889,0,0,0,,0,16,16,335,1,costa,,,,,
,,,,,,5e23c7e45ade0b6743da7d73,676192165fb32c2e1fb7aee6,67d177c5c99443588f4eb146,2025-03-12_06h02.55.390,Tarea de decisión léxica,2024.2.5,Win32,59.95203837,,,,,,,,,,,,,,,,,,,,,,,,199.074,200.366,a,1,0.621,,0.621,1,200.367,200.855,,,,,,14,FEM,NOWORD,DIS,150,nola,,el,,200.855,200.856,0.887962963,-0.038888889,0,0,0,,0,17,17,13,1,hora,,,,,
,,,,,,5e23c7e45ade0b6743da7d73,676192165fb32c2e1fb7aee6,67d177c5c99443588f4eb146,2025-03-12_06h02.55.390,Tarea de decisión léxica,2024.2.5,Win32,59.95203837,,,,,,,,,,,,,,,,,,,,,,,,200.857,201.966,a,1,0.435,,0.435,1,201.966,202.465,,,,,,12,MAS,NOWORD,AGR,150,bapo,,el,,202.465,202.466,0.887962963,-0.038888889,0,0,0,,0,18,18,11,1,lado,,,,,
,,,,,,5e23c7e45ade0b6743da7d73,676192165fb32c2e1fb7aee6,67d177c5c99443588f4eb146,2025-03-12_06h02.55.390,Tarea de decisión léxica,2024.2.5,Win32,59.95203837,,,,,,,,,,,,,,,,,,,,,,,,202.469,203.565,l,1,0.427,,0.427,1,203.565,204.066,,,,,,303,MAS,WORD,AGR,150,barco,,el,,204.066,204.066,0.887962963,-0.038888889,0,0,0,,0,19,19,302,1,lanco,,,,,
,,,,,,5e23c7e45ade0b6743da7d73,676192165fb32c2e1fb7aee6,67d177c5c99443588f4eb146,2025-03-12_06h02.55.390,Tarea de decisión léxica,2024.2.5,Win32,59.95203837,,,,,,,,,,,,,,,,,,,,,,,,204.068,205.15,a,0,0.408,,0.408,0,205.153,205.65,,,,,,123,FEM,WORD,AGR,150,flor,,la,,205.65,205.65,0.887962963,-0.038888889,0,0,0,,0,20,20,122,1,maba,,,,,
,,,,,,5e23c7e45ade0b6743da7d73,676192165fb32c2e1fb7aee6,67d177c5c99443588f4eb146,2025-03-12_06h02.55.390,Tarea de decisión léxica,2024.2.5,Win32,59.95203837,,,,,,,,,,,,,,,,,,,,,,,,205.654,206.965,l,1,0.635,,0.635,1,206.968,207.465,,,,,,121,MAS,WORD,DIS,150,hoyo,,la,,207.467,207.474,0.887962963,-0.038888889,0,0,0,,0,21,21,120,1,bomo,,,,,
,,,,,,5e23c7e45ade0b6743da7d73,676192165fb32c2e1fb7aee6,67d177c5c99443588f4eb146,2025-03-12_06h02.55.390,Tarea de decisión léxica,2024.2.5,Win32,59.95203837,,,,,,,,,,,,,,,,,,,,,,,,207.475,208.722,l,1,0.575,,0.575,1,208.724,209.222,,,,,,151,MAS,WORD,AGR,150,tomo,,el,,209.222,209.223,0.887962963,-0.038888889,0,0,0,,0,22,22,150,1,sogo,,,,,
,,,,,,5e23c7e45ade0b6743da7d73,676192165fb32c2e1fb7aee6,67d177c5c99443588f4eb146,2025-03-12_06h02.55.390,Tarea de decisión léxica,2024.2.5,Win32,59.95203837,,,,,,,,,,,,,,,,,,,,,,,,209.225,210.353,a,1,0.466,,0.466,1,210.354,210.852,,,,,,338,MAS,NOWORD,DIS,150,nuejo,,la,,210.852,210.852,0.887962963,-0.038888889,0,0,0,,0,23,23,337,1,huevo,,,,,
,,,,,,5e23c7e45ade0b6743da7d73,676192165fb32c2e1fb7aee6,67d177c5c99443588f4eb146,2025-03-12_06h02.55.390,Tarea de decisión léxica,2024.2.5,Win32,59.95203837,,,,,,,,,,,,,,,,,,,,,,,,210.853,212.151,l,1,0.62,,0.62,1,212.151,212.653,,,,,,221,FEM,WORD,DIS,150,mula,,el,,212.653,212.654,0.887962963,-0.038888889,0,0,0,,0,24,24,220,1,puca,,,,,
,,,,,,5e23c7e45ade0b6743da7d73,676192165fb32c2e1fb7aee6,67d177c5c99443588f4eb146,2025-03-12_06h02.55.390,Tarea de decisión léxica,2024.2.5,Win32,59.95203837,,,,,,,,,,,,,,,,,,,,,,,,212.655,213.969,a,1,0.646,,0.646,1,213.97,214.465,,,,,,472,FEM,NOWORD,AGR,150,prana,,la,,214.465,214.466,0.887962963,-0.038888889,0,0,0,,0,25,25,471,1,grasa,,,,,
,,,,,,5e23c7e45ade0b6743da7d73,676192165fb32c2e1fb7aee6,67d177c5c99443588f4eb146,2025-03-12_06h02.55.390,Tarea de decisión léxica,2024.2.5,Win32,59.95203837,,,,,,,,,,,,,,,,,,,,,,,,214.469,215.632,l,1,0.492,,0.492,1,215.632,216.133,,,,,,199,MAS,WORD,AGR,150,lazo,,el,,216.135,216.139,0.887962963,-0.038888889,0,0,0,,0,26,26,198,1,fano,,,,,
,,,,,,5e23c7e45ade0b6743da7d73,676192165fb32c2e1fb7aee6,67d177c5c99443588f4eb146,2025-03-12_06h02.55.390,Tarea de decisión léxica,2024.2.5,Win32,59.95203837,,,,,,,,,,,,,,,,,,,,,,,,216.14,217.316,l,1,0.513,,0.513,1,217.317,217.805,,,,,,143,MAS,WORD,AGR,150,pavo,,el,,217.805,217.805,0.887962963,-0.038888889,0,0,0,,0,27,27,142,1,pezo,,,,,
,,,,,,5e23c7e45ade0b6743da7d73,676192165fb32c2e1fb7aee6,67d177c5c99443588f4eb146,2025-03-12_06h02.55.390,Tarea de decisión léxica,2024.2.5,Win32,59.95203837,,,,,,,,,,,,,,,,,,,,,,,,217.807,219.188,a,1,0.71,,0.71,1,219.188,219.682,,,,,,460,MAS,NOWORD,AGR,150,fraco,,el,,219.682,219.682,0.887962963,-0.038888889,0,0,0,,0,28,28,459,1,grado,,,,,
,,,,,,5e23c7e45ade0b6743da7d73,676192165fb32c2e1fb7aee6,67d177c5c99443588f4eb146,2025-03-12_06h02.55.390,Tarea de decisión léxica,2024.2.5,Win32,59.95203837,,,,,,,,,,,,,,,,,,,,,,,,219.684,220.882,a,1,0.537,,0.537,1,220.882,221.382,,,,,,298,MAS,NOWORD,DIS,150,brubo,,la,,221.382,221.382,0.887962963,-0.038888889,0,0,0,,0,29,29,297,1,grupo,,,,,
,,,,,,5e23c7e45ade0b6743da7d73,676192165fb32c2e1fb7aee6,67d177c5c99443588f4eb146,2025-03-12_06h02.55.390,Tarea de decisión léxica,2024.2.5,Win32,59.95203837,,,,,,,,,,,,,,,,,,,,,,,,221.385,222.651,a,1,0.595,,0.595,1,222.652,223.149,,,,,,384,FEM,NOWORD,AGR,150,brame,,la,,223.149,223.149,0.887962963,-0.038888889,0,0,0,,0,30,30,383,1,frase,,,,,
,,,,,,5e23c7e45ade0b6743da7d73,676192165fb32c2e1fb7aee6,67d177c5c99443588f4eb146,2025-03-12_06h02.55.390,Tarea de decisión léxica,2024.2.5,Win32,59.95203837,,,,,,,,,,,,,,,,,,,,,,,,223.151,224.333,l,1,0.514,,0.514,1,224.334,224.832,,,,,,305,MAS,WORD,DIS,150,avión,,la,,224.835,224.838,0.887962963,-0.038888889,0,0,0,,0,31,31,304,1,adiol,,,,,
,,,,,,5e23c7e45ade0b6743da7d73,676192165fb32c2e1fb7aee6,67d177c5c99443588f4eb146,2025-03-12_06h02.55.390,Tarea de decisión léxica,2024.2.5,Win32,59.95203837,,,,,,,,,,,,,,,,,,,,,,,,224.839,226.084,a,1,0.573,,0.573,1,226.085,226.583,,,,,,190,MAS,NOWORD,DIS,150,muvo,,la,,226.583,226.584,0.887962963,-0.038888889,0,0,0,,0,32,32,189,1,puño,,,,,
,,,,,,5e23c7e45ade0b6743da7d73,676192165fb32c2e1fb7aee6,67d177c5c99443588f4eb146,2025-03-12_06h02.55.390,Tarea de decisión léxica,2024.2.5,Win32,59.95203837,,,,,,,,,,,,,,,,,,,,,,,,226.589,227.736,a,1,0.483,,0.483,1,227.736,228.235,,,,,,144,MAS,NOWORD,AGR,150,pezo,,el,,228.236,228.236,0.887962963,-0.038888889,0,0,0,,0,33,33,143,1,pavo,,,,,
,,,,,,5e23c7e45ade0b6743da7d73,676192165fb32c2e1fb7aee6,67d177c5c99443588f4eb146,2025-03-12_06h02.55.390,Tarea de decisión léxica,2024.2.5,Win32,59.95203837,,,,,,,,,,,,,,,,,,,,,,,,228.239,229.382,l,1,0.473,,0.473,1,229.382,229.883,,,,,,55,MAS,WORD,AGR,150,gato,,el,,229.883,229.883,0.887962963,-0.038888889,0,0,0,,0,34,34,54,1,jado,,,,,
,,,,,,5e23c7e45ade0b6743da7d73,676192165fb32c2e1fb7aee6,67d177c5c99443588f4eb146,2025-03-12_06h02.55.390,Tarea de decisión léxica,2024.2.5,Win32,59.95203837,,,,,,,,,,,,,,,,,,,,,,,,229.886,231.15,l,1,0.595,,0.595,1,231.151,231.654,,,,,,235,FEM,WORD,AGR,150,grúa,,la,,231.656,231.66,0.887962963,-0.038888889,0,0,0,,0,35,35,234,1,tria,,,,,
,,,,,,5e23c7e45ade0b6743da7d73,676192165fb32c2e1fb7aee6,67d177c5c99443588f4eb146,2025-03-12_06h02.55.390,Tarea de decisión léxica,2024.2.5,Win32,59.95203837,,,,,,,,,,,,,,,,,,,,,,,,231.661,233.017,l,1,0.694,,0.694,1,233.018,233.515,,,,,,335,FEM,WORD,AGR,150,costa,,la,,233.515,233.515,0.887962963,-0.038888889,0,0,0,,0,36,36,334,1,pesta,,,,,
,,,,,,5e23c7e45ade0b6743da7d73,676192165fb32c2e1fb7aee6,67d177c5c99443588f4eb146,2025-03-12_06h02.55.390,Tarea de decisión léxica,2024.2.5,Win32,59.95203837,,,,,,,,,,,,,,,,,,,,,,,,233.519,234.649,l,1,0.457,,0.457,1,234.65,235.149,,,,,,177,MAS,WORD,DIS,150,reto,,la,,235.15,235.15,0.887962963,-0.038888889,0,0,0,,0,37,37,176,1,bito,,,,,
,,,,,,5e23c7e45ade0b6743da7d73,676192165fb32c2e1fb7aee6,67d177c5c99443588f4eb146,2025-03-12_06h02.55.390,Tarea de decisión léxica,2024.2.5,Win32,59.95203837,,,,,,,,,,,,,,,,,,,,,,,,235.152,236.432,a,1,0.608,,0.608,1,236.432,236.937,,,,,,62,FEM,NOWORD,DIS,150,efla,,el,,236.937,236.937,0.887962963,-0.038888889,0,0,0,,0,38,38,61,1,obra,,,,,
,,,,,,5e23c7e45ade0b6743da7d73,676192165fb32c2e1fb7aee6,67d177c5c99443588f4eb146,2025-03-12_06h02.55.390,Tarea de decisión léxica,2024.2.5,Win32,59.95203837,,,,,,,,,,,,,,,,,,,,,,,,236.941,238.166,a,1,0.562,,0.562,1,238.166,238.666,,,,,,110,MAS,NOWORD,DIS,150,suno,,la,,238.666,238.666,0.887962963,-0.038888889,0,0,0,,0,39,39,109,1,rayo,,,,,
,,,,,,5e23c7e45ade0b6743da7d73,676192165fb32c2e1fb7aee6,67d177c5c99443588f4eb146,2025-03-12_06h02.55.390,Tarea de decisión léxica,2024.2.5,Win32,59.95203837,,,,,,,,,,,,,,,,,,,,,,,,238.67,239.999,a,1,0.66,,0.66,1,239.999,240.499,,,,,,230,MAS,NOWORD,DIS,150,ador,,la,,240.501,240.505,0.887962963,-0.038888889,0,0,0,,0,40,40,229,1,amor,,,,,
,,,,,,5e23c7e45ade0b6743da7d73,676192165fb32c2e1fb7aee6,67d177c5c99443588f4eb146,2025-03-12_06h02.55.390,Tarea de decisión léxica,2024.2.5,Win32,59.95203837,,,,,,,,,,,,,,,,,,,,,,,,240.508,241.631,a,1,0.46,,0.46,1,241.631,242.132,,,,,,220,FEM,NOWORD,AGR,150,miva,,la,,242.132,242.132,0.887962963,-0.038888889,0,0,0,,0,41,41,219,1,pipa,,,,,
,,,,,,5e23c7e45ade0b6743da7d73,676192165fb32c2e1fb7aee6,67d177c5c99443588f4eb146,2025-03-12_06h02.55.390,Tarea de decisión léxica,2024.2.5,Win32,59.95203837,,,,,,,,,,,,,,,,,,,,,,,,242.135,243.251,a,1,0.443,,0.443,1,243.251,243.75,,,,,,56,MAS,NOWORD,AGR,150,jado,,el,,243.75,243.75,0.887962963,-0.038888889,0,0,0,,0,42,42,55,1,gato,,,,,
,,,,,,5e23c7e45ade0b6743da7d73,676192165fb32c2e1fb7aee6,67d177c5c99443588f4eb146,2025-03-12_06h02.55.390,Tarea de decisión léxica,2024.2.5,Win32,59.95203837,,,,,,,,,,,,,,,,,,,,,,,,243.753,245.255,l,1,0.816,,0.816,1,245.255,245.751,,,,,,87,MAS,WORD,AGR,150,vaso,,el,,245.751,245.751,0.887962963,-0.038888889,0,0,0,,0,43,43,86,1,damo,,,,,
,,,,,,5e23c7e45ade0b6743da7d73,676192165fb32c2e1fb7aee6,67d177c5c99443588f4eb146,2025-03-12_06h02.55.390,Tarea de decisión léxica,2024.2.5,Win32,59.95203837,,,,,,,,,,,,,,,,,,,,,,,,245.753,247.032,l,1,0.597,,0.597,1,247.032,247.532,,,,,,379,MAS,WORD,AGR,150,turno,,el,,247.533,247.533,0.887962963,-0.038888889,0,0,0,,0,44,44,378,1,tunso,,,,,
,,,,,,5e23c7e45ade0b6743da7d73,676192165fb32c2e1fb7aee6,67d177c5c99443588f4eb146,2025-03-12_06h02.55.390,Tarea de decisión léxica,2024.2.5,Win32,59.95203837,,,,,,,,,,,,,,,,,,,,,,,,247.536,248.766,a,1,0.574,,0.574,1,248.766,249.266,,,,,,112,MAS,NOWORD,AGR,150,siro,,el,,249.267,249.271,0.887962963,-0.038888889,0,0,0,,0,45,45,111,1,muro,,,,,
,,,,,,5e23c7e45ade0b6743da7d73,676192165fb32c2e1fb7aee6,67d177c5c99443588f4eb146,2025-03-12_06h02.55.390,Tarea de decisión léxica,2024.2.5,Win32,59.95203837,,,,,,,,,,,,,,,,,,,,,,,,249.271,250.486,l,1,0.543,,0.543,1,250.487,250.984,,,,,,23,FEM,WORD,AGR,150,hija,,la,,250.985,250.986,0.887962963,-0.038888889,0,0,0,,0,46,46,22,1,giva,,,,,
,,,,,,5e23c7e45ade0b6743da7d73,676192165fb32c2e1fb7aee6,67d177c5c99443588f4eb146,2025-03-12_06h02.55.390,Tarea de decisión léxica,2024.2.5,Win32,59.95203837,,,,,,,,,,,,,,,,,,,,,,,,250.988,252.888,l,1,1.206,,1.206,1,252.888,253.388,,,,,,45,FEM,WORD,DIS,150,mesa,,el,,253.388,253.388,0.887962963,-0.038888889,0,0,0,,0,47,47,44,1,pema,,,,,
,,,,,,5e23c7e45ade0b6743da7d73,676192165fb32c2e1fb7aee6,67d177c5c99443588f4eb146,2025-03-12_06h02.55.390,Tarea de decisión léxica,2024.2.5,Win32,59.95203837,,,,,,,,,,,,,,,,,,,,,,,,253.39,254.565,a,1,0.504,,0.504,1,254.565,255.053,,,,,,126,MAS,NOWORD,DIS,150,vudo,,la,,255.053,255.054,0.887962963,-0.038888889,0,0,0,,0,48,48,125,1,lujo,,,,,
,,,,,,5e23c7e45ade0b6743da7d73,676192165fb32c2e1fb7aee6,67d177c5c99443588f4eb146,2025-03-12_06h02.55.390,Tarea de decisión léxica,2024.2.5,Win32,59.95203837,,,,,,,,,,,,,,,,,,,,,,,,255.056,256.336,a,1,0.612,,0.612,1,256.336,256.832,,,,,,26,FEM,NOWORD,DIS,150,paza,,el,,256.833,256.834,0.887962963,-0.038888889,0,0,0,,0,49,49,25,1,cama,,,,,
,,,,,,5e23c7e45ade0b6743da7d73,676192165fb32c2e1fb7aee6,67d177c5c99443588f4eb146,2025-03-12_06h02.55.390,Tarea de decisión léxica,2024.2.5,Win32,59.95203837,,,,,,,,,,,,,,,,,,,,,,,,256.838,258.099,a,1,0.587,,0.587,1,258.099,258.599,,,,,,442,FEM,NOWORD,DIS,150,telza,,el,,258.602,258.604,0.887962963,-0.038888889,0,0,0,,0,50,50,441,1,selva,,,,,
,,,,,,5e23c7e45ade0b6743da7d73,676192165fb32c2e1fb7aee6,67d177c5c99443588f4eb146,2025-03-12_06h02.55.390,Tarea de decisión léxica,2024.2.5,Win32,59.95203837,,,,,,,,,,,,,,,,,,,,,,,,258.606,259.782,l,1,0.503,,0.503,1,259.785,260.289,,,,,,457,MAS,WORD,DIS,150,plato,,la,,260.29,260.29,0.887962963,-0.038888889,0,0,0,,0,51,51,456,1,glaco,,,,,
,,,,,,5e23c7e45ade0b6743da7d73,676192165fb32c2e1fb7aee6,67d177c5c99443588f4eb146,2025-03-12_06h02.55.390,Tarea de decisión léxica,2024.2.5,Win32,59.95203837,,,,,,,,,,,,,,,,,,,,,,,,260.293,261.432,a,1,0.474,,0.474,1,261.433,261.932,,,,,,424,MAS,NOWORD,AGR,150,quigo,,el,,261.932,261.932,0.887962963,-0.038888889,0,0,0,,0,52,52,423,1,queso,,,,,
,,,,,,5e23c7e45ade0b6743da7d73,676192165fb32c2e1fb7aee6,67d177c5c99443588f4eb146,2025-03-12_06h02.55.390,Tarea de decisión léxica,2024.2.5,Win32,59.95203837,,,,,,,,,,,,,,,,,,,,,,,,261.935,263.055,l,1,0.446,,0.446,1,263.055,263.549,,,,,,57,MAS,WORD,DIS,150,dedo,,la,,263.549,263.549,0.887962963,-0.038888889,0,0,0,,0,53,53,56,1,heco,,,,,
,,,,,,5e23c7e45ade0b6743da7d73,676192165fb32c2e1fb7aee6,67d177c5c99443588f4eb146,2025-03-12_06h02.55.390,Tarea de decisión léxica,2024.2.5,Win32,59.95203837,,,,,,,,,,,,,,,,,,,,,,,,263.551,264.699,a,1,0.466,,0.466,1,264.7,265.187,,,,,,200,MAS,NOWORD,AGR,150,fano,,el,,265.187,265.188,0.887962963,-0.038888889,0,0,0,,0,54,54,199,1,lazo,,,,,
,,,,,,5e23c7e45ade0b6743da7d73,676192165fb32c2e1fb7aee6,67d177c5c99443588f4eb146,2025-03-12_06h02.55.390,Tarea de decisión léxica,2024.2.5,Win32,59.95203837,,,,,,,,,,,,,,,,,,,,,,,,265.19,266.457,l,0,0.583,,0.583,0,266.459,266.956,,,,,,192,FEM,NOWORD,AGR,150,bila,,la,,266.956,266.96,0.887962963,-0.038888889,0,0,0,,0,55,55,191,1,pila,,,,,
,,,,,,5e23c7e45ade0b6743da7d73,676192165fb32c2e1fb7aee6,67d177c5c99443588f4eb146,2025-03-12_06h02.55.390,Tarea de decisión léxica,2024.2.5,Win32,59.95203837,,,,,,,,,,,,,,,,,,,,,,,,266.962,268.299,a,1,0.667,,0.667,1,268.301,268.789,,,,,,306,MAS,NOWORD,DIS,150,adiol,,la,,268.789,268.789,0.887962963,-0.038888889,0,0,0,,0,56,56,305,1,avión,,,,,
,,,,,,5e23c7e45ade0b6743da7d73,676192165fb32c2e1fb7aee6,67d177c5c99443588f4eb146,2025-03-12_06h02.55.390,Tarea de decisión léxica,2024.2.5,Win32,59.95203837,,,,,,,,,,,,,,,,,,,,,,,,268.794,269.951,l,1,0.482,,0.482,1,269.951,270.451,,,,,,291,FEM,WORD,AGR,150,pista,,la,,270.451,270.451,0.887962963,-0.038888889,0,0,0,,0,57,57,290,1,mesta,,,,,
,,,,,,5e23c7e45ade0b6743da7d73,676192165fb32c2e1fb7aee6,67d177c5c99443588f4eb146,2025-03-12_06h02.55.390,Tarea de decisión léxica,2024.2.5,Win32,59.95203837,,,,,,,,,,,,,,,,,,,,,,,,270.453,271.799,l,1,0.676,,0.676,1,271.799,272.299,,,,,,193,FEM,WORD,DIS,150,loca,,el,,272.299,272.299,0.887962963,-0.038888889,0,0,0,,0,58,58,192,1,foda,,,,,
,,,,,,5e23c7e45ade0b6743da7d73,676192165fb32c2e1fb7aee6,67d177c5c99443588f4eb146,2025-03-12_06h02.55.390,Tarea de decisión léxica,2024.2.5,Win32,59.95203837,,,,,,,,,,,,,,,,,,,,,,,,272.302,273.499,a,1,0.518,,0.518,1,273.5,273.999,,,,,,22,MAS,NOWORD,DIS,150,blan,,la,,274.001,274.004,0.887962963,-0.038888889,0,0,0,,0,59,59,21,1,plan,,,,,
,,,,,,5e23c7e45ade0b6743da7d73,676192165fb32c2e1fb7aee6,67d177c5c99443588f4eb146,2025-03-12_06h02.55.390,Tarea de decisión léxica,2024.2.5,Win32,59.95203837,,,,,,,,,,,,,,,,,,,,,,,,274.005,275.216,l,1,0.543,,0.543,1,275.218,275.721,,,,,,5,FEM,WORD,DIS,150,cosa,,el,,275.722,275.722,0.887962963,-0.038888889,0,0,0,,0,60,60,4,1,poga,,,,,
,,,,,,5e23c7e45ade0b6743da7d73,676192165fb32c2e1fb7aee6,67d177c5c99443588f4eb146,2025-03-12_06h02.55.390,Tarea de decisión léxica,2024.2.5,Win32,59.95203837,,,,,,,,,,,,,,,,,,,,,,,,275.724,277.119,l,1,0.716,,0.716,1,277.119,277.618,,,,,,29,MAS,WORD,DIS,150,modo,,la,,277.619,277.619,0.887962963,-0.038888889,0,0,0,,0,61,61,28,1,pono,,,,,
,,,,,,5e23c7e45ade0b6743da7d73,676192165fb32c2e1fb7aee6,67d177c5c99443588f4eb146,2025-03-12_06h02.55.390,Tarea de decisión léxica,2024.2.5,Win32,59.95203837,,,,,,,,,,,,,,,,,,,,,,,,277.622,278.815,a,1,0.526,,0.526,1,278.816,279.315,,,,,,290,FEM,NOWORD,DIS,150,bumpa,,el,,279.315,279.319,0.887962963,-0.038888889,0,0,0,,0,62,62,289,1,bomba,,,,,
,,,,,,5e23c7e45ade0b6743da7d73,676192165fb32c2e1fb7aee6,67d177c5c99443588f4eb146,2025-03-12_06h02.55.390,Tarea de decisión léxica,2024.2.5,Win32,59.95203837,,,,,,,,,,,,,,,,,,,,,,,,279.321,280.532,a,1,0.535,,0.535,1,280.532,281.032,,,,,,146,MAS,NOWORD,DIS,150,nobo,,la,,281.032,281.032,0.887962963,-0.038888889,0,0,0,,0,63,63,145,1,león,,,,,
,,,,,,5e23c7e45ade0b6743da7d73,676192165fb32c2e1fb7aee6,67d177c5c99443588f4eb146,2025-03-12_06h02.55.390,Tarea de decisión léxica,2024.2.5,Win32,59.95203837,,,,,,,,,,,,,,,,,,,,,,,,281.036,282.516,l,1,0.815,,0.815,1,282.52,283.021,,,,,,175,FEM,WORD,AGR,150,goma,,la,,283.022,283.027,0.887962963,-0.038888889,0,0,0,,0,64,64,174,1,hosa,,,,,
,,,,,,5e23c7e45ade0b6743da7d73,676192165fb32c2e1fb7aee6,67d177c5c99443588f4eb146,2025-03-12_06h02.55.390,Tarea de decisión léxica,2024.2.5,Win32,59.95203837,,,,,,,,,,,,,,,,,,,,,,,,283.028,284.133,l,1,0.445,,0.445,1,284.134,284.632,,,,,,269,MAS,WORD,DIS,150,perro,,la,,284.632,284.632,0.887962963,-0.038888889,0,0,0,,0,65,65,268,1,mello,,,,,
,,,,,,5e23c7e45ade0b6743da7d73,676192165fb32c2e1fb7aee6,67d177c5c99443588f4eb146,2025-03-12_06h02.55.390,Tarea de decisión léxica,2024.2.5,Win32,59.95203837,,,,,,,,,,,,,,,,,,,,,,,,284.634,285.816,a,1,0.498,,0.498,1,285.816,286.322,,,,,,358,FEM,NOWORD,DIS,150,gruba,,el,,286.322,286.323,0.887962963,-0.038888889,0,0,0,,0,66,66,357,1,bruja,,,,,
,,,,,,5e23c7e45ade0b6743da7d73,676192165fb32c2e1fb7aee6,67d177c5c99443588f4eb146,2025-03-12_06h02.55.390,Tarea de decisión léxica,2024.2.5,Win32,59.95203837,,,,,,,,,,,,,,,,,,,,,,,,286.33,287.6,l,1,0.606,,0.606,1,287.603,288.1,,,,,,59,FEM,WORD,AGR,150,sala,,la,,288.1,288.101,0.887962963,-0.038888889,0,0,0,,0,67,67,58,1,tafa,,,,,
,,,,,,5e23c7e45ade0b6743da7d73,676192165fb32c2e1fb7aee6,67d177c5c99443588f4eb146,2025-03-12_06h02.55.390,Tarea de decisión léxica,2024.2.5,Win32,59.95203837,,,,,,,,,,,,,,,,,,,,,,,,288.104,289.432,l,1,0.66,,0.66,1,289.432,289.932,,,,,,165,FEM,WORD,DIS,150,vela,,el,,289.932,289.932,0.887962963,-0.038888889,0,0,0,,0,68,68,164,1,dera,,,,,
,,,,,,5e23c7e45ade0b6743da7d73,676192165fb32c2e1fb7aee6,67d177c5c99443588f4eb146,2025-03-12_06h02.55.390,Tarea de decisión léxica,2024.2.5,Win32,59.95203837,,,,,,,,,,,,,,,,,,,,,,,,289.934,291.3,a,1,0.686,,0.686,1,291.301,291.799,,,,,,206,FEM,NOWORD,DIS,150,bara,,el,,291.802,291.805,0.887962963,-0.038888889,0,0,0,,0,69,69,205,1,rana,,,,,
,,,,,,5e23c7e45ade0b6743da7d73,676192165fb32c2e1fb7aee6,67d177c5c99443588f4eb146,2025-03-12_06h02.55.390,Tarea de decisión léxica,2024.2.5,Win32,59.95203837,,,,,,,,,,,,,,,,,,,,,,,,291.806,292.982,l,1,0.51,,0.51,1,292.982,293.482,,,,,,357,FEM,WORD,DIS,150,bruja,,el,,293.483,293.483,0.887962963,-0.038888889,0,0,0,,0,70,70,356,1,gruba,,,,,
,,,,,,5e23c7e45ade0b6743da7d73,676192165fb32c2e1fb7aee6,67d177c5c99443588f4eb146,2025-03-12_06h02.55.390,Tarea de decisión léxica,2024.2.5,Win32,59.95203837,,,,,,,,,,,,,,,,,,,,,,,,293.486,294.783,a,0,0.622,,0.622,0,294.785,295.283,,,,,,251,MAS,WORD,AGR,150,señor,,el,,295.283,295.283,0.887962963,-0.038888889,0,0,0,,0,71,71,250,1,refor,,,,,
,,,,,,5e23c7e45ade0b6743da7d73,676192165fb32c2e1fb7aee6,67d177c5c99443588f4eb146,2025-03-12_06h02.55.390,Tarea de decisión léxica,2024.2.5,Win32,59.95203837,,,,,,,,,,,,,,,,,,,,,,,,295.285,296.588,l,1,0.622,,0.622,1,296.591,297.083,,,,,,215,FEM,WORD,AGR,150,raíz,,la,,297.084,297.084,0.887962963,-0.038888889,0,0,0,,0,72,72,214,1,raua,,,,,
,,,,,,5e23c7e45ade0b6743da7d73,676192165fb32c2e1fb7aee6,67d177c5c99443588f4eb146,2025-03-12_06h02.55.390,Tarea de decisión léxica,2024.2.5,Win32,59.95203837,,,,,,,,,,,,,,,,,,,,,,,,297.086,298.249,l,1,0.484,,0.484,1,298.249,298.75,,,,,,325,FEM,WORD,DIS,150,magia,,el,,298.75,298.751,0.887962963,-0.038888889,0,0,0,,0,73,73,324,1,mabia,,,,,
,,,,,,5e23c7e45ade0b6743da7d73,676192165fb32c2e1fb7aee6,67d177c5c99443588f4eb146,2025-03-12_06h02.55.390,Tarea de decisión léxica,2024.2.5,Win32,59.95203837,,,,,,,,,,,,,,,,,,,,,,,,298.753,300.032,a,1,0.594,,0.594,1,300.033,300.521,,,,,,70,FEM,NOWORD,DIS,150,ñola,,el,,300.524,300.526,0.887962963,-0.038888889,0,0,0,,0,74,74,69,1,zona,,,,,
,,,,,,5e23c7e45ade0b6743da7d73,676192165fb32c2e1fb7aee6,67d177c5c99443588f4eb146,2025-03-12_06h02.55.390,Tarea de decisión léxica,2024.2.5,Win32,59.95203837,,,,,,,,,,,,,,,,,,,,,,,,300.527,301.754,l,1,0.551,,0.551,1,301.754,302.252,,,,,,81,FEM,WORD,DIS,150,dama,,el,,302.252,302.252,0.887962963,-0.038888889,0,0,0,,0,75,75,80,1,vasa,,,,,
,,,,,,5e23c7e45ade0b6743da7d73,676192165fb32c2e1fb7aee6,67d177c5c99443588f4eb146,2025-03-12_06h02.55.390,Tarea de decisión léxica,2024.2.5,Win32,59.95203837,,,,,,,,,,,,,,,,,,,,,,,,302.254,303.553,l,1,0.626,,0.626,1,303.554,304.051,,,,,,435,MAS,WORD,AGR,150,ritmo,,el,,304.052,304.053,0.887962963,-0.038888889,0,0,0,,0,76,76,434,1,ricno,,,,,
,,,,,,5e23c7e45ade0b6743da7d73,676192165fb32c2e1fb7aee6,67d177c5c99443588f4eb146,2025-03-12_06h02.55.390,Tarea de decisión léxica,2024.2.5,Win32,59.95203837,,,,,,,,,,,,,,,,,,,,,,,,304.055,305.532,a,1,0.799,,0.799,1,305.532,306.021,,,,,,80,FEM,NOWORD,AGR,150,ciel,,la,,306.021,306.021,0.887962963,-0.038888889,0,0,0,,0,77,77,79,1,piel,,,,,
,,,,,,5e23c7e45ade0b6743da7d73,676192165fb32c2e1fb7aee6,67d177c5c99443588f4eb146,2025-03-12_06h02.55.390,Tarea de decisión léxica,2024.2.5,Win32,59.95203837,,,,,,,,,,,,,,,,,,,,,,,,306.023,307.365,a,1,0.666,,0.666,1,307.365,307.865,,,,,,204,FEM,NOWORD,AGR,150,beja,,la,,307.865,307.865,0.887962963,-0.038888889,0,0,0,,0,78,78,203,1,leña,,,,,
,,,,,,5e23c7e45ade0b6743da7d73,676192165fb32c2e1fb7aee6,67d177c5c99443588f4eb146,2025-03-12_06h02.55.390,Tarea de decisión léxica,2024.2.5,Win32,59.95203837,,,,,,,,,,,,,,,,,,,,,,,,307.868,309.648,l,0,1.102,,1.102,0,309.652,310.148,,,,,,430,FEM,NOWORD,DIS,150,tenta,,el,,310.154,310.157,0.887962963,-0.038888889,0,0,0,,0,79,79,429,1,tarta,,,,,
,,,,,,5e23c7e45ade0b6743da7d73,676192165fb32c2e1fb7aee6,67d177c5c99443588f4eb146,2025-03-12_06h02.55.390,Tarea de decisión léxica,2024.2.5,Win32,59.95203837,,,,,,,,,,,,,,,,,,,,,,,,310.16,311.465,l,1,0.642,,0.642,1,311.467,311.965,,,,,,3,FEM,WORD,AGR,150,vida,,la,,311.965,311.965,0.887962963,-0.038888889,0,0,0,,0,80,80,2,1,dica,,,,,
,,,,,,5e23c7e45ade0b6743da7d73,676192165fb32c2e1fb7aee6,67d177c5c99443588f4eb146,2025-03-12_06h02.55.390,Tarea de decisión léxica,2024.2.5,Win32,59.95203837,,,,,,,,,,,,,,,,,,,,,,,,311.968,313.265,a,1,0.624,,0.624,1,313.266,313.766,,,,,,422,MAS,NOWORD,DIS,150,griso,,la,,313.766,313.767,0.887962963,-0.038888889,0,0,0,,0,81,81,421,1,primo,,,,,
,,,,,,5e23c7e45ade0b6743da7d73,676192165fb32c2e1fb7aee6,67d177c5c99443588f4eb146,2025-03-12_06h02.55.390,Tarea de decisión léxica,2024.2.5,Win32,59.95203837,,,,,,,,,,,,,,,,,,,,,,,,313.769,315.115,a,1,0.673,,0.673,1,315.115,315.617,,,,,,246,FEM,NOWORD,DIS,150,pafle,,el,,315.617,315.617,0.887962963,-0.038888889,0,0,0,,0,82,82,245,1,madre,,,,,
,,,,,,5e23c7e45ade0b6743da7d73,676192165fb32c2e1fb7aee6,67d177c5c99443588f4eb146,2025-03-12_06h02.55.390,Tarea de decisión léxica,2024.2.5,Win32,59.95203837,,,,,,,,,,,,,,,,,,,,,,,,315.619,316.852,a,1,0.559,,0.559,1,316.855,317.349,,,,,,318,FEM,NOWORD,DIS,150,plaad,,el,,317.353,317.357,0.887962963,-0.038888889,0,0,0,,0,83,83,317,1,playa,,,,,
,,,,,,5e23c7e45ade0b6743da7d73,676192165fb32c2e1fb7aee6,67d177c5c99443588f4eb146,2025-03-12_06h02.55.390,Tarea de decisión léxica,2024.2.5,Win32,59.95203837,,,,,,,,,,,,,,,,,,,,,,,,317.36,318.65,l,1,0.625,,0.625,1,318.65,319.148,,,,,,273,FEM,WORD,DIS,150,broma,,el,,319.148,319.149,0.887962963,-0.038888889,0,0,0,,0,84,84,272,1,frosa,,,,,
,,,,,,5e23c7e45ade0b6743da7d73,676192165fb32c2e1fb7aee6,67d177c5c99443588f4eb146,2025-03-12_06h02.55.390,Tarea de decisión léxica,2024.2.5,Win32,59.95203837,,,,,,,,,,,,,,,,,,,,,,,,319.152,320.465,a,1,0.634,,0.634,1,320.466,320.965,,,,,,314,MAS,NOWORD,DIS,150,govio,,la,,320.966,320.967,0.887962963,-0.038888889,0,0,0,,0,85,85,313,1,novio,,,,,
,,,,,,5e23c7e45ade0b6743da7d73,676192165fb32c2e1fb7aee6,67d177c5c99443588f4eb146,2025-03-12_06h02.55.390,Tarea de decisión léxica,2024.2.5,Win32,59.95203837,,,,,,,,,,,,,,,,,,,,,,,,320.97,322.215,l,1,0.562,,0.562,1,322.216,322.716,,,,,,261,MAS,WORD,DIS,150,sitio,,la,,322.716,322.717,0.887962963,-0.038888889,0,0,0,,0,86,86,260,1,titio,,,,,
,,,,,,5e23c7e45ade0b6743da7d73,676192165fb32c2e1fb7aee6,67d177c5c99443588f4eb146,2025-03-12_06h02.55.390,Tarea de decisión léxica,2024.2.5,Win32,59.95203837,,,,,,,,,,,,,,,,,,,,,,,,322.721,324.008,a,1,0.62,,0.62,1,324.008,324.499,,,,,,106,FEM,NOWORD,DIS,150,vina,,el,,324.499,324.5,0.887962963,-0.038888889,0,0,0,,0,87,87,105,1,sopa,,,,,
,,,,,,5e23c7e45ade0b6743da7d73,676192165fb32c2e1fb7aee6,67d177c5c99443588f4eb146,2025-03-12_06h02.55.390,Tarea de decisión léxica,2024.2.5,Win32,59.95203837,,,,,,,,,,,,,,,,,,,,,,,,324.501,325.701,a,1,0.52,,0.52,1,325.702,326.199,,,,,,466,FEM,NOWORD,DIS,150,asuba,,el,,326.201,326.205,0.887962963,-0.038888889,0,0,0,,0,88,88,465,1,aguja,,,,,
,,,,,,5e23c7e45ade0b6743da7d73,676192165fb32c2e1fb7aee6,67d177c5c99443588f4eb146,2025-03-12_06h02.55.390,Tarea de decisión léxica,2024.2.5,Win32,59.95203837,,,,,,,,,,,,,,,,,,,,,,,,326.207,327.435,l,1,0.551,,0.551,1,327.436,327.936,,,,,,73,MAS,WORD,DIS,150,odio,,la,,327.936,327.936,0.887962963,-0.038888889,0,0,0,,0,89,89,72,1,omio,,,,,
,,,,,,5e23c7e45ade0b6743da7d73,676192165fb32c2e1fb7aee6,67d177c5c99443588f4eb146,2025-03-12_06h02.55.390,Tarea de decisión léxica,2024.2.5,Win32,59.95203837,,,,,,,,,,,,,,,,,,,,,,,,327.937,329.436,a,1,0.817,,0.817,1,329.437,329.932,,,,,,286,MAS,NOWORD,DIS,150,echor,,la,,329.932,329.933,0.887962963,-0.038888889,0,0,0,,0,90,90,285,1,error,,,,,
,,,,,,5e23c7e45ade0b6743da7d73,676192165fb32c2e1fb7aee6,67d177c5c99443588f4eb146,2025-03-12_06h02.55.390,Tarea de decisión léxica,2024.2.5,Win32,59.95203837,,,,,,,,,,,,,,,,,,,,,,,,329.938,331.176,a,1,0.568,,0.568,1,331.176,331.675,,,,,,234,FEM,NOWORD,DIS,150,fasa,,el,,331.675,331.675,0.887962963,-0.038888889,0,0,0,,0,91,91,233,1,lana,,,,,
,,,,,,5e23c7e45ade0b6743da7d73,676192165fb32c2e1fb7aee6,67d177c5c99443588f4eb146,2025-03-12_06h02.55.390,Tarea de decisión léxica,2024.2.5,Win32,59.95203837,,,,,,,,,,,,,,,,,,,,,,,,331.677,332.866,l,1,0.516,,0.516,1,332.866,333.365,,,,,,373,FEM,WORD,DIS,150,pizza,,el,,333.365,333.366,0.887962963,-0.038888889,0,0,0,,0,92,92,372,1,pogza,,,,,
,,,,,,5e23c7e45ade0b6743da7d73,676192165fb32c2e1fb7aee6,67d177c5c99443588f4eb146,2025-03-12_06h02.55.390,Tarea de decisión léxica,2024.2.5,Win32,59.95203837,,,,,,,,,,,,,,,,,,,,,,,,333.371,334.634,a,0,0.587,,0.587,0,334.64,335.132,,,,,,447,MAS,WORD,AGR,150,bolso,,el,,335.134,335.139,0.887962963,-0.038888889,0,0,0,,0,93,93,446,1,buaso,,,,,
,,,,,,5e23c7e45ade0b6743da7d73,676192165fb32c2e1fb7aee6,67d177c5c99443588f4eb146,2025-03-12_06h02.55.390,Tarea de decisión léxica,2024.2.5,Win32,59.95203837,,,,,,,,,,,,,,,,,,,,,,,,335.14,336.315,l,1,0.505,,0.505,1,336.317,336.816,,,,,,157,MAS,WORD,DIS,150,nido,,la,,336.816,336.816,0.887962963,-0.038888889,0,0,0,,0,94,94,156,1,hico,,,,,
,,,,,,5e23c7e45ade0b6743da7d73,676192165fb32c2e1fb7aee6,67d177c5c99443588f4eb146,2025-03-12_06h02.55.390,Tarea de decisión léxica,2024.2.5,Win32,59.95203837,,,,,,,,,,,,,,,,,,,,,,,,336.818,337.967,a,1,0.471,,0.471,1,337.967,338.465,,,,,,120,MAS,NOWORD,AGR,150,hooy,,el,,338.465,338.465,0.887962963,-0.038888889,0,0,0,,0,95,95,119,1,pozo,,,,,
,,,,,,5e23c7e45ade0b6743da7d73,676192165fb32c2e1fb7aee6,67d177c5c99443588f4eb146,2025-03-12_06h02.55.390,Tarea de decisión léxica,2024.2.5,Win32,59.95203837,,,,,,,,,,,,,,,,,,,,,,,,338.471,339.632,l,1,0.49,,0.49,1,339.633,340.132,,,,,,207,MAS,WORD,AGR,150,kilo,,el,,340.132,340.132,0.887962963,-0.038888889,0,0,0,,0,96,96,206,1,kedo,,,,,
,,,,,,5e23c7e45ade0b6743da7d73,676192165fb32c2e1fb7aee6,67d177c5c99443588f4eb146,2025-03-12_06h02.55.390,Tarea de decisión léxica,2024.2.5,Win32,59.95203837,,,,,,,,,,,,,,,,,,,,,,,,340.134,341.382,l,1,0.576,,0.576,1,341.382,341.882,,,,,,189,MAS,WORD,DIS,150,puño,,la,,341.882,341.882,0.887962963,-0.038888889,0,0,0,,0,97,97,188,1,muvo,,,,,
,,,,,,5e23c7e45ade0b6743da7d73,676192165fb32c2e1fb7aee6,67d177c5c99443588f4eb146,2025-03-12_06h02.55.390,Tarea de decisión léxica,2024.2.5,Win32,59.95203837,,,,,,,,,,,,,,,,,,,,,,,,341.885,343.015,l,1,0.46,,0.46,1,343.016,343.515,,,,,,93,FEM,WORD,DIS,150,bola,,el,,343.517,343.52,0.887962963,-0.038888889,0,0,0,,0,98,98,92,1,rona,,,,,
,,,,,,5e23c7e45ade0b6743da7d73,676192165fb32c2e1fb7aee6,67d177c5c99443588f4eb146,2025-03-12_06h02.55.390,Tarea de decisión léxica,2024.2.5,Win32,59.95203837,,,,,,,,,,,,,,,,,,,,,,,,343.52,345.304,l,0,1.106,,1.106,0,345.306,345.8,,,,,,40,MAS,NOWORD,AGR,150,redo,,el,,345.8,345.801,0.887962963,-0.038888889,0,0,0,,0,99,99,39,1,voto,,,,,
,,,,,,5e23c7e45ade0b6743da7d73,676192165fb32c2e1fb7aee6,67d177c5c99443588f4eb146,2025-03-12_06h02.55.390,Tarea de decisión léxica,2024.2.5,Win32,59.95203837,,,,,,,,,,,,,,,,,,,,,,,,345.803,347.115,a,1,0.627,,0.627,1,347.117,347.616,,,,,,382,MAS,NOWORD,DIS,150,nusor,,la,,347.616,347.616,0.887962963,-0.038888889,0,0,0,,0,100,100,381,1,humor,,,,,
,,,,,,5e23c7e45ade0b6743da7d73,676192165fb32c2e1fb7aee6,67d177c5c99443588f4eb146,2025-03-12_06h02.55.390,Tarea de decisión léxica,2024.2.5,Win32,59.95203837,,,,,,,,,,,,,,,,,,,,,,,,347.621,348.704,a,1,0.408,,0.408,1,348.704,349.204,,,,,,448,MAS,NOWORD,AGR,150,buaso,,el,,349.204,349.206,0.887962963,-0.038888889,0,0,0,,0,101,101,447,1,bolso,,,,,
,,,,,,5e23c7e45ade0b6743da7d73,676192165fb32c2e1fb7aee6,67d177c5c99443588f4eb146,2025-03-12_06h02.55.390,Tarea de decisión léxica,2024.2.5,Win32,59.95203837,,,,,,,,,,,,,,,,,,,,,,,,349.21,350.515,a,1,0.633,,0.633,1,350.516,351.016,,,,,,94,FEM,NOWORD,DIS,150,rona,,el,,351.017,351.019,0.887962963,-0.038888889,0,0,0,,0,102,102,93,1,bola,,,,,
,,,,,,5e23c7e45ade0b6743da7d73,676192165fb32c2e1fb7aee6,67d177c5c99443588f4eb146,2025-03-12_06h02.55.390,Tarea de decisión léxica,2024.2.5,Win32,59.95203837,,,,,,,,,,,,,,,,,,,,,,,,351.022,352.135,a,1,0.437,,0.437,1,352.137,352.636,,,,,,240,MAS,NOWORD,AGR,150,poño,,el,,352.637,352.642,0.887962963,-0.038888889,0,0,0,,0,103,103,239,1,mozo,,,,,
,,,,,,5e23c7e45ade0b6743da7d73,676192165fb32c2e1fb7aee6,67d177c5c99443588f4eb146,2025-03-12_06h02.55.390,Tarea de decisión léxica,2024.2.5,Win32,59.95203837,,,,,,,,,,,,,,,,,,,,,,,,352.643,353.749,a,1,0.432,,0.432,1,353.749,354.249,,,,,,194,FEM,NOWORD,DIS,150,foda,,el,,354.249,354.249,0.887962963,-0.038888889,0,0,0,,0,104,104,193,1,loca,,,,,
,,,,,,5e23c7e45ade0b6743da7d73,676192165fb32c2e1fb7aee6,67d177c5c99443588f4eb146,2025-03-12_06h02.55.390,Tarea de decisión léxica,2024.2.5,Win32,59.95203837,,,,,,,,,,,,,,,,,,,,,,,,354.252,355.449,a,1,0.537,,0.537,1,355.45,355.948,,,,,,84,FEM,NOWORD,AGR,150,taga,,la,,355.948,355.949,0.887962963,-0.038888889,0,0,0,,0,105,105,83,1,bala,,,,,
,,,,,,5e23c7e45ade0b6743da7d73,676192165fb32c2e1fb7aee6,67d177c5c99443588f4eb146,2025-03-12_06h02.55.390,Tarea de decisión léxica,2024.2.5,Win32,59.95203837,,,,,,,,,,,,,,,,,,,,,,,,355.952,357.133,a,1,0.501,,0.501,1,357.134,357.632,,,,,,150,MAS,NOWORD,DIS,150,pafo,,la,,357.633,357.635,0.887962963,-0.038888889,0,0,0,,0,106,106,149,1,cabo,,,,,
,,,,,,5e23c7e45ade0b6743da7d73,676192165fb32c2e1fb7aee6,67d177c5c99443588f4eb146,2025-03-12_06h02.55.390,Tarea de decisión léxica,2024.2.5,Win32,59.95203837,,,,,,,,,,,,,,,,,,,,,,,,357.637,358.932,a,0,0.621,,0.621,0,358.935,359.432,,,,,,9,MAS,WORD,DIS,150,tipo,,la,,359.436,359.443,0.887962963,-0.038888889,0,0,0,,0,107,107,8,1,sibo,,,,,
,,,,,,5e23c7e45ade0b6743da7d73,676192165fb32c2e1fb7aee6,67d177c5c99443588f4eb146,2025-03-12_06h02.55.390,Tarea de decisión léxica,2024.2.5,Win32,59.95203837,,,,,,,,,,,,,,,,,,,,,,,,359.444,360.799,a,1,0.691,,0.691,1,360.803,361.299,,,,,,456,MAS,NOWORD,AGR,150,riaso,,el,,361.299,361.302,0.887962963,-0.038888889,0,0,0,,0,108,108,455,1,reino,,,,,
,,,,,,5e23c7e45ade0b6743da7d73,676192165fb32c2e1fb7aee6,67d177c5c99443588f4eb146,2025-03-12_06h02.55.390,Tarea de decisión léxica,2024.2.5,Win32,59.95203837,,,,,,,,,,,,,,,,,,,,,,,,361.304,362.416,l,1,0.442,,0.442,1,362.416,362.915,,,,,,117,MAS,WORD,DIS,150,palo,,la,,362.915,362.916,0.887962963,-0.038888889,0,0,0,,0,109,109,116,1,movo,,,,,
,,,,,,5e23c7e45ade0b6743da7d73,676192165fb32c2e1fb7aee6,67d177c5c99443588f4eb146,2025-03-12_06h02.55.390,Tarea de decisión léxica,2024.2.5,Win32,59.95203837,,,,,,,,,,,,,,,,,,,,,,,,362.918,364.465,a,0,0.884,,0.884,0,364.468,364.965,,,,,,197,MAS,WORD,DIS,150,bate,,la,,364.965,364.967,0.887962963,-0.038888889,0,0,0,,0,110,110,196,1,dade,,,,,
,,,,,,5e23c7e45ade0b6743da7d73,676192165fb32c2e1fb7aee6,67d177c5c99443588f4eb146,2025-03-12_06h02.55.390,Tarea de decisión léxica,2024.2.5,Win32,59.95203837,,,,,,,,,,,,,,,,,,,,,,,,364.972,366.216,l,1,0.576,,0.576,1,366.218,366.715,,,,,,183,FEM,WORD,AGR,150,raya,,la,,366.716,366.716,0.887962963,-0.038888889,0,0,0,,0,111,111,182,1,raad,,,,,
,,,,,,5e23c7e45ade0b6743da7d73,676192165fb32c2e1fb7aee6,67d177c5c99443588f4eb146,2025-03-12_06h02.55.390,Tarea de decisión léxica,2024.2.5,Win32,59.95203837,,,,,,,,,,,,,,,,,,,,,,,,366.719,367.815,l,1,0.419,,0.419,1,367.816,368.315,,,,,,13,FEM,WORD,DIS,150,hora,,el,,368.317,368.321,0.887962963,-0.038888889,0,0,0,,0,112,112,12,1,nola,,,,,
,,,,,,5e23c7e45ade0b6743da7d73,676192165fb32c2e1fb7aee6,67d177c5c99443588f4eb146,2025-03-12_06h02.55.390,Tarea de decisión léxica,2024.2.5,Win32,59.95203837,,,,,,,,,,,,,,,,,,,,,,,,368.322,369.567,l,1,0.568,,0.568,1,369.567,370.065,,,,,,225,MAS,WORD,DIS,150,lodo,,la,,370.065,370.066,0.887962963,-0.038888889,0,0,0,,0,113,113,224,1,boco,,,,,
,,,,,,5e23c7e45ade0b6743da7d73,676192165fb32c2e1fb7aee6,67d177c5c99443588f4eb146,2025-03-12_06h02.55.390,Tarea de decisión léxica,2024.2.5,Win32,59.95203837,,,,,,,,,,,,,,,,,,,,,,,,370.067,371.282,a,1,0.542,,0.542,1,371.282,371.776,,,,,,342,MAS,NOWORD,DIS,150,daror,,la,,371.776,371.777,0.887962963,-0.038888889,0,0,0,,0,114,114,341,1,valor,,,,,
,,,,,,5e23c7e45ade0b6743da7d73,676192165fb32c2e1fb7aee6,67d177c5c99443588f4eb146,2025-03-12_06h02.55.390,Tarea de decisión léxica,2024.2.5,Win32,59.95203837,,,,,,,,,,,,,,,,,,,,,,,,371.778,373.065,a,1,0.626,,0.626,1,373.066,373.569,,,,,,268,MAS,NOWORD,AGR,150,figro,,el,,373.569,373.569,0.887962963,-0.038888889,0,0,0,,0,115,115,267,1,libro,,,,,
,,,,,,5e23c7e45ade0b6743da7d73,676192165fb32c2e1fb7aee6,67d177c5c99443588f4eb146,2025-03-12_06h02.55.390,Tarea de decisión léxica,2024.2.5,Win32,59.95203837,,,,,,,,,,,,,,,,,,,,,,,,373.571,374.681,l,1,0.449,,0.449,1,374.682,375.182,,,,,,347,FEM,WORD,AGR,150,pieza,,la,,375.182,375.182,0.887962963,-0.038888889,0,0,0,,0,116,116,346,1,mueza,,,,,
,,,,,,5e23c7e45ade0b6743da7d73,676192165fb32c2e1fb7aee6,67d177c5c99443588f4eb146,2025-03-12_06h02.55.390,Tarea de decisión léxica,2024.2.5,Win32,59.95203837,,,,,,,,,,,,,,,,,,,,,,,,375.184,376.754,a,1,0.901,,0.901,1,376.755,377.249,,,,,,148,FEM,NOWORD,AGR,150,pama,,la,,377.25,377.254,0.887962963,-0.038888889,0,0,0,,0,117,117,147,1,hoja,,,,,
,,,,,,5e23c7e45ade0b6743da7d73,676192165fb32c2e1fb7aee6,67d177c5c99443588f4eb146,2025-03-12_06h02.55.390,Tarea de decisión léxica,2024.2.5,Win32,59.95203837,,,,,,,,,,,,,,,,,,,,,,,,377.254,378.698,a,1,0.769,,0.769,1,378.698,379.205,,,,,,478,MAS,NOWORD,DIS,150,hocon,,la,,379.205,379.205,0.887962963,-0.038888889,0,0,0,,0,118,118,477,1,botón,,,,,
,,,,,,5e23c7e45ade0b6743da7d73,676192165fb32c2e1fb7aee6,67d177c5c99443588f4eb146,2025-03-12_06h02.55.390,Tarea de decisión léxica,2024.2.5,Win32,59.95203837,,,,,,,,,,,,,,,,,,,,,,,,379.207,380.499,l,1,0.624,,0.624,1,380.499,380.998,,,,,,131,FEM,WORD,AGR,150,mina,,la,,380.998,380.999,0.887962963,-0.038888889,0,0,0,,0,119,119,130,1,fada,,,,,
,,,,,,5e23c7e45ade0b6743da7d73,676192165fb32c2e1fb7aee6,67d177c5c99443588f4eb146,2025-03-12_06h02.55.390,Tarea de decisión léxica,2024.2.5,Win32,59.95203837,,,,,,,,,,,,,,,,,,,,,,,,381,382.315,a,1,0.645,,0.645,1,382.315,382.821,,,,,,36,MAS,NOWORD,AGR,150,meno,,el,,382.821,382.821,0.887962963,-0.038888889,0,0,0,,0,120,120,35,1,pelo,,,,,
,,,,,,5e23c7e45ade0b6743da7d73,676192165fb32c2e1fb7aee6,67d177c5c99443588f4eb146,2025-03-12_06h02.55.390,Tarea de decisión léxica,2024.2.5,Win32,59.95203837,,,,,,,,,,,,,,,,,,,,,,,,382.821,384.04,l,1,0.549,,0.549,1,384.04,384.533,,,,,,83,FEM,WORD,AGR,150,bala,,la,,384.534,384.534,0.887962963,-0.038888889,0,0,0,,0,121,121,82,1,taga,,,,,
,,,,,,5e23c7e45ade0b6743da7d73,676192165fb32c2e1fb7aee6,67d177c5c99443588f4eb146,2025-03-12_06h02.55.390,Tarea de decisión léxica,2024.2.5,Win32,59.95203837,,,,,,,,,,,,,,,,,,,,,,,,384.537,385.918,a,1,0.712,,0.712,1,385.919,386.419,,,,,,60,FEM,NOWORD,AGR,150,tafa,,la,,386.421,386.424,0.887962963,-0.038888889,0,0,0,,0,122,122,59,1,sala,,,,,
,,,,,,5e23c7e45ade0b6743da7d73,676192165fb32c2e1fb7aee6,67d177c5c99443588f4eb146,2025-03-12_06h02.55.390,Tarea de decisión léxica,2024.2.5,Win32,59.95203837,,,,,,,,,,,,,,,,,,,,,,,,386.427,387.715,a,1,0.619,,0.619,1,387.716,388.217,,,,,,116,FEM,NOWORD,AGR,150,haca,,la,,388.218,388.218,0.887962963,-0.038888889,0,0,0,,0,123,123,115,1,pata,,,,,
,,,,,,5e23c7e45ade0b6743da7d73,676192165fb32c2e1fb7aee6,67d177c5c99443588f4eb146,2025-03-12_06h02.55.390,Tarea de decisión léxica,2024.2.5,Win32,59.95203837,,,,,,,,,,,,,,,,,,,,,,,,388.22,389.565,l,1,0.675,,0.675,1,389.566,390.055,,,,,,385,FEM,WORD,DIS,150,letra,,el,,390.055,390.056,0.887962963,-0.038888889,0,0,0,,0,124,124,384,1,febra,,,,,
,,,,,,5e23c7e45ade0b6743da7d73,676192165fb32c2e1fb7aee6,67d177c5c99443588f4eb146,2025-03-12_06h02.55.390,Tarea de decisión léxica,2024.2.5,Win32,59.95203837,,,,,,,,,,,,,,,,,,,,,,,,390.059,391.532,l,1,0.796,,0.796,1,391.532,392.031,,,,,,339,MAS,WORD,AGR,150,brazo,,el,,392.032,392.032,0.887962963,-0.038888889,0,0,0,,0,125,125,338,1,plajo,,,,,
,,,,,,5e23c7e45ade0b6743da7d73,676192165fb32c2e1fb7aee6,67d177c5c99443588f4eb146,2025-03-12_06h02.55.390,Tarea de decisión léxica,2024.2.5,Win32,59.95203837,,,,,,,,,,,,,,,,,,,,,,,,392.034,393.321,a,1,0.619,,0.619,1,393.321,393.815,,,,,,134,FEM,NOWORD,DIS,150,vesa,,el,,393.816,393.817,0.887962963,-0.038888889,0,0,0,,0,126,126,133,1,vaca,,,,,
,,,,,,5e23c7e45ade0b6743da7d73,676192165fb32c2e1fb7aee6,67d177c5c99443588f4eb146,2025-03-12_06h02.55.390,Tarea de decisión léxica,2024.2.5,Win32,59.95203837,,,,,,,,,,,,,,,,,,,,,,,,393.822,395,l,1,0.498,,0.498,1,395,395.498,,,,,,109,MAS,WORD,DIS,150,rayo,,la,,395.5,395.503,0.887962963,-0.038888889,0,0,0,,0,127,127,108,1,suno,,,,,
,,,,,,5e23c7e45ade0b6743da7d73,676192165fb32c2e1fb7aee6,67d177c5c99443588f4eb146,2025-03-12_06h02.55.390,Tarea de decisión léxica,2024.2.5,Win32,59.95203837,,,,,,,,,,,,,,,,,,,,,,,,395.504,396.832,l,1,0.661,,0.661,1,396.832,397.331,,,,,,353,FEM,WORD,DIS,150,celda,,el,,397.331,397.332,0.887962963,-0.038888889,0,0,0,,0,128,128,352,1,cezca,,,,,
,,,,,,5e23c7e45ade0b6743da7d73,676192165fb32c2e1fb7aee6,67d177c5c99443588f4eb146,2025-03-12_06h02.55.390,Tarea de decisión léxica,2024.2.5,Win32,59.95203837,,,,,,,,,,,,,,,,,,,,,,,,397.334,398.531,l,1,0.523,,0.523,1,398.532,399.031,,,,,,233,FEM,WORD,DIS,150,lana,,el,,399.031,399.032,0.887962963,-0.038888889,0,0,0,,0,129,129,232,1,fasa,,,,,
,,,,,,5e23c7e45ade0b6743da7d73,676192165fb32c2e1fb7aee6,67d177c5c99443588f4eb146,2025-03-12_06h02.55.390,Tarea de decisión léxica,2024.2.5,Win32,59.95203837,,,,,,,,,,,,,,,,,,,,,,,,399.034,400.36,l,1,0.669,,0.669,1,400.36,400.848,,,,,,443,MAS,WORD,AGR,150,salón,,el,,400.848,400.849,0.887962963,-0.038888889,0,0,0,,0,130,130,442,1,taron,,,,,
,,,,,,5e23c7e45ade0b6743da7d73,676192165fb32c2e1fb7aee6,67d177c5c99443588f4eb146,2025-03-12_06h02.55.390,Tarea de decisión léxica,2024.2.5,Win32,59.95203837,,,,,,,,,,,,,,,,,,,,,,,,400.853,402.721,a,1,1.179,,1.179,1,402.721,403.215,,,,,,46,FEM,NOWORD,DIS,150,pema,,el,,403.217,403.223,0.887962963,-0.038888889,0,0,0,,0,131,131,45,1,mesa,,,,,
,,,,,,5e23c7e45ade0b6743da7d73,676192165fb32c2e1fb7aee6,67d177c5c99443588f4eb146,2025-03-12_06h02.55.390,Tarea de decisión léxica,2024.2.5,Win32,59.95203837,,,,,,,,,,,,,,,,,,,,,,,,403.225,404.482,a,1,0.57,,0.57,1,404.482,404.984,,,,,,128,MAS,NOWORD,AGR,150,itio,,el,,404.984,404.984,0.887962963,-0.038888889,0,0,0,,0,132,132,127,1,pico,,,,,
,,,,,,5e23c7e45ade0b6743da7d73,676192165fb32c2e1fb7aee6,67d177c5c99443588f4eb146,2025-03-12_06h02.55.390,Tarea de decisión léxica,2024.2.5,Win32,59.95203837,,,,,,,,,,,,,,,,,,,,,,,,404.987,406.483,l,1,0.814,,0.814,1,406.483,406.982,,,,,,51,FEM,WORD,AGR,150,caja,,la,,406.982,406.983,0.887962963,-0.038888889,0,0,0,,0,133,133,50,1,mava,,,,,
,,,,,,5e23c7e45ade0b6743da7d73,676192165fb32c2e1fb7aee6,67d177c5c99443588f4eb146,2025-03-12_06h02.55.390,Tarea de decisión léxica,2024.2.5,Win32,59.95203837,,,,,,,,,,,,,,,,,,,,,,,,406.987,408.384,l,1,0.724,,0.724,1,408.384,408.872,,,,,,345,FEM,WORD,DIS,150,arena,,el,,408.872,408.872,0.887962963,-0.038888889,0,0,0,,0,134,134,344,1,anera,,,,,
,,,,,,5e23c7e45ade0b6743da7d73,676192165fb32c2e1fb7aee6,67d177c5c99443588f4eb146,2025-03-12_06h02.55.390,Tarea de decisión léxica,2024.2.5,Win32,59.95203837,,,,,,,,,,,,,,,,,,,,,,,,408.874,409.998,l,1,0.456,,0.456,1,409.998,410.498,,,,,,7,MAS,WORD,AGR,150,hijo,,el,,410.498,410.498,0.887962963,-0.038888889,0,0,0,,0,135,135,6,1,nivo,,,,,
,,,,,,5e23c7e45ade0b6743da7d73,676192165fb32c2e1fb7aee6,67d177c5c99443588f4eb146,2025-03-12_06h02.55.390,Tarea de decisión léxica,2024.2.5,Win32,59.95203837,,,,,,,,,,,,,,,,,,,,,,,,410.501,411.699,l,1,0.527,,0.527,1,411.699,412.198,,,,,,41,FEM,WORD,DIS,150,nave,,el,,412.2,412.203,0.887962963,-0.038888889,0,0,0,,0,136,136,40,1,haje,,,,,
,,,,,,5e23c7e45ade0b6743da7d73,676192165fb32c2e1fb7aee6,67d177c5c99443588f4eb146,2025-03-12_06h02.55.390,Tarea de decisión léxica,2024.2.5,Win32,59.95203837,,,,,,,,,,,,,,,,,,,,,,,,412.203,413.75,a,1,0.871,,0.871,1,413.751,414.253,,,,,,444,MAS,NOWORD,AGR,150,taron,,el,,414.253,414.253,0.887962963,-0.038888889,0,0,0,,0,137,137,443,1,salón,,,,,
,,,,,,5e23c7e45ade0b6743da7d73,676192165fb32c2e1fb7aee6,67d177c5c99443588f4eb146,2025-03-12_06h02.55.390,Tarea de decisión léxica,2024.2.5,Win32,59.95203837,,,,,,,,,,,,,,,,,,,,,,,,414.255,415.657,l,1,0.725,,0.725,1,415.657,416.148,,,,,,107,MAS,WORD,AGR,150,saco,,el,,416.149,416.15,0.887962963,-0.038888889,0,0,0,,0,138,138,106,1,raot,,,,,
,,,,,,5e23c7e45ade0b6743da7d73,676192165fb32c2e1fb7aee6,67d177c5c99443588f4eb146,2025-03-12_06h02.55.390,Tarea de decisión léxica,2024.2.5,Win32,59.95203837,,,,,,,,,,,,,,,,,,,,,,,,416.154,417.449,l,0,0.611,,0.611,0,417.453,417.954,,,,,,152,MAS,NOWORD,AGR,150,sogo,,el,,417.954,417.955,0.887962963,-0.038888889,0,0,0,,0,139,139,151,1,tomo,,,,,
,,,,,,5e23c7e45ade0b6743da7d73,676192165fb32c2e1fb7aee6,67d177c5c99443588f4eb146,2025-03-12_06h02.55.390,Tarea de decisión léxica,2024.2.5,Win32,59.95203837,,,,,,,,,,,,,,,,,,,,,,,,417.956,419.716,a,1,1.092,,1.092,1,419.724,420.216,,,,,,296,MAS,NOWORD,AGR,150,goler,,el,,420.216,420.217,0.887962963,-0.038888889,0,0,0,,0,140,140,295,1,dolor,,,,,
,,,,,,5e23c7e45ade0b6743da7d73,676192165fb32c2e1fb7aee6,67d177c5c99443588f4eb146,2025-03-12_06h02.55.390,Tarea de decisión léxica,2024.2.5,Win32,59.95203837,,,,,,,,,,,,,,,,,,,,,,,,420.223,421.332,l,1,0.434,,0.434,1,421.332,421.839,,,,,,401,MAS,WORD,DIS,150,polvo,,la,,421.841,421.848,0.887962963,-0.038888889,0,0,0,,0,141,141,400,1,pirvo,,,,,
,,,,,,5e23c7e45ade0b6743da7d73,676192165fb32c2e1fb7aee6,67d177c5c99443588f4eb146,2025-03-12_06h02.55.390,Tarea de decisión léxica,2024.2.5,Win32,59.95203837,,,,,,,,,,,,,,,,,,,,,,,,421.851,423.108,l,1,0.599,,0.599,1,423.109,423.598,,,,,,477,MAS,WORD,DIS,150,botón,,la,,423.599,423.599,0.887962963,-0.038888889,0,0,0,,0,142,142,476,1,hocon,,,,,
,,,,,,5e23c7e45ade0b6743da7d73,676192165fb32c2e1fb7aee6,67d177c5c99443588f4eb146,2025-03-12_06h02.55.390,Tarea de decisión léxica,2024.2.5,Win32,59.95203837,,,,,,,,,,,,,,,,,,,,,,,,423.602,424.907,l,1,0.617,,0.617,1,424.907,425.406,,,,,,281,MAS,WORD,DIS,150,cielo,,la,,425.407,425.407,0.887962963,-0.038888889,0,0,0,,0,143,143,280,1,cauro,,,,,
,,,,,,5e23c7e45ade0b6743da7d73,676192165fb32c2e1fb7aee6,67d177c5c99443588f4eb146,2025-03-12_06h02.55.390,Tarea de decisión léxica,2024.2.5,Win32,59.95203837,,,,,,,,,,,,,,,,,,,,,,,,425.41,426.62,a,1,0.542,,0.542,1,426.62,427.115,,,,,,66,MAS,NOWORD,DIS,150,nios,,la,,427.115,427.116,0.887962963,-0.038888889,0,0,0,,0,144,144,65,1,dios,,,,,
,,,,,,5e23c7e45ade0b6743da7d73,676192165fb32c2e1fb7aee6,67d177c5c99443588f4eb146,2025-03-12_06h02.55.390,Tarea de decisión léxica,2024.2.5,Win32,59.95203837,,,,,,,,,,,,,,,,,,,,,,,,427.118,428.449,a,1,0.665,,0.665,1,428.449,428.949,,,,,,348,FEM,NOWORD,AGR,150,mueza,,la,,428.949,428.95,0.887962963,-0.038888889,0,0,0,,0,145,145,347,1,pieza,,,,,
,,,,,,5e23c7e45ade0b6743da7d73,676192165fb32c2e1fb7aee6,67d177c5c99443588f4eb146,2025-03-12_06h02.55.390,Tarea de decisión léxica,2024.2.5,Win32,59.95203837,,,,,,,,,,,,,,,,,,,,,,,,428.952,430.479,a,1,0.859,,0.859,1,430.48,430.982,,,,,,464,FEM,NOWORD,AGR,150,matla,,la,,430.983,430.986,0.887962963,-0.038888889,0,0,0,,0,146,146,463,1,cabra,,,,,
,,,,,,5e23c7e45ade0b6743da7d73,676192165fb32c2e1fb7aee6,67d177c5c99443588f4eb146,2025-03-12_06h02.55.390,Tarea de decisión léxica,2024.2.5,Win32,59.95203837,,,,,,,,,,,,,,,,,,,,,,,,430.987,432.249,a,1,0.59,,0.59,1,432.249,432.749,,,,,,394,FEM,NOWORD,DIS,150,ashea,,el,,432.749,432.75,0.887962963,-0.038888889,0,0,0,,0,147,147,393,1,aldea,,,,,
,,,,,,5e23c7e45ade0b6743da7d73,676192165fb32c2e1fb7aee6,67d177c5c99443588f4eb146,2025-03-12_06h02.55.390,Tarea de decisión léxica,2024.2.5,Win32,59.95203837,,,,,,,,,,,,,,,,,,,,,,,,432.753,434.049,l,1,0.625,,0.625,1,434.05,434.551,,,,,,85,MAS,WORD,DIS,150,lago,,la,,434.551,434.551,0.887962963,-0.038888889,0,0,0,,0,148,148,84,1,babo,,,,,
,,,,,,5e23c7e45ade0b6743da7d73,676192165fb32c2e1fb7aee6,67d177c5c99443588f4eb146,2025-03-12_06h02.55.390,Tarea de decisión léxica,2024.2.5,Win32,59.95203837,,,,,,,,,,,,,,,,,,,,,,,,434.553,435.787,a,1,0.549,,0.549,1,435.788,436.282,,,,,,380,MAS,NOWORD,AGR,150,tunso,,el,,436.282,436.282,0.887962963,-0.038888889,0,0,0,,0,149,149,379,1,turno,,,,,
,,,,,,5e23c7e45ade0b6743da7d73,676192165fb32c2e1fb7aee6,67d177c5c99443588f4eb146,2025-03-12_06h02.55.390,Tarea de decisión léxica,2024.2.5,Win32,59.95203837,,,,,,,,,,,,,,,,,,,,,,,,436.284,437.451,l,1,0.482,,0.482,1,437.452,437.951,,,,,,187,MAS,WORD,AGR,150,mito,,el,,437.952,437.952,0.887962963,-0.038888889,0,0,0,,0,150,150,186,1,suto,,,,,
,,,,,,5e23c7e45ade0b6743da7d73,676192165fb32c2e1fb7aee6,67d177c5c99443588f4eb146,2025-03-12_06h02.55.390,Tarea de decisión léxica,2024.2.5,Win32,59.95203837,,,,,,,,,,,,,,,,,,,,,,,,437.955,439.653,a,1,1.022,,1.022,1,439.653,440.151,,,,,,454,FEM,NOWORD,DIS,150,pafia,,el,,440.152,440.156,0.887962963,-0.038888889,0,0,0,,0,151,151,453,1,mafia,,,,,
,,,,,,5e23c7e45ade0b6743da7d73,676192165fb32c2e1fb7aee6,67d177c5c99443588f4eb146,2025-03-12_06h02.55.390,Tarea de decisión léxica,2024.2.5,Win32,59.95203837,,,,,,,,,,,,,,,,,,,,,,,,440.159,441.365,a,1,0.544,,0.544,1,441.365,441.865,,,,,,32,FEM,NOWORD,AGR,150,bova,,la,,441.865,441.865,0.887962963,-0.038888889,0,0,0,,0,152,152,31,1,ropa,,,,,
,,,,,,5e23c7e45ade0b6743da7d73,676192165fb32c2e1fb7aee6,67d177c5c99443588f4eb146,2025-03-12_06h02.55.390,Tarea de decisión léxica,2024.2.5,Win32,59.95203837,,,,,,,,,,,,,,,,,,,,,,,,441.869,443.098,l,1,0.559,,0.559,1,443.098,443.599,,,,,,403,FEM,WORD,AGR,150,prima,,la,,443.599,443.599,0.887962963,-0.038888889,0,0,0,,0,153,153,402,1,grisa,,,,,
,,,,,,5e23c7e45ade0b6743da7d73,676192165fb32c2e1fb7aee6,67d177c5c99443588f4eb146,2025-03-12_06h02.55.390,Tarea de decisión léxica,2024.2.5,Win32,59.95203837,,,,,,,,,,,,,,,,,,,,,,,,443.6,445.265,a,1,0.985,,0.985,1,445.265,445.764,,,,,,176,FEM,NOWORD,AGR,150,hosa,,la,,445.764,445.764,0.887962963,-0.038888889,0,0,0,,0,154,154,175,1,goma,,,,,
,,,,,,5e23c7e45ade0b6743da7d73,676192165fb32c2e1fb7aee6,67d177c5c99443588f4eb146,2025-03-12_06h02.55.390,Tarea de decisión léxica,2024.2.5,Win32,59.95203837,,,,,,,,,,,,,,,,,,,,,,,,445.767,446.881,l,1,0.45,,0.45,1,446.881,447.387,,,,,,171,MAS,WORD,AGR,150,hilo,,el,,447.387,447.391,0.887962963,-0.038888889,0,0,0,,0,155,155,170,1,niro,,,,,
,,,,,,5e23c7e45ade0b6743da7d73,676192165fb32c2e1fb7aee6,67d177c5c99443588f4eb146,2025-03-12_06h02.55.390,Tarea de decisión léxica,2024.2.5,Win32,59.95203837,,,,,,,,,,,,,,,,,,,,,,,,447.392,448.821,l,1,0.758,,0.758,1,448.821,449.319,,,,,,27,MAS,WORD,AGR,150,baño,,el,,449.32,449.32,0.887962963,-0.038888889,0,0,0,,0,156,156,26,1,ravo,,,,,
,,,,,,5e23c7e45ade0b6743da7d73,676192165fb32c2e1fb7aee6,67d177c5c99443588f4eb146,2025-03-12_06h02.55.390,Tarea de decisión léxica,2024.2.5,Win32,59.95203837,,,,,,,,,,,,,,,,,,,,,,,,449.327,450.566,a,1,0.571,,0.571,1,450.568,451.065,,,,,,182,FEM,NOWORD,DIS,150,teda,,el,,451.065,451.066,0.887962963,-0.038888889,0,0,0,,0,157,157,181,1,seda,,,,,
,,,,,,5e23c7e45ade0b6743da7d73,676192165fb32c2e1fb7aee6,67d177c5c99443588f4eb146,2025-03-12_06h02.55.390,Tarea de decisión léxica,2024.2.5,Win32,59.95203837,,,,,,,,,,,,,,,,,,,,,,,,451.076,452.398,a,1,0.66,,0.66,1,452.399,452.898,,,,,,212,FEM,NOWORD,AGR,150,joad,,la,,452.898,452.899,0.887962963,-0.038888889,0,0,0,,0,158,158,211,1,joya,,,,,
,,,,,,5e23c7e45ade0b6743da7d73,676192165fb32c2e1fb7aee6,67d177c5c99443588f4eb146,2025-03-12_06h02.55.390,Tarea de decisión léxica,2024.2.5,Win32,59.95203837,,,,,,,,,,,,,,,,,,,,,,,,452.902,454.133,l,1,0.572,,0.572,1,454.133,454.632,,,,,,253,MAS,WORD,DIS,150,chico,,la,,454.632,454.633,0.887962963,-0.038888889,0,0,0,,0,159,159,252,1,trido,,,,,
,,,,,,5e23c7e45ade0b6743da7d73,676192165fb32c2e1fb7aee6,67d177c5c99443588f4eb146,2025-03-12_06h02.55.390,Tarea de decisión léxica,2024.2.5,Win32,59.95203837,,,,,,,,,,,,,,,,,,,,,,,,454.635,456.281,l,1,0.972,,0.972,1,456.281,456.781,,,,,,237,MAS,WORD,DIS,150,nudo,,la,,456.783,500.482,0.52037037,0.491666667,0,0,0,space,0,160,160,236,1,huco,,43.683,,,
,,,,,,5e23c7e45ade0b6743da7d73,676192165fb32c2e1fb7aee6,67d177c5c99443588f4eb146,2025-03-12_06h02.55.390,Tarea de decisión léxica,2024.2.5,Win32,59.95203837,,,,,,,,,,,,,,,,,,,,,,,,500.487,501.935,a,1,0.772,,0.772,1,501.935,502.434,,,,,,142,FEM,NOWORD,DIS,150,sina,,el,,502.434,502.434,0.52037037,0.491666667,0,0,0,,0,161,161,141,1,cruz,,,,,
,,,,,,5e23c7e45ade0b6743da7d73,676192165fb32c2e1fb7aee6,67d177c5c99443588f4eb146,2025-03-12_06h02.55.390,Tarea de decisión léxica,2024.2.5,Win32,59.95203837,,,,,,,,,,,,,,,,,,,,,,,,502.437,503.581,l,1,0.468,,0.468,1,503.582,504.081,,,,,,163,FEM,WORD,AGR,150,fama,,la,,504.081,504.081,0.52037037,0.491666667,0,0,0,,0,162,162,162,1,laga,,,,,
,,,,,,5e23c7e45ade0b6743da7d73,676192165fb32c2e1fb7aee6,67d177c5c99443588f4eb146,2025-03-12_06h02.55.390,Tarea de decisión léxica,2024.2.5,Win32,59.95203837,,,,,,,,,,,,,,,,,,,,,,,,504.084,505.239,l,1,0.487,,0.487,1,505.239,505.733,,,,,,423,MAS,WORD,AGR,150,queso,,el,,505.733,505.734,0.52037037,0.491666667,0,0,0,,0,163,163,422,1,quigo,,,,,
,,,,,,5e23c7e45ade0b6743da7d73,676192165fb32c2e1fb7aee6,67d177c5c99443588f4eb146,2025-03-12_06h02.55.390,Tarea de decisión léxica,2024.2.5,Win32,59.95203837,,,,,,,,,,,,,,,,,,,,,,,,505.737,506.869,l,1,0.462,,0.462,1,506.869,507.367,,,,,,249,FEM,WORD,DIS,150,clase,,el,,507.368,507.369,0.52037037,0.491666667,0,0,0,,0,164,164,248,1,plane,,,,,
,,,,,,5e23c7e45ade0b6743da7d73,676192165fb32c2e1fb7aee6,67d177c5c99443588f4eb146,2025-03-12_06h02.55.390,Tarea de decisión léxica,2024.2.5,Win32,59.95203837,,,,,,,,,,,,,,,,,,,,,,,,507.37,508.438,l,1,0.402,,0.402,1,508.438,508.935,,,,,,205,FEM,WORD,DIS,150,rana,,el,,508.936,508.941,0.52037037,0.491666667,0,0,0,,0,165,165,204,1,bara,,,,,
,,,,,,5e23c7e45ade0b6743da7d73,676192165fb32c2e1fb7aee6,67d177c5c99443588f4eb146,2025-03-12_06h02.55.390,Tarea de decisión léxica,2024.2.5,Win32,59.95203837,,,,,,,,,,,,,,,,,,,,,,,,508.941,510.198,a,1,0.592,,0.592,1,510.199,510.698,,,,,,320,MAS,NOWORD,AGR,150,tuero,,el,,510.698,510.698,0.52037037,0.491666667,0,0,0,,0,166,166,319,1,suelo,,,,,
,,,,,,5e23c7e45ade0b6743da7d73,676192165fb32c2e1fb7aee6,67d177c5c99443588f4eb146,2025-03-12_06h02.55.390,Tarea de decisión léxica,2024.2.5,Win32,59.95203837,,,,,,,,,,,,,,,,,,,,,,,,510.703,511.948,a,1,0.568,,0.568,1,511.948,512.449,,,,,,434,MAS,NOWORD,DIS,150,durco,,la,,512.449,512.449,0.52037037,0.491666667,0,0,0,,0,167,167,433,1,disco,,,,,
,,,,,,5e23c7e45ade0b6743da7d73,676192165fb32c2e1fb7aee6,67d177c5c99443588f4eb146,2025-03-12_06h02.55.390,Tarea de decisión léxica,2024.2.5,Win32,59.95203837,,,,,,,,,,,,,,,,,,,,,,,,512.451,513.644,a,1,0.532,,0.532,1,513.645,514.149,,,,,,232,FEM,NOWORD,AGR,150,heta,,la,,514.149,514.151,0.52037037,0.491666667,0,0,0,,0,168,168,231,1,bota,,,,,
,,,,,,5e23c7e45ade0b6743da7d73,676192165fb32c2e1fb7aee6,67d177c5c99443588f4eb146,2025-03-12_06h02.55.390,Tarea de decisión léxica,2024.2.5,Win32,59.95203837,,,,,,,,,,,,,,,,,,,,,,,,514.157,515.3,l,1,0.467,,0.467,1,515.301,515.798,,,,,,61,FEM,WORD,DIS,150,obra,,el,,515.798,515.799,0.52037037,0.491666667,0,0,0,,0,169,169,60,1,efla,,,,,
,,,,,,5e23c7e45ade0b6743da7d73,676192165fb32c2e1fb7aee6,67d177c5c99443588f4eb146,2025-03-12_06h02.55.390,Tarea de decisión léxica,2024.2.5,Win32,59.95203837,,,,,,,,,,,,,,,,,,,,,,,,515.804,517.081,a,1,0.601,,0.601,1,517.081,517.581,,,,,,420,MAS,NOWORD,AGR,150,chudo,,el,,517.583,517.587,0.52037037,0.491666667,0,0,0,,0,170,170,419,1,truco,,,,,
,,,,,,5e23c7e45ade0b6743da7d73,676192165fb32c2e1fb7aee6,67d177c5c99443588f4eb146,2025-03-12_06h02.55.390,Tarea de decisión léxica,2024.2.5,Win32,59.95203837,,,,,,,,,,,,,,,,,,,,,,,,517.588,518.882,l,1,0.619,,0.619,1,518.882,519.381,,,,,,427,FEM,WORD,AGR,150,oreja,,la,,519.381,519.382,0.52037037,0.491666667,0,0,0,,0,171,171,426,1,oseva,,,,,
,,,,,,5e23c7e45ade0b6743da7d73,676192165fb32c2e1fb7aee6,67d177c5c99443588f4eb146,2025-03-12_06h02.55.390,Tarea de decisión léxica,2024.2.5,Win32,59.95203837,,,,,,,,,,,,,,,,,,,,,,,,519.383,520.498,l,1,0.433,,0.433,1,520.499,521,,,,,,43,FEM,WORD,AGR,150,pena,,la,,521,521,0.52037037,0.491666667,0,0,0,,0,172,172,42,1,meda,,,,,
,,,,,,5e23c7e45ade0b6743da7d73,676192165fb32c2e1fb7aee6,67d177c5c99443588f4eb146,2025-03-12_06h02.55.390,Tarea de decisión léxica,2024.2.5,Win32,59.95203837,,,,,,,,,,,,,,,,,,,,,,,,521.002,522.133,l,1,0.46,,0.46,1,522.134,522.632,,,,,,169,MAS,WORD,DIS,150,cubo,,la,,522.633,522.634,0.52037037,0.491666667,0,0,0,,0,173,173,168,1,mibo,,,,,
,,,,,,5e23c7e45ade0b6743da7d73,676192165fb32c2e1fb7aee6,67d177c5c99443588f4eb146,2025-03-12_06h02.55.390,Tarea de decisión léxica,2024.2.5,Win32,59.95203837,,,,,,,,,,,,,,,,,,,,,,,,522.636,523.981,a,1,0.674,,0.674,1,523.981,524.481,,,,,,360,MAS,NOWORD,AGR,150,cacer,,el,,524.481,524.482,0.52037037,0.491666667,0,0,0,,0,174,174,359,1,calor,,,,,
,,,,,,5e23c7e45ade0b6743da7d73,676192165fb32c2e1fb7aee6,67d177c5c99443588f4eb146,2025-03-12_06h02.55.390,Tarea de decisión léxica,2024.2.5,Win32,59.95203837,,,,,,,,,,,,,,,,,,,,,,,,524.483,525.548,l,1,0.389,,0.389,1,525.548,526.048,,,,,,229,MAS,WORD,DIS,150,amor,,la,,526.049,526.054,0.52037037,0.491666667,0,0,0,,0,175,175,228,1,ador,,,,,
,,,,,,5e23c7e45ade0b6743da7d73,676192165fb32c2e1fb7aee6,67d177c5c99443588f4eb146,2025-03-12_06h02.55.390,Tarea de decisión léxica,2024.2.5,Win32,59.95203837,,,,,,,,,,,,,,,,,,,,,,,,526.055,527.232,a,1,0.509,,0.509,1,527.232,527.732,,,,,,332,MAS,NOWORD,AGR,150,erato,,el,,527.732,527.732,0.52037037,0.491666667,0,0,0,,0,176,176,331,1,éxito,,,,,
,,,,,,5e23c7e45ade0b6743da7d73,676192165fb32c2e1fb7aee6,67d177c5c99443588f4eb146,2025-03-12_06h02.55.390,Tarea de decisión léxica,2024.2.5,Win32,59.95203837,,,,,,,,,,,,,,,,,,,,,,,,527.734,528.783,l,1,0.377,,0.377,1,528.783,529.281,,,,,,381,MAS,WORD,DIS,150,humor,,la,,529.281,529.281,0.52037037,0.491666667,0,0,0,,0,177,177,380,1,nusor,,,,,
,,,,,,5e23c7e45ade0b6743da7d73,676192165fb32c2e1fb7aee6,67d177c5c99443588f4eb146,2025-03-12_06h02.55.390,Tarea de decisión léxica,2024.2.5,Win32,59.95203837,,,,,,,,,,,,,,,,,,,,,,,,529.284,530.667,a,1,0.709,,0.709,1,530.668,531.165,,,,,,178,MAS,NOWORD,DIS,150,bito,,la,,531.166,531.166,0.52037037,0.491666667,0,0,0,,0,178,178,177,1,reto,,,,,
,,,,,,5e23c7e45ade0b6743da7d73,676192165fb32c2e1fb7aee6,67d177c5c99443588f4eb146,2025-03-12_06h02.55.390,Tarea de decisión léxica,2024.2.5,Win32,59.95203837,,,,,,,,,,,,,,,,,,,,,,,,531.168,532.348,l,1,0.503,,0.503,1,532.348,532.848,,,,,,203,FEM,WORD,AGR,150,leña,,la,,532.85,532.854,0.52037037,0.491666667,0,0,0,,0,179,179,202,1,beja,,,,,
,,,,,,5e23c7e45ade0b6743da7d73,676192165fb32c2e1fb7aee6,67d177c5c99443588f4eb146,2025-03-12_06h02.55.390,Tarea de decisión léxica,2024.2.5,Win32,59.95203837,,,,,,,,,,,,,,,,,,,,,,,,532.854,534.066,a,1,0.541,,0.541,1,534.066,534.567,,,,,,224,FEM,NOWORD,AGR,150,cira,,la,,534.567,534.567,0.52037037,0.491666667,0,0,0,,0,180,180,223,1,cera,,,,,
,,,,,,5e23c7e45ade0b6743da7d73,676192165fb32c2e1fb7aee6,67d177c5c99443588f4eb146,2025-03-12_06h02.55.390,Tarea de decisión léxica,2024.2.5,Win32,59.95203837,,,,,,,,,,,,,,,,,,,,,,,,534.569,535.847,a,1,0.607,,0.607,1,535.848,536.348,,,,,,102,MAS,NOWORD,DIS,150,gito,,la,,536.348,536.348,0.52037037,0.491666667,0,0,0,,0,181,181,101,1,tono,,,,,
,,,,,,5e23c7e45ade0b6743da7d73,676192165fb32c2e1fb7aee6,67d177c5c99443588f4eb146,2025-03-12_06h02.55.390,Tarea de decisión léxica,2024.2.5,Win32,59.95203837,,,,,,,,,,,,,,,,,,,,,,,,536.35,538.019,l,1,0.997,,0.997,1,538.019,538.514,,,,,,475,FEM,WORD,AGR,150,manta,,la,,538.515,538.515,0.52037037,0.491666667,0,0,0,,0,182,182,474,1,mucta,,,,,
,,,,,,5e23c7e45ade0b6743da7d73,676192165fb32c2e1fb7aee6,67d177c5c99443588f4eb146,2025-03-12_06h02.55.390,Tarea de decisión léxica,2024.2.5,Win32,59.95203837,,,,,,,,,,,,,,,,,,,,,,,,538.518,539.664,l,1,0.474,,0.474,1,539.664,540.164,,,,,,147,FEM,WORD,AGR,150,hoja,,la,,540.165,540.165,0.52037037,0.491666667,0,0,0,,0,183,183,146,1,pama,,,,,
,,,,,,5e23c7e45ade0b6743da7d73,676192165fb32c2e1fb7aee6,67d177c5c99443588f4eb146,2025-03-12_06h02.55.390,Tarea de decisión léxica,2024.2.5,Win32,59.95203837,,,,,,,,,,,,,,,,,,,,,,,,540.166,541.331,a,1,0.49,,0.49,1,541.331,541.831,,,,,,136,MAS,NOWORD,AGR,150,geso,,el,,541.836,541.843,0.52037037,0.491666667,0,0,0,,0,184,184,135,1,tubo,,,,,
,,,,,,5e23c7e45ade0b6743da7d73,676192165fb32c2e1fb7aee6,67d177c5c99443588f4eb146,2025-03-12_06h02.55.390,Tarea de decisión léxica,2024.2.5,Win32,59.95203837,,,,,,,,,,,,,,,,,,,,,,,,541.845,543.199,a,1,0.696,,0.696,1,543.2,543.699,,,,,,390,MAS,NOWORD,DIS,150,cenco,,la,,543.699,543.7,0.52037037,0.491666667,0,0,0,,0,185,185,389,1,cerdo,,,,,
,,,,,,5e23c7e45ade0b6743da7d73,676192165fb32c2e1fb7aee6,67d177c5c99443588f4eb146,2025-03-12_06h02.55.390,Tarea de decisión léxica,2024.2.5,Win32,59.95203837,,,,,,,,,,,,,,,,,,,,,,,,543.703,544.831,l,1,0.459,,0.459,1,544.833,545.33,,,,,,53,FEM,WORD,DIS,150,boda,,el,,545.331,545.331,0.52037037,0.491666667,0,0,0,,0,186,186,52,1,rora,,,,,
,,,,,,5e23c7e45ade0b6743da7d73,676192165fb32c2e1fb7aee6,67d177c5c99443588f4eb146,2025-03-12_06h02.55.390,Tarea de decisión léxica,2024.2.5,Win32,59.95203837,,,,,,,,,,,,,,,,,,,,,,,,545.333,546.615,l,1,0.6,,0.6,1,546.615,547.115,,,,,,445,MAS,WORD,DIS,150,actor,,la,,547.115,547.115,0.52037037,0.491666667,0,0,0,,0,187,187,444,1,ascor,,,,,
,,,,,,5e23c7e45ade0b6743da7d73,676192165fb32c2e1fb7aee6,67d177c5c99443588f4eb146,2025-03-12_06h02.55.390,Tarea de decisión léxica,2024.2.5,Win32,59.95203837,,,,,,,,,,,,,,,,,,,,,,,,547.118,548.667,l,1,0.88,,0.88,1,548.667,549.165,,,,,,437,FEM,WORD,DIS,150,plaza,,el,,549.165,549.165,0.52037037,0.491666667,0,0,0,,0,188,188,436,1,glava,,,,,
,,,,,,5e23c7e45ade0b6743da7d73,676192165fb32c2e1fb7aee6,67d177c5c99443588f4eb146,2025-03-12_06h02.55.390,Tarea de decisión léxica,2024.2.5,Win32,59.95203837,,,,,,,,,,,,,,,,,,,,,,,,549.167,550.319,a,1,0.483,,0.483,1,550.319,550.816,,,,,,154,MAS,NOWORD,DIS,150,tado,,la,,550.817,550.821,0.52037037,0.491666667,0,0,0,,0,189,189,153,1,pato,,,,,
,,,,,,5e23c7e45ade0b6743da7d73,676192165fb32c2e1fb7aee6,67d177c5c99443588f4eb146,2025-03-12_06h02.55.390,Tarea de decisión léxica,2024.2.5,Win32,59.95203837,,,,,,,,,,,,,,,,,,,,,,,,550.825,552.051,a,1,0.55,,0.55,1,552.052,552.551,,,,,,2,FEM,NOWORD,DIS,150,mada,,el,,552.551,552.551,0.52037037,0.491666667,0,0,0,,0,190,190,1,1,casa,,,,,
,,,,,,5e23c7e45ade0b6743da7d73,676192165fb32c2e1fb7aee6,67d177c5c99443588f4eb146,2025-03-12_06h02.55.390,Tarea de decisión léxica,2024.2.5,Win32,59.95203837,,,,,,,,,,,,,,,,,,,,,,,,552.553,553.882,a,1,0.648,,0.648,1,553.883,554.386,,,,,,450,FEM,NOWORD,DIS,150,crusa,,el,,554.386,554.386,0.52037037,0.491666667,0,0,0,,0,191,191,449,1,pluma,,,,,
,,,,,,5e23c7e45ade0b6743da7d73,676192165fb32c2e1fb7aee6,67d177c5c99443588f4eb146,2025-03-12_06h02.55.390,Tarea de decisión léxica,2024.2.5,Win32,59.95203837,,,,,,,,,,,,,,,,,,,,,,,,554.388,555.651,a,1,0.582,,0.582,1,555.651,556.148,,,,,,438,FEM,NOWORD,DIS,150,glava,,el,,556.148,556.148,0.52037037,0.491666667,0,0,0,,0,192,192,437,1,plaza,,,,,
,,,,,,5e23c7e45ade0b6743da7d73,676192165fb32c2e1fb7aee6,67d177c5c99443588f4eb146,2025-03-12_06h02.55.390,Tarea de decisión léxica,2024.2.5,Win32,59.95203837,,,,,,,,,,,,,,,,,,,,,,,,556.153,557.348,l,1,0.526,,0.526,1,557.351,557.85,,,,,,331,MAS,WORD,AGR,150,éxito,,el,,557.85,557.85,0.52037037,0.491666667,0,0,0,,0,193,193,330,1,erato,,,,,
,,,,,,5e23c7e45ade0b6743da7d73,676192165fb32c2e1fb7aee6,67d177c5c99443588f4eb146,2025-03-12_06h02.55.390,Tarea de decisión léxica,2024.2.5,Win32,59.95203837,,,,,,,,,,,,,,,,,,,,,,,,557.852,559.181,l,1,0.652,,0.652,1,559.182,559.681,,,,,,149,MAS,WORD,DIS,150,cabo,,la,,559.685,559.689,0.52037037,0.491666667,0,0,0,,0,194,194,148,1,pafo,,,,,
,,,,,,5e23c7e45ade0b6743da7d73,676192165fb32c2e1fb7aee6,67d177c5c99443588f4eb146,2025-03-12_06h02.55.390,Tarea de decisión léxica,2024.2.5,Win32,59.95203837,,,,,,,,,,,,,,,,,,,,,,,,559.69,560.864,l,1,0.509,,0.509,1,560.865,561.364,,,,,,137,MAS,WORD,DIS,150,nene,,la,,561.364,561.365,0.52037037,0.491666667,0,0,0,,0,195,195,136,1,pamo,,,,,
,,,,,,5e23c7e45ade0b6743da7d73,676192165fb32c2e1fb7aee6,67d177c5c99443588f4eb146,2025-03-12_06h02.55.390,Tarea de decisión léxica,2024.2.5,Win32,59.95203837,,,,,,,,,,,,,,,,,,,,,,,,561.367,562.45,l,1,0.4,,0.4,1,562.451,562.95,,,,,,97,MAS,WORD,DIS,150,mono,,la,,562.951,562.951,0.52037037,0.491666667,0,0,0,,0,196,196,96,1,fopo,,,,,
,,,,,,5e23c7e45ade0b6743da7d73,676192165fb32c2e1fb7aee6,67d177c5c99443588f4eb146,2025-03-12_06h02.55.390,Tarea de decisión léxica,2024.2.5,Win32,59.95203837,,,,,,,,,,,,,,,,,,,,,,,,562.952,564.164,l,1,0.531,,0.531,1,564.164,564.664,,,,,,351,MAS,WORD,AGR,150,vuelo,,el,,564.664,564.664,0.52037037,0.491666667,0,0,0,,0,197,197,350,1,duepo,,,,,
,,,,,,5e23c7e45ade0b6743da7d73,676192165fb32c2e1fb7aee6,67d177c5c99443588f4eb146,2025-03-12_06h02.55.390,Tarea de decisión léxica,2024.2.5,Win32,59.95203837,,,,,,,,,,,,,,,,,,,,,,,,564.666,566.014,a,1,0.67,,0.67,1,566.015,566.514,,,,,,452,FEM,NOWORD,AGR,150,clita,,la,,566.514,566.515,0.52037037,0.491666667,0,0,0,,0,198,198,451,1,fruta,,,,,
,,,,,,5e23c7e45ade0b6743da7d73,676192165fb32c2e1fb7aee6,67d177c5c99443588f4eb146,2025-03-12_06h02.55.390,Tarea de decisión léxica,2024.2.5,Win32,59.95203837,,,,,,,,,,,,,,,,,,,,,,,,566.519,567.581,l,1,0.395,,0.395,1,567.581,568.082,,,,,,399,MAS,WORD,AGR,150,techo,,el,,568.083,568.088,0.52037037,0.491666667,0,0,0,,0,199,199,398,1,serro,,,,,
,,,,,,5e23c7e45ade0b6743da7d73,676192165fb32c2e1fb7aee6,67d177c5c99443588f4eb146,2025-03-12_06h02.55.390,Tarea de decisión léxica,2024.2.5,Win32,59.95203837,,,,,,,,,,,,,,,,,,,,,,,,568.089,569.231,l,1,0.466,,0.466,1,569.232,569.731,,,,,,359,MAS,WORD,AGR,150,calor,,el,,569.731,569.731,0.52037037,0.491666667,0,0,0,,0,200,200,358,1,cacer,,,,,
,,,,,,5e23c7e45ade0b6743da7d73,676192165fb32c2e1fb7aee6,67d177c5c99443588f4eb146,2025-03-12_06h02.55.390,Tarea de decisión léxica,2024.2.5,Win32,59.95203837,,,,,,,,,,,,,,,,,,,,,,,,569.734,570.848,l,1,0.435,,0.435,1,570.849,571.347,,,,,,441,FEM,WORD,DIS,150,selva,,el,,571.348,571.348,0.52037037,0.491666667,0,0,0,,0,201,201,440,1,telza,,,,,
,,,,,,5e23c7e45ade0b6743da7d73,676192165fb32c2e1fb7aee6,67d177c5c99443588f4eb146,2025-03-12_06h02.55.390,Tarea de decisión léxica,2024.2.5,Win32,59.95203837,,,,,,,,,,,,,,,,,,,,,,,,571.35,572.582,a,1,0.552,,0.552,1,572.582,573.081,,,,,,210,MAS,NOWORD,DIS,150,dero,,la,,573.081,573.081,0.52037037,0.491666667,0,0,0,,0,202,202,209,1,velo,,,,,
,,,,,,5e23c7e45ade0b6743da7d73,676192165fb32c2e1fb7aee6,67d177c5c99443588f4eb146,2025-03-12_06h02.55.390,Tarea de decisión léxica,2024.2.5,Win32,59.95203837,,,,,,,,,,,,,,,,,,,,,,,,573.085,574.134,l,1,0.378,,0.378,1,574.134,574.631,,,,,,467,MAS,WORD,AGR,150,piano,,el,,574.633,574.635,0.52037037,0.491666667,0,0,0,,0,203,203,466,1,peiso,,,,,
,,,,,,5e23c7e45ade0b6743da7d73,676192165fb32c2e1fb7aee6,67d177c5c99443588f4eb146,2025-03-12_06h02.55.390,Tarea de decisión léxica,2024.2.5,Win32,59.95203837,,,,,,,,,,,,,,,,,,,,,,,,574.635,575.931,a,1,0.623,,0.623,1,575.931,576.421,,,,,,440,FEM,NOWORD,AGR,150,prema,,la,,576.421,576.421,0.52037037,0.491666667,0,0,0,,0,204,204,439,1,presa,,,,,
,,,,,,5e23c7e45ade0b6743da7d73,676192165fb32c2e1fb7aee6,67d177c5c99443588f4eb146,2025-03-12_06h02.55.390,Tarea de decisión léxica,2024.2.5,Win32,59.95203837,,,,,,,,,,,,,,,,,,,,,,,,576.422,577.499,l,1,0.403,,0.403,1,577.501,577.999,,,,,,307,MAS,WORD,AGR,150,hotel,,el,,577.999,578.001,0.52037037,0.491666667,0,0,0,,0,205,205,306,1,holol,,,,,
,,,,,,5e23c7e45ade0b6743da7d73,676192165fb32c2e1fb7aee6,67d177c5c99443588f4eb146,2025-03-12_06h02.55.390,Tarea de decisión léxica,2024.2.5,Win32,59.95203837,,,,,,,,,,,,,,,,,,,,,,,,578.005,579.498,l,1,0.829,,0.829,1,579.498,579.998,,,,,,431,MAS,WORD,AGR,150,motor,,el,,579.998,579.998,0.52037037,0.491666667,0,0,0,,0,206,206,430,1,tetor,,,,,
,,,,,,5e23c7e45ade0b6743da7d73,676192165fb32c2e1fb7aee6,67d177c5c99443588f4eb146,2025-03-12_06h02.55.390,Tarea de decisión léxica,2024.2.5,Win32,59.95203837,,,,,,,,,,,,,,,,,,,,,,,,580.001,581.33,a,1,0.648,,0.648,1,581.331,581.831,,,,,,124,FEM,NOWORD,AGR,150,maba,,la,,581.831,581.831,0.52037037,0.491666667,0,0,0,,0,207,207,123,1,flor,,,,,
,,,,,,5e23c7e45ade0b6743da7d73,676192165fb32c2e1fb7aee6,67d177c5c99443588f4eb146,2025-03-12_06h02.55.390,Tarea de decisión léxica,2024.2.5,Win32,59.95203837,,,,,,,,,,,,,,,,,,,,,,,,581.835,583.047,l,1,0.534,,0.534,1,583.048,583.548,,,,,,413,FEM,WORD,DIS,150,rueda,,el,,583.55,583.555,0.52037037,0.491666667,0,0,0,,0,208,208,412,1,bieda,,,,,
,,,,,,5e23c7e45ade0b6743da7d73,676192165fb32c2e1fb7aee6,67d177c5c99443588f4eb146,2025-03-12_06h02.55.390,Tarea de decisión léxica,2024.2.5,Win32,59.95203837,,,,,,,,,,,,,,,,,,,,,,,,583.559,584.866,a,1,0.634,,0.634,1,584.866,585.369,,,,,,138,MAS,NOWORD,DIS,150,pamo,,la,,585.369,585.37,0.52037037,0.491666667,0,0,0,,0,209,209,137,1,nene,,,,,
,,,,,,5e23c7e45ade0b6743da7d73,676192165fb32c2e1fb7aee6,67d177c5c99443588f4eb146,2025-03-12_06h02.55.390,Tarea de decisión léxica,2024.2.5,Win32,59.95203837,,,,,,,,,,,,,,,,,,,,,,,,585.372,586.764,a,1,0.723,,0.723,1,586.764,587.265,,,,,,408,FEM,NOWORD,AGR,150,cauba,,la,,587.265,587.266,0.52037037,0.491666667,0,0,0,,0,210,210,407,1,cueva,,,,,
,,,,,,5e23c7e45ade0b6743da7d73,676192165fb32c2e1fb7aee6,67d177c5c99443588f4eb146,2025-03-12_06h02.55.390,Tarea de decisión léxica,2024.2.5,Win32,59.95203837,,,,,,,,,,,,,,,,,,,,,,,,587.268,588.381,l,1,0.438,,0.438,1,588.381,588.88,,,,,,201,FEM,WORD,DIS,150,cuna,,el,,588.88,588.881,0.52037037,0.491666667,0,0,0,,0,211,211,200,1,cusa,,,,,
,,,,,,5e23c7e45ade0b6743da7d73,676192165fb32c2e1fb7aee6,67d177c5c99443588f4eb146,2025-03-12_06h02.55.390,Tarea de decisión léxica,2024.2.5,Win32,59.95203837,,,,,,,,,,,,,,,,,,,,,,,,588.883,590.148,l,1,0.59,,0.59,1,590.148,590.647,,,,,,295,MAS,WORD,AGR,150,dolor,,el,,590.647,590.648,0.52037037,0.491666667,0,0,0,,0,212,212,294,1,goler,,,,,
,,,,,,5e23c7e45ade0b6743da7d73,676192165fb32c2e1fb7aee6,67d177c5c99443588f4eb146,2025-03-12_06h02.55.390,Tarea de decisión léxica,2024.2.5,Win32,59.95203837,,,,,,,,,,,,,,,,,,,,,,,,590.65,591.68,l,1,0.356,,0.356,1,591.681,592.18,,,,,,25,FEM,WORD,DIS,150,cama,,el,,592.181,592.184,0.52037037,0.491666667,0,0,0,,0,213,213,24,1,paza,,,,,
,,,,,,5e23c7e45ade0b6743da7d73,676192165fb32c2e1fb7aee6,67d177c5c99443588f4eb146,2025-03-12_06h02.55.390,Tarea de decisión léxica,2024.2.5,Win32,59.95203837,,,,,,,,,,,,,,,,,,,,,,,,592.185,593.298,l,1,0.441,,0.441,1,593.298,593.797,,,,,,127,MAS,WORD,AGR,150,pico,,el,,593.798,593.798,0.52037037,0.491666667,0,0,0,,0,214,214,126,1,itio,,,,,
,,,,,,5e23c7e45ade0b6743da7d73,676192165fb32c2e1fb7aee6,67d177c5c99443588f4eb146,2025-03-12_06h02.55.390,Tarea de decisión léxica,2024.2.5,Win32,59.95203837,,,,,,,,,,,,,,,,,,,,,,,,593.8,594.948,l,1,0.479,,0.479,1,594.948,595.447,,,,,,113,FEM,WORD,DIS,150,miel,,el,,595.448,595.449,0.52037037,0.491666667,0,0,0,,0,215,215,112,1,tada,,,,,
,,,,,,5e23c7e45ade0b6743da7d73,676192165fb32c2e1fb7aee6,67d177c5c99443588f4eb146,2025-03-12_06h02.55.390,Tarea de decisión léxica,2024.2.5,Win32,59.95203837,,,,,,,,,,,,,,,,,,,,,,,,595.45,596.614,a,1,0.487,,0.487,1,596.614,597.114,,,,,,458,MAS,NOWORD,DIS,150,glaco,,la,,597.114,597.114,0.52037037,0.491666667,0,0,0,,0,216,216,457,1,plato,,,,,
,,,,,,5e23c7e45ade0b6743da7d73,676192165fb32c2e1fb7aee6,67d177c5c99443588f4eb146,2025-03-12_06h02.55.390,Tarea de decisión léxica,2024.2.5,Win32,59.95203837,,,,,,,,,,,,,,,,,,,,,,,,597.116,599.082,l,1,1.292,,1.292,1,599.082,599.581,,,,,,159,MAS,WORD,AGR,150,giro,,el,,599.581,599.581,0.52037037,0.491666667,0,0,0,,0,217,217,158,1,bilo,,,,,
,,,,,,5e23c7e45ade0b6743da7d73,676192165fb32c2e1fb7aee6,67d177c5c99443588f4eb146,2025-03-12_06h02.55.390,Tarea de decisión léxica,2024.2.5,Win32,59.95203837,,,,,,,,,,,,,,,,,,,,,,,,599.583,601.515,a,1,1.261,,1.261,1,601.515,602.014,,,,,,34,FEM,NOWORD,DIS,150,loda,,el,,602.016,602.019,0.52037037,0.491666667,0,0,0,,0,218,218,33,1,boca,,,,,
,,,,,,5e23c7e45ade0b6743da7d73,676192165fb32c2e1fb7aee6,67d177c5c99443588f4eb146,2025-03-12_06h02.55.390,Tarea de decisión léxica,2024.2.5,Win32,59.95203837,,,,,,,,,,,,,,,,,,,,,,,,602.02,603.83,a,1,1.127,,1.127,1,603.831,604.331,,,,,,168,FEM,NOWORD,AGR,150,zifa,,la,,604.331,604.331,0.52037037,0.491666667,0,0,0,,0,219,219,167,1,jefa,,,,,
,,,,,,5e23c7e45ade0b6743da7d73,676192165fb32c2e1fb7aee6,67d177c5c99443588f4eb146,2025-03-12_06h02.55.390,Tarea de decisión léxica,2024.2.5,Win32,59.95203837,,,,,,,,,,,,,,,,,,,,,,,,604.333,605.514,l,1,0.506,,0.506,1,605.514,606.015,,,,,,393,FEM,WORD,DIS,150,aldea,,el,,606.015,606.015,0.52037037,0.491666667,0,0,0,,0,220,220,392,1,ashea,,,,,
,,,,,,5e23c7e45ade0b6743da7d73,676192165fb32c2e1fb7aee6,67d177c5c99443588f4eb146,2025-03-12_06h02.55.390,Tarea de decisión léxica,2024.2.5,Win32,59.95203837,,,,,,,,,,,,,,,,,,,,,,,,606.017,608.253,a,1,1.568,,1.568,1,608.255,608.754,,,,,,282,MAS,NOWORD,DIS,150,cauro,,la,,608.754,608.754,0.52037037,0.491666667,0,0,0,,0,221,221,281,1,cielo,,,,,
,,,,,,5e23c7e45ade0b6743da7d73,676192165fb32c2e1fb7aee6,67d177c5c99443588f4eb146,2025-03-12_06h02.55.390,Tarea de decisión léxica,2024.2.5,Win32,59.95203837,,,,,,,,,,,,,,,,,,,,,,,,608.756,610.198,a,1,0.773,,0.773,1,610.198,610.698,,,,,,410,MAS,NOWORD,DIS,150,pafro,,la,,610.698,610.698,0.52037037,0.491666667,0,0,0,,0,222,222,409,1,carro,,,,,
,,,,,,5e23c7e45ade0b6743da7d73,676192165fb32c2e1fb7aee6,67d177c5c99443588f4eb146,2025-03-12_06h02.55.390,Tarea de decisión léxica,2024.2.5,Win32,59.95203837,,,,,,,,,,,,,,,,,,,,,,,,610.701,612.088,a,1,0.725,,0.725,1,612.089,612.582,,,,,,44,FEM,NOWORD,AGR,150,meda,,la,,612.586,612.59,0.52037037,0.491666667,0,0,0,,0,223,223,43,1,pena,,,,,
,,,,,,5e23c7e45ade0b6743da7d73,676192165fb32c2e1fb7aee6,67d177c5c99443588f4eb146,2025-03-12_06h02.55.390,Tarea de decisión léxica,2024.2.5,Win32,59.95203837,,,,,,,,,,,,,,,,,,,,,,,,612.593,613.753,l,1,0.473,,0.473,1,613.753,614.251,,,,,,299,FEM,WORD,AGR,150,bolsa,,la,,614.251,614.251,0.52037037,0.491666667,0,0,0,,0,224,224,298,1,bosga,,,,,
,,,,,,5e23c7e45ade0b6743da7d73,676192165fb32c2e1fb7aee6,67d177c5c99443588f4eb146,2025-03-12_06h02.55.390,Tarea de decisión léxica,2024.2.5,Win32,59.95203837,,,,,,,,,,,,,,,,,,,,,,,,614.253,615.399,a,1,0.476,,0.476,1,615.399,615.897,,,,,,356,FEM,NOWORD,AGR,150,bepla,,la,,615.898,615.898,0.52037037,0.491666667,0,0,0,,0,225,225,355,1,regla,,,,,
,,,,,,5e23c7e45ade0b6743da7d73,676192165fb32c2e1fb7aee6,67d177c5c99443588f4eb146,2025-03-12_06h02.55.390,Tarea de decisión léxica,2024.2.5,Win32,59.95203837,,,,,,,,,,,,,,,,,,,,,,,,615.9,617.248,l,0,0.691,,0.691,0,617.253,617.749,,,,,,180,MAS,NOWORD,AGR,150,sono,,el,,617.749,617.749,0.52037037,0.491666667,0,0,0,,0,226,226,179,1,toro,,,,,
,,,,,,5e23c7e45ade0b6743da7d73,676192165fb32c2e1fb7aee6,67d177c5c99443588f4eb146,2025-03-12_06h02.55.390,Tarea de decisión léxica,2024.2.5,Win32,59.95203837,,,,,,,,,,,,,,,,,,,,,,,,617.752,618.932,a,1,0.501,,0.501,1,618.933,619.431,,,,,,292,FEM,NOWORD,AGR,150,mesta,,la,,619.432,619.435,0.52037037,0.491666667,0,0,0,,0,227,227,291,1,pista,,,,,
,,,,,,5e23c7e45ade0b6743da7d73,676192165fb32c2e1fb7aee6,67d177c5c99443588f4eb146,2025-03-12_06h02.55.390,Tarea de decisión léxica,2024.2.5,Win32,59.95203837,,,,,,,,,,,,,,,,,,,,,,,,619.437,620.598,l,1,0.493,,0.493,1,620.599,621.098,,,,,,363,FEM,WORD,AGR,150,deuda,,la,,621.098,621.099,0.52037037,0.491666667,0,0,0,,0,228,228,362,1,veida,,,,,
,,,,,,5e23c7e45ade0b6743da7d73,676192165fb32c2e1fb7aee6,67d177c5c99443588f4eb146,2025-03-12_06h02.55.390,Tarea de decisión léxica,2024.2.5,Win32,59.95203837,,,,,,,,,,,,,,,,,,,,,,,,621.101,622.414,l,1,0.644,,0.644,1,622.414,622.917,,,,,,191,FEM,WORD,AGR,150,pila,,la,,622.917,622.918,0.52037037,0.491666667,0,0,0,,0,229,229,190,1,bila,,,,,
,,,,,,5e23c7e45ade0b6743da7d73,676192165fb32c2e1fb7aee6,67d177c5c99443588f4eb146,2025-03-12_06h02.55.390,Tarea de decisión léxica,2024.2.5,Win32,59.95203837,,,,,,,,,,,,,,,,,,,,,,,,622.919,624.148,a,1,0.558,,0.558,1,624.15,624.651,,,,,,340,MAS,NOWORD,AGR,150,plajo,,el,,624.652,624.652,0.52037037,0.491666667,0,0,0,,0,230,230,339,1,brazo,,,,,
,,,,,,5e23c7e45ade0b6743da7d73,676192165fb32c2e1fb7aee6,67d177c5c99443588f4eb146,2025-03-12_06h02.55.390,Tarea de decisión léxica,2024.2.5,Win32,59.95203837,,,,,,,,,,,,,,,,,,,,,,,,624.653,625.864,l,1,0.541,,0.541,1,625.864,626.363,,,,,,139,MAS,WORD,AGR,150,mago,,el,,626.364,626.364,0.52037037,0.491666667,0,0,0,,0,231,231,138,1,nila,,,,,
,,,,,,5e23c7e45ade0b6743da7d73,676192165fb32c2e1fb7aee6,67d177c5c99443588f4eb146,2025-03-12_06h02.55.390,Tarea de decisión léxica,2024.2.5,Win32,59.95203837,,,,,,,,,,,,,,,,,,,,,,,,626.366,627.697,l,1,0.652,,0.652,1,627.697,628.198,,,,,,111,MAS,WORD,AGR,150,muro,,el,,628.199,628.202,0.52037037,0.491666667,0,0,0,,0,232,232,110,1,siro,,,,,
,,,,,,5e23c7e45ade0b6743da7d73,676192165fb32c2e1fb7aee6,67d177c5c99443588f4eb146,2025-03-12_06h02.55.390,Tarea de decisión léxica,2024.2.5,Win32,59.95203837,,,,,,,,,,,,,,,,,,,,,,,,628.203,629.549,a,1,0.674,,0.674,1,629.55,630.051,,,,,,82,FEM,NOWORD,DIS,150,vasa,,el,,630.051,630.052,0.52037037,0.491666667,0,0,0,,0,233,233,81,1,dama,,,,,
,,,,,,5e23c7e45ade0b6743da7d73,676192165fb32c2e1fb7aee6,67d177c5c99443588f4eb146,2025-03-12_06h02.55.390,Tarea de decisión léxica,2024.2.5,Win32,59.95203837,,,,,,,,,,,,,,,,,,,,,,,,630.054,631.448,l,1,0.712,,0.712,1,631.448,631.948,,,,,,209,MAS,WORD,DIS,150,velo,,la,,631.948,631.948,0.52037037,0.491666667,0,0,0,,0,234,234,208,1,dero,,,,,
,,,,,,5e23c7e45ade0b6743da7d73,676192165fb32c2e1fb7aee6,67d177c5c99443588f4eb146,2025-03-12_06h02.55.390,Tarea de decisión léxica,2024.2.5,Win32,59.95203837,,,,,,,,,,,,,,,,,,,,,,,,631.952,633.016,l,1,0.382,,0.382,1,633.016,633.514,,,,,,49,FEM,WORD,DIS,150,edad,,el,,633.514,633.515,0.52037037,0.491666667,0,0,0,,0,235,235,48,1,ecat,,,,,
,,,,,,5e23c7e45ade0b6743da7d73,676192165fb32c2e1fb7aee6,67d177c5c99443588f4eb146,2025-03-12_06h02.55.390,Tarea de decisión léxica,2024.2.5,Win32,59.95203837,,,,,,,,,,,,,,,,,,,,,,,,633.517,634.663,a,1,0.47,,0.47,1,634.664,635.164,,,,,,270,MAS,NOWORD,DIS,150,mello,,la,,635.164,635.164,0.52037037,0.491666667,0,0,0,,0,236,236,269,1,perro,,,,,
,,,,,,5e23c7e45ade0b6743da7d73,676192165fb32c2e1fb7aee6,67d177c5c99443588f4eb146,2025-03-12_06h02.55.390,Tarea de decisión léxica,2024.2.5,Win32,59.95203837,,,,,,,,,,,,,,,,,,,,,,,,635.166,636.264,l,1,0.419,,0.419,1,636.264,636.765,,,,,,289,FEM,WORD,DIS,150,bomba,,el,,636.767,636.77,0.52037037,0.491666667,0,0,0,,0,237,237,288,1,bumpa,,,,,
,,,,,,5e23c7e45ade0b6743da7d73,676192165fb32c2e1fb7aee6,67d177c5c99443588f4eb146,2025-03-12_06h02.55.390,Tarea de decisión léxica,2024.2.5,Win32,59.95203837,,,,,,,,,,,,,,,,,,,,,,,,636.772,637.882,l,1,0.442,,0.442,1,637.883,638.383,,,,,,173,FEM,WORD,DIS,150,rosa,,el,,638.384,638.384,0.52037037,0.491666667,0,0,0,,0,238,238,172,1,boma,,,,,
,,,,,,5e23c7e45ade0b6743da7d73,676192165fb32c2e1fb7aee6,67d177c5c99443588f4eb146,2025-03-12_06h02.55.390,Tarea de decisión léxica,2024.2.5,Win32,59.95203837,,,,,,,,,,,,,,,,,,,,,,,,638.385,639.564,a,1,0.508,,0.508,1,639.564,640.064,,,,,,88,MAS,NOWORD,AGR,150,damo,,el,,640.064,640.064,0.52037037,0.491666667,0,0,0,,0,239,239,87,1,vaso,,,,,
,,,,,,5e23c7e45ade0b6743da7d73,676192165fb32c2e1fb7aee6,67d177c5c99443588f4eb146,2025-03-12_06h02.55.390,Tarea de decisión léxica,2024.2.5,Win32,59.95203837,,,,,,,,,,,,,,,,,,,,,,,,640.066,641.231,l,1,0.5,,0.5,1,641.231,641.73,,,,,,161,MAS,WORD,DIS,150,coro,,la,,641.73,641.73,0.52037037,0.491666667,0,0,0,,0,240,240,160,1,bopo,,,,,
,,,,,,5e23c7e45ade0b6743da7d73,676192165fb32c2e1fb7aee6,67d177c5c99443588f4eb146,2025-03-12_06h02.55.390,Tarea de decisión léxica,2024.2.5,Win32,59.95203837,,,,,,,,,,,,,,,,,,,,,,,,641.732,642.949,a,1,0.555,,0.555,1,642.95,643.451,,,,,,186,MAS,NOWORD,DIS,150,raol,,la,,643.451,643.451,0.52037037,0.491666667,0,0,0,,0,241,241,185,1,baúl,,,,,
,,,,,,5e23c7e45ade0b6743da7d73,676192165fb32c2e1fb7aee6,67d177c5c99443588f4eb146,2025-03-12_06h02.55.390,Tarea de decisión léxica,2024.2.5,Win32,59.95203837,,,,,,,,,,,,,,,,,,,,,,,,643.452,644.653,l,1,0.522,,0.522,1,644.653,645.15,,,,,,155,FEM,WORD,AGR,150,fuga,,la,,645.151,645.154,0.52037037,0.491666667,0,0,0,,0,242,242,154,1,luma,,,,,
,,,,,,5e23c7e45ade0b6743da7d73,676192165fb32c2e1fb7aee6,67d177c5c99443588f4eb146,2025-03-12_06h02.55.390,Tarea de decisión léxica,2024.2.5,Win32,59.95203837,,,,,,,,,,,,,,,,,,,,,,,,645.155,646.317,l,1,0.485,,0.485,1,646.319,646.816,,,,,,433,MAS,WORD,DIS,150,disco,,la,,646.817,646.819,0.52037037,0.491666667,0,0,0,,0,243,243,432,1,durco,,,,,
,,,,,,5e23c7e45ade0b6743da7d73,676192165fb32c2e1fb7aee6,67d177c5c99443588f4eb146,2025-03-12_06h02.55.390,Tarea de decisión léxica,2024.2.5,Win32,59.95203837,,,,,,,,,,,,,,,,,,,,,,,,646.825,648.051,a,1,0.558,,0.558,1,648.051,648.548,,,,,,242,MAS,NOWORD,DIS,150,mirdo,,la,,648.548,648.55,0.52037037,0.491666667,0,0,0,,0,244,244,241,1,mundo,,,,,
,,,,,,5e23c7e45ade0b6743da7d73,676192165fb32c2e1fb7aee6,67d177c5c99443588f4eb146,2025-03-12_06h02.55.390,Tarea de decisión léxica,2024.2.5,Win32,59.95203837,,,,,,,,,,,,,,,,,,,,,,,,648.554,649.848,a,1,0.624,,0.624,1,649.852,650.348,,,,,,96,FEM,NOWORD,AGR,151,neda,,la,,650.35,650.351,0.52037037,0.491666667,0,0,0,,0,245,245,95,1,moda,,,,,
,,,,,,5e23c7e45ade0b6743da7d73,676192165fb32c2e1fb7aee6,67d177c5c99443588f4eb146,2025-03-12_06h02.55.390,Tarea de decisión léxica,2024.2.5,Win32,59.95203837,,,,,,,,,,,,,,,,,,,,,,,,650.353,651.531,l,1,0.505,,0.505,1,651.531,652.03,,,,,,333,FEM,WORD,DIS,150,tarea,,el,,652.03,652.031,0.52037037,0.491666667,0,0,0,,0,246,246,332,1,dalea,,,,,
,,,,,,5e23c7e45ade0b6743da7d73,676192165fb32c2e1fb7aee6,67d177c5c99443588f4eb146,2025-03-12_06h02.55.390,Tarea de decisión léxica,2024.2.5,Win32,59.95203837,,,,,,,,,,,,,,,,,,,,,,,,652.034,653.18,a,1,0.47,,0.47,1,653.181,653.681,,,,,,354,FEM,NOWORD,DIS,150,cezca,,el,,653.682,653.686,0.52037037,0.491666667,0,0,0,,0,247,247,353,1,celda,,,,,
,,,,,,5e23c7e45ade0b6743da7d73,676192165fb32c2e1fb7aee6,67d177c5c99443588f4eb146,2025-03-12_06h02.55.390,Tarea de decisión léxica,2024.2.5,Win32,59.95203837,,,,,,,,,,,,,,,,,,,,,,,,653.687,654.931,a,1,0.569,,0.569,1,654.932,655.431,,,,,,54,FEM,NOWORD,DIS,150,rora,,el,,655.431,655.431,0.52037037,0.491666667,0,0,0,,0,248,248,53,1,boda,,,,,
,,,,,,5e23c7e45ade0b6743da7d73,676192165fb32c2e1fb7aee6,67d177c5c99443588f4eb146,2025-03-12_06h02.55.390,Tarea de decisión léxica,2024.2.5,Win32,59.95203837,,,,,,,,,,,,,,,,,,,,,,,,655.433,656.648,a,1,0.533,,0.533,1,656.649,657.147,,,,,,132,FEM,NOWORD,AGR,150,fada,,la,,657.147,657.148,0.52037037,0.491666667,0,0,0,,0,249,249,131,1,mina,,,,,
,,,,,,5e23c7e45ade0b6743da7d73,676192165fb32c2e1fb7aee6,67d177c5c99443588f4eb146,2025-03-12_06h02.55.390,Tarea de decisión léxica,2024.2.5,Win32,59.95203837,,,,,,,,,,,,,,,,,,,,,,,,657.149,658.2,l,1,0.392,,0.392,1,658.201,658.702,,,,,,387,FEM,WORD,AGR,150,crema,,la,,658.702,658.702,0.52037037,0.491666667,0,0,0,,0,250,250,386,1,bresa,,,,,
,,,,,,5e23c7e45ade0b6743da7d73,676192165fb32c2e1fb7aee6,67d177c5c99443588f4eb146,2025-03-12_06h02.55.390,Tarea de decisión léxica,2024.2.5,Win32,59.95203837,,,,,,,,,,,,,,,,,,,,,,,,658.704,659.931,l,1,0.552,,0.552,1,659.932,660.433,,,,,,465,FEM,WORD,DIS,150,aguja,,el,,660.434,660.437,0.52037037,0.491666667,0,0,0,,0,251,251,464,1,asuba,,,,,
,,,,,,5e23c7e45ade0b6743da7d73,676192165fb32c2e1fb7aee6,67d177c5c99443588f4eb146,2025-03-12_06h02.55.390,Tarea de decisión léxica,2024.2.5,Win32,59.95203837,,,,,,,,,,,,,,,,,,,,,,,,660.439,661.548,a,1,0.435,,0.435,1,661.548,662.048,,,,,,166,FEM,NOWORD,DIS,150,dera,,el,,662.048,662.048,0.52037037,0.491666667,0,0,0,,0,252,252,165,1,vela,,,,,
,,,,,,5e23c7e45ade0b6743da7d73,676192165fb32c2e1fb7aee6,67d177c5c99443588f4eb146,2025-03-12_06h02.55.390,Tarea de decisión léxica,2024.2.5,Win32,59.95203837,,,,,,,,,,,,,,,,,,,,,,,,662.05,663.37,l,1,0.64,,0.64,1,663.37,663.864,,,,,,195,FEM,WORD,AGR,150,tela,,la,,663.864,663.865,0.52037037,0.491666667,0,0,0,,0,253,253,194,1,sira,,,,,
,,,,,,5e23c7e45ade0b6743da7d73,676192165fb32c2e1fb7aee6,67d177c5c99443588f4eb146,2025-03-12_06h02.55.390,Tarea de decisión léxica,2024.2.5,Win32,59.95203837,,,,,,,,,,,,,,,,,,,,,,,,663.868,665.18,a,1,0.636,,0.636,1,665.18,665.671,,,,,,418,FEM,NOWORD,DIS,150,banja,,el,,665.671,665.672,0.52037037,0.491666667,0,0,0,,0,254,254,417,1,barba,,,,,
,,,,,,5e23c7e45ade0b6743da7d73,676192165fb32c2e1fb7aee6,67d177c5c99443588f4eb146,2025-03-12_06h02.55.390,Tarea de decisión léxica,2024.2.5,Win32,59.95203837,,,,,,,,,,,,,,,,,,,,,,,,665.673,667.001,a,1,0.651,,0.651,1,667.002,667.5,,,,,,316,FEM,NOWORD,AGR,150,riosa,,la,,667.5,667.501,0.52037037,0.491666667,0,0,0,,0,255,255,315,1,reina,,,,,
,,,,,,5e23c7e45ade0b6743da7d73,676192165fb32c2e1fb7aee6,67d177c5c99443588f4eb146,2025-03-12_06h02.55.390,Tarea de decisión léxica,2024.2.5,Win32,59.95203837,,,,,,,,,,,,,,,,,,,,,,,,667.503,668.64,l,1,0.461,,0.461,1,668.64,669.131,,,,,,473,FEM,WORD,DIS,150,feria,,el,,669.135,669.139,0.52037037,0.491666667,0,0,0,,0,256,256,472,1,felia,,,,,
,,,,,,5e23c7e45ade0b6743da7d73,676192165fb32c2e1fb7aee6,67d177c5c99443588f4eb146,2025-03-12_06h02.55.390,Tarea de decisión léxica,2024.2.5,Win32,59.95203837,,,,,,,,,,,,,,,,,,,,,,,,669.141,670.315,l,1,0.507,,0.507,1,670.315,670.814,,,,,,89,MAS,WORD,DIS,150,humo,,la,,670.814,670.814,0.52037037,0.491666667,0,0,0,,0,257,257,88,1,guso,,,,,
,,,,,,5e23c7e45ade0b6743da7d73,676192165fb32c2e1fb7aee6,67d177c5c99443588f4eb146,2025-03-12_06h02.55.390,Tarea de decisión léxica,2024.2.5,Win32,59.95203837,,,,,,,,,,,,,,,,,,,,,,,,670.816,672.197,a,1,0.712,,0.712,1,672.198,672.699,,,,,,196,FEM,NOWORD,AGR,150,sira,,la,,672.699,672.699,0.52037037,0.491666667,0,0,0,,0,258,258,195,1,tela,,,,,
,,,,,,5e23c7e45ade0b6743da7d73,676192165fb32c2e1fb7aee6,67d177c5c99443588f4eb146,2025-03-12_06h02.55.390,Tarea de decisión léxica,2024.2.5,Win32,59.95203837,,,,,,,,,,,,,,,,,,,,,,,,672.703,674.314,a,1,0.933,,0.933,1,674.314,674.814,,,,,,470,MAS,NOWORD,DIS,150,matia,,la,,674.814,674.814,0.52037037,0.491666667,0,0,0,,0,259,259,469,1,patio,,,,,
,,,,,,5e23c7e45ade0b6743da7d73,676192165fb32c2e1fb7aee6,67d177c5c99443588f4eb146,2025-03-12_06h02.55.390,Tarea de decisión léxica,2024.2.5,Win32,59.95203837,,,,,,,,,,,,,,,,,,,,,,,,674.816,676.031,a,1,0.536,,0.536,1,676.032,676.535,,,,,,474,FEM,NOWORD,DIS,150,felia,,el,,676.535,676.536,0.52037037,0.491666667,0,0,0,,0,260,260,473,1,feria,,,,,
,,,,,,5e23c7e45ade0b6743da7d73,676192165fb32c2e1fb7aee6,67d177c5c99443588f4eb146,2025-03-12_06h02.55.390,Tarea de decisión léxica,2024.2.5,Win32,59.95203837,,,,,,,,,,,,,,,,,,,,,,,,676.542,678.081,a,1,0.87,,0.87,1,678.081,678.57,,,,,,308,MAS,NOWORD,AGR,150,holol,,el,,678.573,678.578,0.52037037,0.491666667,0,0,0,,0,261,261,307,1,hotel,,,,,
,,,,,,5e23c7e45ade0b6743da7d73,676192165fb32c2e1fb7aee6,67d177c5c99443588f4eb146,2025-03-12_06h02.55.390,Tarea de decisión léxica,2024.2.5,Win32,59.95203837,,,,,,,,,,,,,,,,,,,,,,,,678.579,679.804,a,1,0.552,,0.552,1,679.806,680.299,,,,,,462,FEM,NOWORD,DIS,150,pagra,,el,,680.299,680.304,0.52037037,0.491666667,0,0,0,,0,262,262,461,1,tabla,,,,,
,,,,,,5e23c7e45ade0b6743da7d73,676192165fb32c2e1fb7aee6,67d177c5c99443588f4eb146,2025-03-12_06h02.55.390,Tarea de decisión léxica,2024.2.5,Win32,59.95203837,,,,,,,,,,,,,,,,,,,,,,,,680.309,681.481,l,1,0.502,,0.502,1,681.481,681.98,,,,,,451,FEM,WORD,AGR,150,fruta,,la,,681.981,681.981,0.52037037,0.491666667,0,0,0,,0,263,263,450,1,clita,,,,,
,,,,,,5e23c7e45ade0b6743da7d73,676192165fb32c2e1fb7aee6,67d177c5c99443588f4eb146,2025-03-12_06h02.55.390,Tarea de decisión léxica,2024.2.5,Win32,59.95203837,,,,,,,,,,,,,,,,,,,,,,,,681.983,683.238,l,1,0.585,,0.585,1,683.239,683.734,,,,,,135,MAS,WORD,AGR,150,tubo,,el,,683.734,683.734,0.52037037,0.491666667,0,0,0,,0,264,264,134,1,geso,,,,,
,,,,,,5e23c7e45ade0b6743da7d73,676192165fb32c2e1fb7aee6,67d177c5c99443588f4eb146,2025-03-12_06h02.55.390,Tarea de decisión léxica,2024.2.5,Win32,59.95203837,,,,,,,,,,,,,,,,,,,,,,,,683.737,685.067,l,1,0.649,,0.649,1,685.068,685.572,,,,,,407,FEM,WORD,AGR,150,cueva,,la,,685.572,685.573,0.52037037,0.491666667,0,0,0,,0,265,265,406,1,cauba,,,,,
,,,,,,5e23c7e45ade0b6743da7d73,676192165fb32c2e1fb7aee6,67d177c5c99443588f4eb146,2025-03-12_06h02.55.390,Tarea de decisión léxica,2024.2.5,Win32,59.95203837,,,,,,,,,,,,,,,,,,,,,,,,685.576,686.933,a,1,0.683,,0.683,1,686.933,687.433,,,,,,218,MAS,NOWORD,DIS,150,budo,,la,,687.435,687.442,0.52037037,0.491666667,0,0,0,,0,266,266,217,1,luto,,,,,
,,,,,,5e23c7e45ade0b6743da7d73,676192165fb32c2e1fb7aee6,67d177c5c99443588f4eb146,2025-03-12_06h02.55.390,Tarea de decisión léxica,2024.2.5,Win32,59.95203837,,,,,,,,,,,,,,,,,,,,,,,,687.442,688.814,a,1,0.709,,0.709,1,688.814,689.313,,,,,,446,MAS,NOWORD,DIS,150,ascor,,la,,689.314,689.314,0.52037037,0.491666667,0,0,0,,0,267,267,445,1,actor,,,,,
,,,,,,5e23c7e45ade0b6743da7d73,676192165fb32c2e1fb7aee6,67d177c5c99443588f4eb146,2025-03-12_06h02.55.390,Tarea de decisión léxica,2024.2.5,Win32,59.95203837,,,,,,,,,,,,,,,,,,,,,,,,689.316,690.431,l,1,0.444,,0.444,1,690.432,690.93,,,,,,479,MAS,WORD,AGR,150,rumbo,,el,,690.931,690.931,0.52037037,0.491666667,0,0,0,,0,268,268,478,1,rimpo,,,,,
,,,,,,5e23c7e45ade0b6743da7d73,676192165fb32c2e1fb7aee6,67d177c5c99443588f4eb146,2025-03-12_06h02.55.390,Tarea de decisión léxica,2024.2.5,Win32,59.95203837,,,,,,,,,,,,,,,,,,,,,,,,690.935,692.247,a,1,0.641,,0.641,1,692.248,692.747,,,,,,228,MAS,NOWORD,AGR,150,laro,,el,,692.747,692.748,0.52037037,0.491666667,0,0,0,,0,269,269,227,1,faro,,,,,
