counterbalancing_condition,consent_prescreening.block_1/declare_consent,consent_prescreening.block_1/age_years,consent_prescreening.block_1/gender,consent_prescreening.block_1/language_disorder,consent_prescreening.block_1/first_language,PROLIFIC_PID,STUDY_ID,SESSION_ID,date,expName,psychopyVersion,OS,frameRate,check_prescreening_answers.started,check_prescreening_answers.stopped,Instructions.started,Instructions.stopped,instr_done_keyboard.keys,instr_done_touch.x,instr_done_touch.y,instr_done_touch.leftButton,instr_done_touch.midButton,instr_done_touch.rightButton,instr_done_touch.clicked_name,instruction_pages.thisRepN,instruction_pages.thisTrialN,instruction_pages.thisN,instruction_pages.thisIndex,instruction_pages.ran,pageN,phase,instruct_text,has_image,instruct_image,instr_done_keyboard.rt,instr_done_keyboard.duration,presentTrial.started,presentTrial.stopped,response.keys,response.corr,response.rt,response.duration,rt,corr,feedback.started,feedback.stopped,practice_trials.thisRepN,practice_trials.thisTrialN,practice_trials.thisN,practice_trials.thisIndex,practice_trials.ran,TrialID,Gender,StimulusType,Condition,PrimeDuration,Prime,len,Flanker,corrAns,Break.started,Break.stopped,break_done_touch.x,break_done_touch.y,break_done_touch.leftButton,break_done_touch.midButton,break_done_touch.rightButton,break_done_keyboard.keys,experiment_trials.thisRepN,experiment_trials.thisTrialN,experiment_trials.thisN,experiment_trials.thisIndex,experiment_trials.ran,PairedWith,break_done_touch.clicked_name,End.started,End.stopped
0,"[""over_18"",""comfortable"",""read_info"",""consent_given""]",35,F,"[""none""]","[""spanish""]",5e830b929f2ed2018ec42099,676192165fb32c2e1fb7aee6,67d0df34d6e400caa5bf6566,2025-03-11_19h12.42.591,Tarea de decisión léxica,2024.2.5,Win32,119.047619,,,,,,,,,,,,,,,,,,,,,,,,,,,,,,,,,,,,,,,,,,,,,,,,,,,,,,,,,,,,,,,,
,,,,,,5e830b929f2ed2018ec42099,676192165fb32c2e1fb7aee6,67d0df34d6e400caa5bf6566,2025-03-11_19h12.42.591,Tarea de decisión léxica,2024.2.5,Win32,119.047619,39.1636,39.1638,,,,,,,,,,,,,,,,,,,,,,,,,,,,,,,,,,,,,,,,,,,,,,,,,,,,,,,,,,,,,,
,,,,,,5e830b929f2ed2018ec42099,676192165fb32c2e1fb7aee6,67d0df34d6e400caa5bf6566,2025-03-11_19h12.42.591,Tarea de decisión léxica,2024.2.5,Win32,119.047619,,,39.178,88.0782,,-0.030555513,-0.39907406,1,0,0,,0,0,0,0,1,1,instructions,"INSTRUCCIONES
Va a realizar una prueba de decisión léxica. Desde el comienzo de la prueba mire siempre al centro de la pantalla. Se presentará una serie de cadenas de letras, una a la vez, en la pantalla. Su tarea consiste en determinar si cada cadena de letras constituye una palabra real en español o una no-palabra (una secuencia de letras que no constituye una palabra real). 

Pulse la tecla ESPACIO para continuar.",0,keyboardresponseNW.png,,,,,,,,,,,,,,,,,,,,,,,,,,,,,,,,,,,,,,,,,,,
,,,,,,5e830b929f2ed2018ec42099,676192165fb32c2e1fb7aee6,67d0df34d6e400caa5bf6566,2025-03-11_19h12.42.591,Tarea de decisión léxica,2024.2.5,Win32,119.047619,,,88.081,237.7626,,-0.065740727,-0.412037037,1,0,0,instr_done_button,0,1,1,1,1,2,instructions,"El procedimiento es el siguiente: Aparecerán dos barras verticales posicionadas en el centro de la pantalla, separadas por un pequeño espacio.Por favor, enfoque su atención en el espacio entre las barras. Esto preparará sus ojos para la siguiente cadena de letras, que aparecerá entre las dos barras durante un instante.

Pulse la tecla ESPACIO para continuar.",0,keyboardresponseNW.png,,,,,,,,,,,,,,,,,,,,,,,,,,,,,,,,,,,,,,,,,,,
,,,,,,5e830b929f2ed2018ec42099,676192165fb32c2e1fb7aee6,67d0df34d6e400caa5bf6566,2025-03-11_19h12.42.591,Tarea de decisión léxica,2024.2.5,Win32,119.047619,,,237.7651,304.7938,space,0.12962963,0.204629633,0,0,0,,0,2,2,2,1,3,instructions,"En el teclado de su dispositivo, pulse la tecla ""L"" si la cadena de letras es una palabra real en español (por ejemplo: ""mano"") y la tecla ""A"" si la cadena de letras es una no-palabra (por ejemplo: ""minu"").
Pulse la tecla ESPACIO para continuar.",1,keyboardresponseNW.png,66.9713,,,,,,,,,,,,,,,,,,,,,,,,,,,,,,,,,,,,,,,,,,
,,,,,,5e830b929f2ed2018ec42099,676192165fb32c2e1fb7aee6,67d0df34d6e400caa5bf6566,2025-03-11_19h12.42.591,Tarea de decisión léxica,2024.2.5,Win32,119.047619,,,304.7958,307.3971,space,0.12962963,0.204629633,0,0,0,,0,3,3,3,1,4,instructions,"Es muy importante que responda con la mayor rapidez y precisión posibles. Si no responde dentro de 2 segundos, aparecerá el mensaje ""Muy lento"" y el experimento pasará a la siguiente palabra. Inmediatamente después de su respuesta se indicará si fue correcta o no. Los primeros 15 intentos serán de práctica y habrá dos descansos durante la prueba.

Pulse la tecla ESPACIO  para iniciar la parte de práctica.",0,keyboardresponseNW.png,2.5889,,,,,,,,,,,,,,,,,,,,,,,,,,,,,,,,,,,,,,,,,,
,,,,,,5e830b929f2ed2018ec42099,676192165fb32c2e1fb7aee6,67d0df34d6e400caa5bf6566,2025-03-11_19h12.42.591,Tarea de decisión léxica,2024.2.5,Win32,119.047619,,,,,,,,,,,,,,,,,,,,,,,,307.4177,309.7761,a,1,1.6986,,1.6986,1,309.7764,310.2752,0,0,0,2,1,1003,FEM,NOWORD,DIS,150,muvor,5,el,a,,,,,,,,,,,,,,,,,
,,,,,,5e830b929f2ed2018ec42099,676192165fb32c2e1fb7aee6,67d0df34d6e400caa5bf6566,2025-03-11_19h12.42.591,Tarea de decisión léxica,2024.2.5,Win32,119.047619,,,,,,,,,,,,,,,,,,,,,,,,310.2763,312.1885,l,0,1.248,,1.248,0,312.1893,312.6878,0,1,1,1,1,1002,FEM,NOWORD,DIS,150,mabo,4,el,a,,,,,,,,,,,,,,,,,
,,,,,,5e830b929f2ed2018ec42099,676192165fb32c2e1fb7aee6,67d0df34d6e400caa5bf6566,2025-03-11_19h12.42.591,Tarea de decisión léxica,2024.2.5,Win32,119.047619,,,,,,,,,,,,,,,,,,,,,,,,312.6887,313.9935,l,1,0.6411,,0.6411,1,313.9942,314.4926,0,2,2,7,1,1008,MAS,WORD,DIS,150,frío,4,la,l,,,,,,,,,,,,,,,,,
,,,,,,5e830b929f2ed2018ec42099,676192165fb32c2e1fb7aee6,67d0df34d6e400caa5bf6566,2025-03-11_19h12.42.591,Tarea de decisión léxica,2024.2.5,Win32,119.047619,,,,,,,,,,,,,,,,,,,,,,,,314.4934,315.749,l,1,0.5911,,0.5911,1,315.7491,316.248,0,3,3,5,1,1006,FEM,WORD,AGR,150,cara,4,la,l,,,,,,,,,,,,,,,,,
,,,,,,5e830b929f2ed2018ec42099,676192165fb32c2e1fb7aee6,67d0df34d6e400caa5bf6566,2025-03-11_19h12.42.591,Tarea de decisión léxica,2024.2.5,Win32,119.047619,,,,,,,,,,,,,,,,,,,,,,,,316.2493,317.5289,a,1,0.6182,,0.6182,1,317.529,318.028,0,4,4,4,1,1005,MAS,NOWORD,DIS,150,nobad,5,la,a,,,,,,,,,,,,,,,,,
,,,,,,5e830b929f2ed2018ec42099,676192165fb32c2e1fb7aee6,67d0df34d6e400caa5bf6566,2025-03-11_19h12.42.591,Tarea de decisión léxica,2024.2.5,Win32,119.047619,,,,,,,,,,,,,,,,,,,,,,,,318.029,319.1761,l,1,0.4831,,0.4831,1,319.1762,319.6752,0,5,5,6,1,1007,MAS,WORD,DIS,150,masa,4,la,l,,,,,,,,,,,,,,,,,
,,,,,,5e830b929f2ed2018ec42099,676192165fb32c2e1fb7aee6,67d0df34d6e400caa5bf6566,2025-03-11_19h12.42.591,Tarea de decisión léxica,2024.2.5,Win32,119.047619,,,,,,,,,,,,,,,,,,,,,,,,319.6761,320.8812,l,1,0.5438,,0.5438,1,320.8813,321.3803,0,6,6,9,1,1010,MAS,WORD,DIS,150,video,5,la,l,,,,,,,,,,,,,,,,,
,,,,,,5e830b929f2ed2018ec42099,676192165fb32c2e1fb7aee6,67d0df34d6e400caa5bf6566,2025-03-11_19h12.42.591,Tarea de decisión léxica,2024.2.5,Win32,119.047619,,,,,,,,,,,,,,,,,,,,,,,,321.3811,322.6366,l,0,0.5916,,0.5916,0,322.6371,323.1356,0,7,7,3,1,1004,FEM,NOWORD,AGR,150,bireo,5,la,a,,,,,,,,,,,,,,,,,
,,,,,,5e830b929f2ed2018ec42099,676192165fb32c2e1fb7aee6,67d0df34d6e400caa5bf6566,2025-03-11_19h12.42.591,Tarea de decisión léxica,2024.2.5,Win32,119.047619,,,,,,,,,,,,,,,,,,,,,,,,323.1365,324.3919,l,1,0.5932,,0.5932,1,324.3925,324.8911,0,8,8,8,1,1009,FEM,WORD,AGR,150,viejo,5,la,l,,,,,,,,,,,,,,,,,
,,,,,,5e830b929f2ed2018ec42099,676192165fb32c2e1fb7aee6,67d0df34d6e400caa5bf6566,2025-03-11_19h12.42.591,Tarea de decisión léxica,2024.2.5,Win32,119.047619,,,,,,,,,,,,,,,,,,,,,,,,324.892,326.3881,a,1,0.8352,,0.8352,1,326.3882,326.8874,0,9,9,0,1,1001,FEM,NOWORD,AGR,150,croz,4,la,a,,,,,,,,,,,,,,,,,
,,,,,,5e830b929f2ed2018ec42099,676192165fb32c2e1fb7aee6,67d0df34d6e400caa5bf6566,2025-03-11_19h12.42.591,Tarea de decisión léxica,2024.2.5,Win32,119.047619,,,334.8751,336.0212,space,0.12962963,0.204629633,0,0,0,,,,,,,,,,,,1.1318,,336.0555,337.3938,l,0,0.6746,,0.6746,0,337.3945,337.8931,,,,,,114,FEM,NOWORD,DIS,150,tada,,el,,337.8934,337.8971,0.12962963,0.204629633,0,0,0,,0,0,0,113,1,miel,,,
,,,,,,5e830b929f2ed2018ec42099,676192165fb32c2e1fb7aee6,67d0df34d6e400caa5bf6566,2025-03-11_19h12.42.591,Tarea de decisión léxica,2024.2.5,Win32,119.047619,,,,,,,,,,,,,,,,,,,,,,,,337.8984,339.3237,l,1,0.767,,0.767,1,339.3244,339.8228,,,,,,363,FEM,WORD,AGR,150,deuda,,la,,339.8228,339.8229,0.12962963,0.204629633,0,0,0,,0,1,1,362,1,veida,,,
,,,,,,5e830b929f2ed2018ec42099,676192165fb32c2e1fb7aee6,67d0df34d6e400caa5bf6566,2025-03-11_19h12.42.591,Tarea de decisión léxica,2024.2.5,Win32,119.047619,,,,,,,,,,,,,,,,,,,,,,,,339.8239,340.9872,l,1,0.5022,,0.5022,1,340.9872,341.4867,,,,,,207,MAS,WORD,AGR,150,kilo,,el,,341.4881,341.4886,0.12962963,0.204629633,0,0,0,,0,2,2,206,1,kedo,,,
,,,,,,5e830b929f2ed2018ec42099,676192165fb32c2e1fb7aee6,67d0df34d6e400caa5bf6566,2025-03-11_19h12.42.591,Tarea de decisión léxica,2024.2.5,Win32,119.047619,,,,,,,,,,,,,,,,,,,,,,,,341.4893,342.9506,a,1,0.8014,,0.8014,1,342.9506,343.4497,,,,,,478,MAS,NOWORD,DIS,150,hocon,,la,,343.4498,343.4498,0.12962963,0.204629633,0,0,0,,0,3,3,477,1,botón,,,
,,,,,,5e830b929f2ed2018ec42099,676192165fb32c2e1fb7aee6,67d0df34d6e400caa5bf6566,2025-03-11_19h12.42.591,Tarea de decisión léxica,2024.2.5,Win32,119.047619,,,,,,,,,,,,,,,,,,,,,,,,343.4512,344.5144,l,1,0.3996,,0.3996,1,344.5144,345.0135,,,,,,343,FEM,WORD,DIS,150,plata,,el,,345.0136,345.0137,0.12962963,0.204629633,0,0,0,,0,4,4,342,1,trada,,,
,,,,,,5e830b929f2ed2018ec42099,676192165fb32c2e1fb7aee6,67d0df34d6e400caa5bf6566,2025-03-11_19h12.42.591,Tarea de decisión léxica,2024.2.5,Win32,119.047619,,,,,,,,,,,,,,,,,,,,,,,,345.0147,346.1948,l,1,0.5167,,0.5167,1,346.1948,346.694,,,,,,71,FEM,WORD,DIS,150,isla,,el,,346.6941,346.6943,0.12962963,0.204629633,0,0,0,,0,5,5,70,1,urla,,,
,,,,,,5e830b929f2ed2018ec42099,676192165fb32c2e1fb7aee6,67d0df34d6e400caa5bf6566,2025-03-11_19h12.42.591,Tarea de decisión léxica,2024.2.5,Win32,119.047619,,,,,,,,,,,,,,,,,,,,,,,,346.6952,347.7835,l,0,0.4282,,0.4282,0,347.784,348.2827,,,,,,270,MAS,NOWORD,DIS,150,mello,,la,,348.2828,348.283,0.12962963,0.204629633,0,0,0,,0,6,6,269,1,perro,,,
,,,,,,5e830b929f2ed2018ec42099,676192165fb32c2e1fb7aee6,67d0df34d6e400caa5bf6566,2025-03-11_19h12.42.591,Tarea de decisión léxica,2024.2.5,Win32,119.047619,,,,,,,,,,,,,,,,,,,,,,,,348.2838,349.6635,l,1,0.7157,,0.7157,1,349.6641,350.1627,,,,,,97,MAS,WORD,AGR,150,mono,,el,,350.1637,350.1641,0.12962963,0.204629633,0,0,0,,0,7,7,96,1,fopo,,,
,,,,,,5e830b929f2ed2018ec42099,676192165fb32c2e1fb7aee6,67d0df34d6e400caa5bf6566,2025-03-11_19h12.42.591,Tarea de decisión léxica,2024.2.5,Win32,119.047619,,,,,,,,,,,,,,,,,,,,,,,,350.1646,351.4194,l,1,0.5911,,0.5911,1,351.4194,351.9179,,,,,,43,FEM,WORD,DIS,150,pena,,el,,351.918,351.9181,0.12962963,0.204629633,0,0,0,,0,8,8,42,1,meda,,,
,,,,,,5e830b929f2ed2018ec42099,676192165fb32c2e1fb7aee6,67d0df34d6e400caa5bf6566,2025-03-11_19h12.42.591,Tarea de decisión léxica,2024.2.5,Win32,119.047619,,,,,,,,,,,,,,,,,,,,,,,,351.919,353.1573,l,1,0.5767,,0.5767,1,353.1574,353.6565,,,,,,423,MAS,WORD,AGR,150,queso,,el,,353.6566,353.6568,0.12962963,0.204629633,0,0,0,,0,9,9,422,1,quigo,,,
,,,,,,5e830b929f2ed2018ec42099,676192165fb32c2e1fb7aee6,67d0df34d6e400caa5bf6566,2025-03-11_19h12.42.591,Tarea de decisión léxica,2024.2.5,Win32,119.047619,,,,,,,,,,,,,,,,,,,,,,,,353.6577,354.9209,l,0,0.5992,,0.5992,0,354.9216,355.4202,,,,,,380,MAS,NOWORD,AGR,150,tunso,,el,,355.4203,355.4205,0.12962963,0.204629633,0,0,0,,0,10,10,379,1,turno,,,
,,,,,,5e830b929f2ed2018ec42099,676192165fb32c2e1fb7aee6,67d0df34d6e400caa5bf6566,2025-03-11_19h12.42.591,Tarea de decisión léxica,2024.2.5,Win32,119.047619,,,,,,,,,,,,,,,,,,,,,,,,355.4215,356.6596,l,0,0.5783,,0.5783,0,356.6597,357.1589,,,,,,190,MAS,NOWORD,DIS,150,muvo,,la,,357.1598,357.1604,0.12962963,0.204629633,0,0,0,,0,11,11,189,1,puño,,,
,,,,,,5e830b929f2ed2018ec42099,676192165fb32c2e1fb7aee6,67d0df34d6e400caa5bf6566,2025-03-11_19h12.42.591,Tarea de decisión léxica,2024.2.5,Win32,119.047619,,,,,,,,,,,,,,,,,,,,,,,,357.161,358.49,l,0,0.6664,,0.6664,0,358.49,358.9887,,,,,,236,FEM,NOWORD,AGR,150,tria,,la,,358.9888,358.9889,0.12962963,0.204629633,0,0,0,,0,12,12,235,1,grúa,,,
,,,,,,5e830b929f2ed2018ec42099,676192165fb32c2e1fb7aee6,67d0df34d6e400caa5bf6566,2025-03-11_19h12.42.591,Tarea de decisión léxica,2024.2.5,Win32,119.047619,,,,,,,,,,,,,,,,,,,,,,,,358.99,360.195,l,0,0.5415,,0.5415,0,360.195,360.6941,,,,,,164,FEM,NOWORD,AGR,150,laga,,la,,360.6941,360.6941,0.12962963,0.204629633,0,0,0,,0,13,13,163,1,fama,,,
,,,,,,5e830b929f2ed2018ec42099,676192165fb32c2e1fb7aee6,67d0df34d6e400caa5bf6566,2025-03-11_19h12.42.591,Tarea de decisión léxica,2024.2.5,Win32,119.047619,,,,,,,,,,,,,,,,,,,,,,,,360.6947,362.3246,l,0,0.967,,0.967,0,362.3246,362.8237,,,,,,446,MAS,NOWORD,DIS,150,ascor,,la,,362.8237,362.8237,0.12962963,0.204629633,0,0,0,,0,14,14,445,1,actor,,,
,,,,,,5e830b929f2ed2018ec42099,676192165fb32c2e1fb7aee6,67d0df34d6e400caa5bf6566,2025-03-11_19h12.42.591,Tarea de decisión léxica,2024.2.5,Win32,119.047619,,,,,,,,,,,,,,,,,,,,,,,,362.8245,364.1797,l,1,0.6908,,0.6908,1,364.1805,364.6787,,,,,,127,MAS,WORD,AGR,150,pico,,el,,364.6787,364.6788,0.12962963,0.204629633,0,0,0,,0,15,15,126,1,itio,,,
,,,,,,5e830b929f2ed2018ec42099,676192165fb32c2e1fb7aee6,67d0df34d6e400caa5bf6566,2025-03-11_19h12.42.591,Tarea de decisión léxica,2024.2.5,Win32,119.047619,,,,,,,,,,,,,,,,,,,,,,,,364.6797,365.9431,l,1,0.5996,,0.5996,1,365.9431,366.4426,,,,,,215,FEM,WORD,DIS,150,raíz,,el,,366.4443,366.4451,0.12962963,0.204629633,0,0,0,,0,16,16,214,1,raua,,,
,,,,,,5e830b929f2ed2018ec42099,676192165fb32c2e1fb7aee6,67d0df34d6e400caa5bf6566,2025-03-11_19h12.42.591,Tarea de decisión léxica,2024.2.5,Win32,119.047619,,,,,,,,,,,,,,,,,,,,,,,,366.4458,367.8567,l,0,0.7488,,0.7488,0,367.8572,368.3555,,,,,,358,FEM,NOWORD,DIS,150,gruba,,el,,368.3555,368.3556,0.12962963,0.204629633,0,0,0,,0,17,17,357,1,bruja,,,
,,,,,,5e830b929f2ed2018ec42099,676192165fb32c2e1fb7aee6,67d0df34d6e400caa5bf6566,2025-03-11_19h12.42.591,Tarea de decisión léxica,2024.2.5,Win32,119.047619,,,,,,,,,,,,,,,,,,,,,,,,368.3565,369.8527,a,1,0.8323,,0.8323,1,369.8532,370.3523,,,,,,278,MAS,NOWORD,DIS,150,vuemo,,la,,370.3523,370.3524,0.12962963,0.204629633,0,0,0,,0,18,18,277,1,fuego,,,
,,,,,,5e830b929f2ed2018ec42099,676192165fb32c2e1fb7aee6,67d0df34d6e400caa5bf6566,2025-03-11_19h12.42.591,Tarea de decisión léxica,2024.2.5,Win32,119.047619,,,,,,,,,,,,,,,,,,,,,,,,370.3533,371.6579,l,1,0.6452,,0.6452,1,371.6581,372.1571,,,,,,213,FEM,WORD,AGR,150,rama,,la,,372.1571,372.1572,0.12962963,0.204629633,0,0,0,,0,19,19,212,1,bana,,,
,,,,,,5e830b929f2ed2018ec42099,676192165fb32c2e1fb7aee6,67d0df34d6e400caa5bf6566,2025-03-11_19h12.42.591,Tarea de decisión léxica,2024.2.5,Win32,119.047619,,,,,,,,,,,,,,,,,,,,,,,,372.1578,373.5297,l,0,0.7088,,0.7088,0,373.5306,374.0288,,,,,,290,FEM,NOWORD,DIS,150,bumpa,,el,,374.0289,374.0289,0.12962963,0.204629633,0,0,0,,0,20,20,289,1,bomba,,,
,,,,,,5e830b929f2ed2018ec42099,676192165fb32c2e1fb7aee6,67d0df34d6e400caa5bf6566,2025-03-11_19h12.42.591,Tarea de decisión léxica,2024.2.5,Win32,119.047619,,,,,,,,,,,,,,,,,,,,,,,,374.03,375.4512,l,0,0.7578,,0.7578,0,375.4512,375.9504,,,,,,264,FEM,NOWORD,AGR,150,dosta,,la,,375.9518,375.9523,0.12962963,0.204629633,0,0,0,,0,21,21,263,1,vista,,,
,,,,,,5e830b929f2ed2018ec42099,676192165fb32c2e1fb7aee6,67d0df34d6e400caa5bf6566,2025-03-11_19h12.42.591,Tarea de decisión léxica,2024.2.5,Win32,119.047619,,,,,,,,,,,,,,,,,,,,,,,,375.9528,377.6809,a,0,1.0664,,1.0664,0,377.6811,378.1799,,,,,,301,FEM,WORD,DIS,150,banda,,el,,378.18,378.1802,0.12962963,0.204629633,0,0,0,,0,22,22,300,1,ranga,,,
,,,,,,5e830b929f2ed2018ec42099,676192165fb32c2e1fb7aee6,67d0df34d6e400caa5bf6566,2025-03-11_19h12.42.591,Tarea de decisión léxica,2024.2.5,Win32,119.047619,,,,,,,,,,,,,,,,,,,,,,,,378.1812,379.336,l,0,0.4923,,0.4923,0,379.3362,379.8355,,,,,,398,FEM,NOWORD,DIS,150,trigi,,el,,379.8356,379.8356,0.12962963,0.204629633,0,0,0,,0,23,23,397,1,tribu,,,
,,,,,,5e830b929f2ed2018ec42099,676192165fb32c2e1fb7aee6,67d0df34d6e400caa5bf6566,2025-03-11_19h12.42.591,Tarea de decisión léxica,2024.2.5,Win32,119.047619,,,,,,,,,,,,,,,,,,,,,,,,379.8366,381.0412,l,1,0.5455,,0.5455,1,381.0418,381.5404,,,,,,141,FEM,WORD,DIS,150,cruz,,el,,381.5404,381.5405,0.12962963,0.204629633,0,0,0,,0,24,24,140,1,sina,,,
,,,,,,5e830b929f2ed2018ec42099,676192165fb32c2e1fb7aee6,67d0df34d6e400caa5bf6566,2025-03-11_19h12.42.591,Tarea de decisión léxica,2024.2.5,Win32,119.047619,,,,,,,,,,,,,,,,,,,,,,,,381.5415,382.7801,l,1,0.5746,,0.5746,1,382.7802,383.2789,,,,,,149,MAS,WORD,DIS,150,cabo,,la,,383.2789,383.2789,0.12962963,0.204629633,0,0,0,,0,25,25,148,1,pafo,,,
,,,,,,5e830b929f2ed2018ec42099,676192165fb32c2e1fb7aee6,67d0df34d6e400caa5bf6566,2025-03-11_19h12.42.591,Tarea de decisión léxica,2024.2.5,Win32,119.047619,,,,,,,,,,,,,,,,,,,,,,,,383.2796,384.4768,l,1,0.5359,,0.5359,1,384.4769,384.976,,,,,,67,FEM,WORD,DIS,150,nena,,el,,384.9769,384.9774,0.12962963,0.204629633,0,0,0,,0,26,26,66,1,gesa,,,
,,,,,,5e830b929f2ed2018ec42099,676192165fb32c2e1fb7aee6,67d0df34d6e400caa5bf6566,2025-03-11_19h12.42.591,Tarea de decisión léxica,2024.2.5,Win32,119.047619,,,,,,,,,,,,,,,,,,,,,,,,384.9779,386.1739,l,0,0.5324,,0.5324,0,386.1745,386.6732,,,,,,102,MAS,NOWORD,DIS,150,gito,,la,,386.6732,386.6734,0.12962963,0.204629633,0,0,0,,0,27,27,101,1,tono,,,
,,,,,,5e830b929f2ed2018ec42099,676192165fb32c2e1fb7aee6,67d0df34d6e400caa5bf6566,2025-03-11_19h12.42.591,Tarea de decisión léxica,2024.2.5,Win32,119.047619,,,,,,,,,,,,,,,,,,,,,,,,386.6743,387.9957,l,1,0.6582,,0.6582,1,387.9962,388.4946,,,,,,237,MAS,WORD,AGR,150,nudo,,el,,388.4946,388.4946,0.12962963,0.204629633,0,0,0,,0,28,28,236,1,huco,,,
,,,,,,5e830b929f2ed2018ec42099,676192165fb32c2e1fb7aee6,67d0df34d6e400caa5bf6566,2025-03-11_19h12.42.591,Tarea de decisión léxica,2024.2.5,Win32,119.047619,,,,,,,,,,,,,,,,,,,,,,,,388.4957,389.6676,l,1,0.5085,,0.5085,1,389.6676,390.1667,,,,,,121,MAS,WORD,AGR,150,hoyo,,el,,390.1668,390.1669,0.12962963,0.204629633,0,0,0,,0,29,29,120,1,bomo,,,
,,,,,,5e830b929f2ed2018ec42099,676192165fb32c2e1fb7aee6,67d0df34d6e400caa5bf6566,2025-03-11_19h12.42.591,Tarea de decisión léxica,2024.2.5,Win32,119.047619,,,,,,,,,,,,,,,,,,,,,,,,390.1675,391.3812,l,1,0.5534,,0.5534,1,391.3812,391.8804,,,,,,175,FEM,WORD,AGR,150,goma,,la,,391.8804,391.8805,0.12962963,0.204629633,0,0,0,,0,30,30,174,1,hosa,,,
,,,,,,5e830b929f2ed2018ec42099,676192165fb32c2e1fb7aee6,67d0df34d6e400caa5bf6566,2025-03-11_19h12.42.591,Tarea de decisión léxica,2024.2.5,Win32,119.047619,,,,,,,,,,,,,,,,,,,,,,,,391.8816,393.153,l,1,0.6103,,0.6103,1,393.1531,393.6522,,,,,,153,MAS,WORD,DIS,150,pato,,la,,393.6533,393.654,0.12962963,0.204629633,0,0,0,,0,31,31,152,1,tado,,,
,,,,,,5e830b929f2ed2018ec42099,676192165fb32c2e1fb7aee6,67d0df34d6e400caa5bf6566,2025-03-11_19h12.42.591,Tarea de decisión léxica,2024.2.5,Win32,119.047619,,,,,,,,,,,,,,,,,,,,,,,,393.6546,394.8501,l,1,0.5327,,0.5327,1,394.8501,395.3494,,,,,,289,FEM,WORD,AGR,150,bomba,,la,,395.3494,395.3495,0.12962963,0.204629633,0,0,0,,0,32,32,288,1,bumpa,,,
,,,,,,5e830b929f2ed2018ec42099,676192165fb32c2e1fb7aee6,67d0df34d6e400caa5bf6566,2025-03-11_19h12.42.591,Tarea de decisión léxica,2024.2.5,Win32,119.047619,,,,,,,,,,,,,,,,,,,,,,,,395.3505,396.3807,l,1,0.3663,,0.3663,1,396.3807,396.88,,,,,,199,MAS,WORD,DIS,150,lazo,,la,,396.8801,396.8802,0.12962963,0.204629633,0,0,0,,0,33,33,198,1,fano,,,
,,,,,,5e830b929f2ed2018ec42099,676192165fb32c2e1fb7aee6,67d0df34d6e400caa5bf6566,2025-03-11_19h12.42.591,Tarea de decisión léxica,2024.2.5,Win32,119.047619,,,,,,,,,,,,,,,,,,,,,,,,396.8809,398.0532,l,1,0.5075,,0.5075,1,398.0533,398.552,,,,,,357,FEM,WORD,AGR,150,bruja,,la,,398.552,398.5521,0.12962963,0.204629633,0,0,0,,0,34,34,356,1,gruba,,,
,,,,,,5e830b929f2ed2018ec42099,676192165fb32c2e1fb7aee6,67d0df34d6e400caa5bf6566,2025-03-11_19h12.42.591,Tarea de decisión léxica,2024.2.5,Win32,119.047619,,,,,,,,,,,,,,,,,,,,,,,,398.5537,399.6667,l,1,0.4544,,0.4544,1,399.6667,400.1657,,,,,,391,MAS,WORD,DIS,150,dueño,,la,,400.167,400.1676,0.12962963,0.204629633,0,0,0,,0,35,35,390,1,dievo,,,
,,,,,,5e830b929f2ed2018ec42099,676192165fb32c2e1fb7aee6,67d0df34d6e400caa5bf6566,2025-03-11_19h12.42.591,Tarea de decisión léxica,2024.2.5,Win32,119.047619,,,,,,,,,,,,,,,,,,,,,,,,400.1682,401.2637,l,1,0.4371,,0.4371,1,401.2639,401.763,,,,,,361,FEM,WORD,DIS,150,torre,,el,,401.7631,401.7631,0.12962963,0.204629633,0,0,0,,0,36,36,360,1,solle,,,
,,,,,,5e830b929f2ed2018ec42099,676192165fb32c2e1fb7aee6,67d0df34d6e400caa5bf6566,2025-03-11_19h12.42.591,Tarea de decisión léxica,2024.2.5,Win32,119.047619,,,,,,,,,,,,,,,,,,,,,,,,401.7641,402.8193,l,1,0.3918,,0.3918,1,402.8194,403.3184,,,,,,183,FEM,WORD,AGR,150,raya,,la,,403.3185,403.3185,0.12962963,0.204629633,0,0,0,,0,37,37,182,1,raad,,,
,,,,,,5e830b929f2ed2018ec42099,676192165fb32c2e1fb7aee6,67d0df34d6e400caa5bf6566,2025-03-11_19h12.42.591,Tarea de decisión léxica,2024.2.5,Win32,119.047619,,,,,,,,,,,,,,,,,,,,,,,,403.3192,404.4414,l,1,0.4573,,0.4573,1,404.4414,404.9404,,,,,,203,FEM,WORD,DIS,150,leña,,el,,404.9405,404.9405,0.12962963,0.204629633,0,0,0,,0,38,38,202,1,beja,,,
,,,,,,5e830b929f2ed2018ec42099,676192165fb32c2e1fb7aee6,67d0df34d6e400caa5bf6566,2025-03-11_19h12.42.591,Tarea de decisión léxica,2024.2.5,Win32,119.047619,,,,,,,,,,,,,,,,,,,,,,,,404.9416,405.7976,l,0,0.1926,,0.1926,0,405.7986,406.2965,,,,,,214,FEM,NOWORD,DIS,150,bana,,el,,406.2965,406.2965,0.12962963,0.204629633,0,0,0,,0,39,39,213,1,rama,,,
,,,,,,5e830b929f2ed2018ec42099,676192165fb32c2e1fb7aee6,67d0df34d6e400caa5bf6566,2025-03-11_19h12.42.591,Tarea de decisión léxica,2024.2.5,Win32,119.047619,,,,,,,,,,,,,,,,,,,,,,,,406.2972,407.5277,l,0,0.5675,,0.5675,0,407.5279,408.0273,,,,,,428,FEM,NOWORD,AGR,150,oseva,,la,,408.0285,408.029,0.12962963,0.204629633,0,0,0,,0,40,40,427,1,oreja,,,
,,,,,,5e830b929f2ed2018ec42099,676192165fb32c2e1fb7aee6,67d0df34d6e400caa5bf6566,2025-03-11_19h12.42.591,Tarea de decisión léxica,2024.2.5,Win32,119.047619,,,,,,,,,,,,,,,,,,,,,,,,408.0299,409.0998,l,0,0.4119,,0.4119,0,409.0998,409.5992,,,,,,206,FEM,NOWORD,DIS,150,bara,,el,,409.5993,409.5994,0.12962963,0.204629633,0,0,0,,0,41,41,205,1,rana,,,
,,,,,,5e830b929f2ed2018ec42099,676192165fb32c2e1fb7aee6,67d0df34d6e400caa5bf6566,2025-03-11_19h12.42.591,Tarea de decisión léxica,2024.2.5,Win32,119.047619,,,,,,,,,,,,,,,,,,,,,,,,409.6001,410.7054,l,1,0.4408,,0.4408,1,410.706,411.2045,,,,,,21,MAS,WORD,AGR,150,plan,,el,,411.2045,411.2046,0.12962963,0.204629633,0,0,0,,0,42,42,20,1,blan,,,
,,,,,,5e830b929f2ed2018ec42099,676192165fb32c2e1fb7aee6,67d0df34d6e400caa5bf6566,2025-03-11_19h12.42.591,Tarea de decisión léxica,2024.2.5,Win32,119.047619,,,,,,,,,,,,,,,,,,,,,,,,411.2053,412.2775,l,1,0.4124,,0.4124,1,412.2776,412.7766,,,,,,51,FEM,WORD,AGR,150,caja,,la,,412.7766,412.7767,0.12962963,0.204629633,0,0,0,,0,43,43,50,1,mava,,,
,,,,,,5e830b929f2ed2018ec42099,676192165fb32c2e1fb7aee6,67d0df34d6e400caa5bf6566,2025-03-11_19h12.42.591,Tarea de decisión léxica,2024.2.5,Win32,119.047619,,,,,,,,,,,,,,,,,,,,,,,,412.7773,413.8332,l,1,0.3924,,0.3924,1,413.8333,414.3326,,,,,,239,MAS,WORD,DIS,150,mozo,,la,,414.3326,414.3327,0.12962963,0.204629633,0,0,0,,0,44,44,238,1,poño,,,
,,,,,,5e830b929f2ed2018ec42099,676192165fb32c2e1fb7aee6,67d0df34d6e400caa5bf6566,2025-03-11_19h12.42.591,Tarea de decisión léxica,2024.2.5,Win32,119.047619,,,,,,,,,,,,,,,,,,,,,,,,414.3335,415.4054,l,1,0.4105,,0.4105,1,415.4054,415.9044,,,,,,445,MAS,WORD,DIS,150,actor,,la,,415.9051,415.9055,0.12962963,0.204629633,0,0,0,,0,45,45,444,1,ascor,,,
,,,,,,5e830b929f2ed2018ec42099,676192165fb32c2e1fb7aee6,67d0df34d6e400caa5bf6566,2025-03-11_19h12.42.591,Tarea de decisión léxica,2024.2.5,Win32,119.047619,,,,,,,,,,,,,,,,,,,,,,,,415.906,417.0277,l,1,0.4586,,0.4586,1,417.0278,417.5267,,,,,,201,FEM,WORD,AGR,150,cuna,,la,,417.5267,417.5267,0.12962963,0.204629633,0,0,0,,0,46,46,200,1,cusa,,,
,,,,,,5e830b929f2ed2018ec42099,676192165fb32c2e1fb7aee6,67d0df34d6e400caa5bf6566,2025-03-11_19h12.42.591,Tarea de decisión léxica,2024.2.5,Win32,119.047619,,,,,,,,,,,,,,,,,,,,,,,,417.5274,418.6499,l,0,0.4579,,0.4579,0,418.6507,419.1485,,,,,,286,MAS,NOWORD,DIS,150,echor,,la,,419.1486,419.1486,0.12962963,0.204629633,0,0,0,,0,47,47,285,1,error,,,
,,,,,,5e830b929f2ed2018ec42099,676192165fb32c2e1fb7aee6,67d0df34d6e400caa5bf6566,2025-03-11_19h12.42.591,Tarea de decisión léxica,2024.2.5,Win32,119.047619,,,,,,,,,,,,,,,,,,,,,,,,419.1493,420.2966,l,0,0.4855,,0.4855,0,420.2966,420.7957,,,,,,38,MAS,NOWORD,DIS,150,gaco,,la,,420.7957,420.7958,0.12962963,0.204629633,0,0,0,,0,48,48,37,1,rato,,,
,,,,,,5e830b929f2ed2018ec42099,676192165fb32c2e1fb7aee6,67d0df34d6e400caa5bf6566,2025-03-11_19h12.42.591,Tarea de decisión léxica,2024.2.5,Win32,119.047619,,,,,,,,,,,,,,,,,,,,,,,,420.7967,421.9521,l,1,0.4924,,0.4924,1,421.9526,422.4512,,,,,,375,FEM,WORD,AGR,150,salsa,,la,,422.4513,422.4514,0.12962963,0.204629633,0,0,0,,0,49,49,374,1,sasna,,,
,,,,,,5e830b929f2ed2018ec42099,676192165fb32c2e1fb7aee6,67d0df34d6e400caa5bf6566,2025-03-11_19h12.42.591,Tarea de decisión léxica,2024.2.5,Win32,119.047619,,,,,,,,,,,,,,,,,,,,,,,,422.452,423.5242,l,1,0.4118,,0.4118,1,423.5242,424.0234,,,,,,107,MAS,WORD,DIS,150,saco,,la,,424.0244,424.0248,0.12962963,0.204629633,0,0,0,,0,50,50,106,1,raot,,,
,,,,,,5e830b929f2ed2018ec42099,676192165fb32c2e1fb7aee6,67d0df34d6e400caa5bf6566,2025-03-11_19h12.42.591,Tarea de decisión léxica,2024.2.5,Win32,119.047619,,,,,,,,,,,,,,,,,,,,,,,,424.0251,425.1216,l,0,0.438,,0.438,0,425.1221,425.6206,,,,,,180,MAS,NOWORD,AGR,150,sono,,el,,425.6207,425.6208,0.12962963,0.204629633,0,0,0,,0,51,51,179,1,toro,,,
,,,,,,5e830b929f2ed2018ec42099,676192165fb32c2e1fb7aee6,67d0df34d6e400caa5bf6566,2025-03-11_19h12.42.591,Tarea de decisión léxica,2024.2.5,Win32,119.047619,,,,,,,,,,,,,,,,,,,,,,,,425.6214,426.5856,l,0,0.2998,,0.2998,0,426.5856,427.0846,,,,,,324,FEM,NOWORD,AGR,150,certa,,la,,427.0846,427.0846,0.12962963,0.204629633,0,0,0,,0,52,52,323,1,cinta,,,
,,,,,,5e830b929f2ed2018ec42099,676192165fb32c2e1fb7aee6,67d0df34d6e400caa5bf6566,2025-03-11_19h12.42.591,Tarea de decisión léxica,2024.2.5,Win32,119.047619,,,,,,,,,,,,,,,,,,,,,,,,427.0853,428.2826,l,0,0.5377,,0.5377,0,428.2826,428.7816,,,,,,158,MAS,NOWORD,DIS,150,hico,,la,,428.7816,428.7817,0.12962963,0.204629633,0,0,0,,0,53,53,157,1,nido,,,
,,,,,,5e830b929f2ed2018ec42099,676192165fb32c2e1fb7aee6,67d0df34d6e400caa5bf6566,2025-03-11_19h12.42.591,Tarea de decisión léxica,2024.2.5,Win32,119.047619,,,,,,,,,,,,,,,,,,,,,,,,428.7824,429.9796,l,1,0.5328,,0.5328,1,429.9802,430.4786,,,,,,81,FEM,WORD,DIS,150,dama,,el,,430.4786,430.4786,0.12962963,0.204629633,0,0,0,,0,54,54,80,1,vasa,,,
,,,,,,5e830b929f2ed2018ec42099,676192165fb32c2e1fb7aee6,67d0df34d6e400caa5bf6566,2025-03-11_19h12.42.591,Tarea de decisión léxica,2024.2.5,Win32,119.047619,,,,,,,,,,,,,,,,,,,,,,,,430.4792,431.6267,l,1,0.4828,,0.4828,1,431.6267,432.1257,,,,,,61,FEM,WORD,DIS,150,obra,,el,,432.1263,432.1269,0.12962963,0.204629633,0,0,0,,0,55,55,60,1,efla,,,
,,,,,,5e830b929f2ed2018ec42099,676192165fb32c2e1fb7aee6,67d0df34d6e400caa5bf6566,2025-03-11_19h12.42.591,Tarea de decisión léxica,2024.2.5,Win32,119.047619,,,,,,,,,,,,,,,,,,,,,,,,432.1274,433.3236,l,0,0.5332,,0.5332,0,433.3242,433.8227,,,,,,90,MAS,NOWORD,DIS,150,guso,,la,,433.8228,433.8229,0.12962963,0.204629633,0,0,0,,0,56,56,89,1,humo,,,
,,,,,,5e830b929f2ed2018ec42099,676192165fb32c2e1fb7aee6,67d0df34d6e400caa5bf6566,2025-03-11_19h12.42.591,Tarea de decisión léxica,2024.2.5,Win32,119.047619,,,,,,,,,,,,,,,,,,,,,,,,433.8236,434.9123,l,0,0.4263,,0.4263,0,434.9123,435.4115,,,,,,224,FEM,NOWORD,AGR,150,cira,,la,,435.4116,435.4117,0.12962963,0.204629633,0,0,0,,0,57,57,223,1,cera,,,
,,,,,,5e830b929f2ed2018ec42099,676192165fb32c2e1fb7aee6,67d0df34d6e400caa5bf6566,2025-03-11_19h12.42.591,Tarea de decisión léxica,2024.2.5,Win32,119.047619,,,,,,,,,,,,,,,,,,,,,,,,435.4125,436.5762,l,1,0.4995,,0.4995,1,436.5767,437.0752,,,,,,285,MAS,WORD,DIS,150,error,,la,,437.0752,437.0754,0.12962963,0.204629633,0,0,0,,0,58,58,284,1,echor,,,
,,,,,,5e830b929f2ed2018ec42099,676192165fb32c2e1fb7aee6,67d0df34d6e400caa5bf6566,2025-03-11_19h12.42.591,Tarea de decisión léxica,2024.2.5,Win32,119.047619,,,,,,,,,,,,,,,,,,,,,,,,437.0759,438.2152,l,1,0.4748,,0.4748,1,438.2152,438.7139,,,,,,219,FEM,WORD,AGR,150,pipa,,la,,438.7146,438.7149,0.12962963,0.204629633,0,0,0,,0,59,59,218,1,miva,,,
,,,,,,5e830b929f2ed2018ec42099,676192165fb32c2e1fb7aee6,67d0df34d6e400caa5bf6566,2025-03-11_19h12.42.591,Tarea de decisión léxica,2024.2.5,Win32,119.047619,,,,,,,,,,,,,,,,,,,,,,,,438.7154,439.787,l,1,0.4102,,0.4102,1,439.7871,440.2861,,,,,,337,MAS,WORD,DIS,150,huevo,,la,,440.2862,440.2862,0.12962963,0.204629633,0,0,0,,0,60,60,336,1,nuejo,,,
,,,,,,5e830b929f2ed2018ec42099,676192165fb32c2e1fb7aee6,67d0df34d6e400caa5bf6566,2025-03-11_19h12.42.591,Tarea de decisión léxica,2024.2.5,Win32,119.047619,,,,,,,,,,,,,,,,,,,,,,,,440.2869,441.4009,l,1,0.4498,,0.4498,1,441.4009,441.8999,,,,,,327,MAS,WORD,AGR,150,fondo,,el,,441.8999,441.9,0.12962963,0.204629633,0,0,0,,0,61,61,326,1,lendo,,,
,,,,,,5e830b929f2ed2018ec42099,676192165fb32c2e1fb7aee6,67d0df34d6e400caa5bf6566,2025-03-11_19h12.42.591,Tarea de decisión léxica,2024.2.5,Win32,119.047619,,,,,,,,,,,,,,,,,,,,,,,,441.9006,443.0229,l,1,0.462,,0.462,1,443.0229,443.522,,,,,,209,MAS,WORD,DIS,150,velo,,la,,443.5221,443.5221,0.12962963,0.204629633,0,0,0,,0,62,62,208,1,dero,,,
,,,,,,5e830b929f2ed2018ec42099,676192165fb32c2e1fb7aee6,67d0df34d6e400caa5bf6566,2025-03-11_19h12.42.591,Tarea de decisión léxica,2024.2.5,Win32,119.047619,,,,,,,,,,,,,,,,,,,,,,,,443.5231,444.6451,l,1,0.4574,,0.4574,1,444.6452,445.1443,,,,,,387,FEM,WORD,DIS,150,crema,,el,,445.1444,445.1445,0.12962963,0.204629633,0,0,0,,0,63,63,386,1,bresa,,,
,,,,,,5e830b929f2ed2018ec42099,676192165fb32c2e1fb7aee6,67d0df34d6e400caa5bf6566,2025-03-11_19h12.42.591,Tarea de decisión léxica,2024.2.5,Win32,119.047619,,,,,,,,,,,,,,,,,,,,,,,,445.1454,446.4421,a,1,0.6328,,0.6328,1,446.4421,446.9412,,,,,,106,FEM,NOWORD,DIS,150,vina,,el,,446.9419,446.9425,0.12962963,0.204629633,0,0,0,,0,64,64,105,1,sopa,,,
,,,,,,5e830b929f2ed2018ec42099,676192165fb32c2e1fb7aee6,67d0df34d6e400caa5bf6566,2025-03-11_19h12.42.591,Tarea de decisión léxica,2024.2.5,Win32,119.047619,,,,,,,,,,,,,,,,,,,,,,,,446.943,447.8477,l,0,0.244,,0.244,0,447.8483,448.3471,,,,,,78,MAS,NOWORD,DIS,150,fodo,,la,,448.3472,448.3472,0.12962963,0.204629633,0,0,0,,0,65,65,77,1,loco,,,
,,,,,,5e830b929f2ed2018ec42099,676192165fb32c2e1fb7aee6,67d0df34d6e400caa5bf6566,2025-03-11_19h12.42.591,Tarea de decisión léxica,2024.2.5,Win32,119.047619,,,,,,,,,,,,,,,,,,,,,,,,448.348,449.1372,l,1,0.1264,,0.1264,1,449.1377,449.6365,,,,,,287,FEM,WORD,DIS,150,lista,,el,,449.6365,449.6366,0.12962963,0.204629633,0,0,0,,0,66,66,286,1,fosta,,,
,,,,,,5e830b929f2ed2018ec42099,676192165fb32c2e1fb7aee6,67d0df34d6e400caa5bf6566,2025-03-11_19h12.42.591,Tarea de decisión léxica,2024.2.5,Win32,119.047619,,,,,,,,,,,,,,,,,,,,,,,,449.6374,450.4682,l,1,0.1688,,0.1688,1,450.4682,450.9673,,,,,,157,MAS,WORD,AGR,150,nido,,el,,450.9673,450.9673,0.12962963,0.204629633,0,0,0,,0,67,67,156,1,hico,,,
,,,,,,5e830b929f2ed2018ec42099,676192165fb32c2e1fb7aee6,67d0df34d6e400caa5bf6566,2025-03-11_19h12.42.591,Tarea de decisión léxica,2024.2.5,Win32,119.047619,,,,,,,,,,,,,,,,,,,,,,,,450.968,451.8156,l,1,0.1842,,0.1842,1,451.8157,452.3149,,,,,,189,MAS,WORD,DIS,150,puño,,la,,452.315,452.315,0.12962963,0.204629633,0,0,0,,0,68,68,188,1,muvo,,,
,,,,,,5e830b929f2ed2018ec42099,676192165fb32c2e1fb7aee6,67d0df34d6e400caa5bf6566,2025-03-11_19h12.42.591,Tarea de decisión léxica,2024.2.5,Win32,119.047619,,,,,,,,,,,,,,,,,,,,,,,,452.316,453.0554,l,0,0.0803,,0.0803,0,453.0561,453.5544,,,,,,240,MAS,NOWORD,AGR,150,poño,,el,,453.5551,453.5556,0.12962963,0.204629633,0,0,0,,0,69,69,239,1,mozo,,,
,,,,,,5e830b929f2ed2018ec42099,676192165fb32c2e1fb7aee6,67d0df34d6e400caa5bf6566,2025-03-11_19h12.42.591,Tarea de decisión léxica,2024.2.5,Win32,119.047619,,,,,,,,,,,,,,,,,,,,,,,,453.5562,454.3529,a,0,0.1371,,0.1371,0,454.353,454.852,,,,,,393,FEM,WORD,AGR,150,aldea,,la,,454.852,454.8521,0.12962963,0.204629633,0,0,0,,0,70,70,392,1,ashea,,,
,,,,,,5e830b929f2ed2018ec42099,676192165fb32c2e1fb7aee6,67d0df34d6e400caa5bf6566,2025-03-11_19h12.42.591,Tarea de decisión léxica,2024.2.5,Win32,119.047619,,,,,,,,,,,,,,,,,,,,,,,,454.8529,457.4974,,0,,,0.1371,-1,457.4982,457.9964,,,,,,280,FEM,NOWORD,AGR,150,grina,,la,,457.9965,457.9965,0.12962963,0.204629633,0,0,0,,0,71,71,279,1,prisa,,,
,,,,,,5e830b929f2ed2018ec42099,676192165fb32c2e1fb7aee6,67d0df34d6e400caa5bf6566,2025-03-11_19h12.42.591,Tarea de decisión léxica,2024.2.5,Win32,119.047619,,,,,,,,,,,,,,,,,,,,,,,,457.9972,459.0115,l,0,0.3499,,0.3499,0,459.0121,459.5104,,,,,,70,FEM,NOWORD,DIS,150,ñola,,el,,459.5104,459.5105,0.12962963,0.204629633,0,0,0,,0,72,72,69,1,zona,,,
,,,,,,5e830b929f2ed2018ec42099,676192165fb32c2e1fb7aee6,67d0df34d6e400caa5bf6566,2025-03-11_19h12.42.591,Tarea de decisión léxica,2024.2.5,Win32,119.047619,,,,,,,,,,,,,,,,,,,,,,,,459.5111,460.5253,l,1,0.3517,,0.3517,1,460.526,461.0244,,,,,,119,MAS,WORD,DIS,150,pozo,,la,,461.0244,461.0245,0.12962963,0.204629633,0,0,0,,0,73,73,118,1,hooy,,,
,,,,,,5e830b929f2ed2018ec42099,676192165fb32c2e1fb7aee6,67d0df34d6e400caa5bf6566,2025-03-11_19h12.42.591,Tarea de decisión léxica,2024.2.5,Win32,119.047619,,,,,,,,,,,,,,,,,,,,,,,,461.0253,462.2638,l,0,0.5785,,0.5785,0,462.2642,462.7632,,,,,,122,MAS,NOWORD,DIS,150,bomo,,la,,462.7643,462.7653,0.12962963,0.204629633,0,0,0,,0,74,74,121,1,hoyo,,,
,,,,,,5e830b929f2ed2018ec42099,676192165fb32c2e1fb7aee6,67d0df34d6e400caa5bf6566,2025-03-11_19h12.42.591,Tarea de decisión léxica,2024.2.5,Win32,119.047619,,,,,,,,,,,,,,,,,,,,,,,,462.7661,463.5864,l,1,0.1604,,0.1604,1,463.587,464.0857,,,,,,87,MAS,WORD,AGR,150,vaso,,el,,464.0858,464.0858,0.12962963,0.204629633,0,0,0,,0,75,75,86,1,damo,,,
,,,,,,5e830b929f2ed2018ec42099,676192165fb32c2e1fb7aee6,67d0df34d6e400caa5bf6566,2025-03-11_19h12.42.591,Tarea de decisión léxica,2024.2.5,Win32,119.047619,,,,,,,,,,,,,,,,,,,,,,,,464.0865,464.9759,a,1,0.226,,0.226,1,464.9759,465.4749,,,,,,230,MAS,NOWORD,DIS,150,ador,,la,,465.4749,465.475,0.12962963,0.204629633,0,0,0,,0,76,76,229,1,amor,,,
,,,,,,5e830b929f2ed2018ec42099,676192165fb32c2e1fb7aee6,67d0df34d6e400caa5bf6566,2025-03-11_19h12.42.591,Tarea de decisión léxica,2024.2.5,Win32,119.047619,,,,,,,,,,,,,,,,,,,,,,,,465.4758,466.2401,l,1,0.1042,,0.1042,1,466.2403,466.7393,,,,,,179,MAS,WORD,AGR,150,toro,,el,,466.7394,466.7395,0.12962963,0.204629633,0,0,0,,0,77,77,178,1,sono,,,
,,,,,,5e830b929f2ed2018ec42099,676192165fb32c2e1fb7aee6,67d0df34d6e400caa5bf6566,2025-03-11_19h12.42.591,Tarea de decisión léxica,2024.2.5,Win32,119.047619,,,,,,,,,,,,,,,,,,,,,,,,466.7402,467.5131,l,0,0.1083,,0.1083,0,467.5138,468.0119,,,,,,128,MAS,NOWORD,AGR,150,itio,,el,,468.012,468.012,0.12962963,0.204629633,0,0,0,,0,78,78,127,1,pico,,,
,,,,,,5e830b929f2ed2018ec42099,676192165fb32c2e1fb7aee6,67d0df34d6e400caa5bf6566,2025-03-11_19h12.42.591,Tarea de decisión léxica,2024.2.5,Win32,119.047619,,,,,,,,,,,,,,,,,,,,,,,,468.0127,468.8607,l,0,0.1834,,0.1834,0,468.8608,469.3595,,,,,,256,MAS,NOWORD,AGR,150,mauco,,el,,469.3605,469.3611,0.12962963,0.204629633,0,0,0,,0,79,79,255,1,miedo,,,
,,,,,,5e830b929f2ed2018ec42099,676192165fb32c2e1fb7aee6,67d0df34d6e400caa5bf6566,2025-03-11_19h12.42.591,Tarea de decisión léxica,2024.2.5,Win32,119.047619,,,,,,,,,,,,,,,,,,,,,,,,469.3623,470.4077,a,1,0.3865,,0.3865,1,470.4081,470.9071,,,,,,108,MAS,NOWORD,AGR,150,raot,,el,,470.9071,470.9072,0.12962963,0.204629633,0,0,0,,0,80,80,107,1,saco,,,
,,,,,,5e830b929f2ed2018ec42099,676192165fb32c2e1fb7aee6,67d0df34d6e400caa5bf6566,2025-03-11_19h12.42.591,Tarea de decisión léxica,2024.2.5,Win32,119.047619,,,,,,,,,,,,,,,,,,,,,,,,470.9081,471.6972,l,1,0.1255,,0.1255,1,471.6973,472.1962,,,,,,417,FEM,WORD,AGR,150,barba,,la,,472.1962,472.1963,0.12962963,0.204629633,0,0,0,,0,81,81,416,1,banja,,,
,,,,,,5e830b929f2ed2018ec42099,676192165fb32c2e1fb7aee6,67d0df34d6e400caa5bf6566,2025-03-11_19h12.42.591,Tarea de decisión léxica,2024.2.5,Win32,119.047619,,,,,,,,,,,,,,,,,,,,,,,,472.1971,473.0533,l,0,0.1917,,0.1917,0,473.0541,473.5523,,,,,,438,FEM,NOWORD,DIS,150,glava,,el,,473.5523,473.5524,0.12962963,0.204629633,0,0,0,,0,82,82,437,1,plaza,,,
,,,,,,5e830b929f2ed2018ec42099,676192165fb32c2e1fb7aee6,67d0df34d6e400caa5bf6566,2025-03-11_19h12.42.591,Tarea de decisión léxica,2024.2.5,Win32,119.047619,,,,,,,,,,,,,,,,,,,,,,,,473.5531,476.1977,,0,,,0.1917,-1,476.1983,476.6966,,,,,,359,MAS,WORD,AGR,150,calor,,el,,476.6973,476.698,0.12962963,0.204629633,0,0,0,,0,83,83,358,1,cacer,,,
,,,,,,5e830b929f2ed2018ec42099,676192165fb32c2e1fb7aee6,67d0df34d6e400caa5bf6566,2025-03-11_19h12.42.591,Tarea de decisión léxica,2024.2.5,Win32,119.047619,,,,,,,,,,,,,,,,,,,,,,,,476.6987,477.5785,l,1,0.2165,,0.2165,1,477.5792,478.0774,,,,,,463,FEM,WORD,DIS,150,cabra,,el,,478.0774,478.0775,0.12962963,0.204629633,0,0,0,,0,84,84,462,1,matla,,,
,,,,,,5e830b929f2ed2018ec42099,676192165fb32c2e1fb7aee6,67d0df34d6e400caa5bf6566,2025-03-11_19h12.42.591,Tarea de decisión léxica,2024.2.5,Win32,119.047619,,,,,,,,,,,,,,,,,,,,,,,,478.0782,478.7429,l,1,0.004,,0.004,1,478.7429,479.242,,,,,,349,MAS,WORD,AGR,150,color,,el,,479.242,479.2421,0.12962963,0.204629633,0,0,0,,0,85,85,348,1,cosir,,,
,,,,,,5e830b929f2ed2018ec42099,676192165fb32c2e1fb7aee6,67d0df34d6e400caa5bf6566,2025-03-11_19h12.42.591,Tarea de decisión léxica,2024.2.5,Win32,119.047619,,,,,,,,,,,,,,,,,,,,,,,,479.2429,479.9659,l,0,0.0597,,0.0597,0,479.9667,480.4649,,,,,,242,MAS,NOWORD,DIS,150,mirdo,,la,,480.4649,480.4651,0.12962963,0.204629633,0,0,0,,0,86,86,241,1,mundo,,,
,,,,,,5e830b929f2ed2018ec42099,676192165fb32c2e1fb7aee6,67d0df34d6e400caa5bf6566,2025-03-11_19h12.42.591,Tarea de decisión léxica,2024.2.5,Win32,119.047619,,,,,,,,,,,,,,,,,,,,,,,,480.4657,481.2385,l,0,0.1083,,0.1083,0,481.2385,481.7376,,,,,,132,FEM,NOWORD,AGR,150,fada,,la,,481.7376,481.7377,0.12962963,0.204629633,0,0,0,,0,87,87,131,1,mina,,,
,,,,,,5e830b929f2ed2018ec42099,676192165fb32c2e1fb7aee6,67d0df34d6e400caa5bf6566,2025-03-11_19h12.42.591,Tarea de decisión léxica,2024.2.5,Win32,119.047619,,,,,,,,,,,,,,,,,,,,,,,,481.7386,482.9939,l,1,0.5915,,0.5915,1,482.9945,483.4929,,,,,,47,MAS,WORD,AGR,150,club,,el,,483.494,483.4943,0.12962963,0.204629633,0,0,0,,0,88,88,46,1,chub,,,
,,,,,,5e830b929f2ed2018ec42099,676192165fb32c2e1fb7aee6,67d0df34d6e400caa5bf6566,2025-03-11_19h12.42.591,Tarea de decisión léxica,2024.2.5,Win32,119.047619,,,,,,,,,,,,,,,,,,,,,,,,483.4948,484.4163,l,0,0.2584,,0.2584,0,484.4171,484.9154,,,,,,2,FEM,NOWORD,DIS,150,mada,,el,,484.9154,484.9154,0.12962963,0.204629633,0,0,0,,0,89,89,1,1,casa,,,
,,,,,,5e830b929f2ed2018ec42099,676192165fb32c2e1fb7aee6,67d0df34d6e400caa5bf6566,2025-03-11_19h12.42.591,Tarea de decisión léxica,2024.2.5,Win32,119.047619,,,,,,,,,,,,,,,,,,,,,,,,484.9164,485.7221,l,1,0.1442,,0.1442,1,485.7228,486.2214,,,,,,365,FEM,WORD,DIS,150,ducha,,el,,486.2215,486.2216,0.12962963,0.204629633,0,0,0,,0,90,90,364,1,gulla,,,
,,,,,,5e830b929f2ed2018ec42099,676192165fb32c2e1fb7aee6,67d0df34d6e400caa5bf6566,2025-03-11_19h12.42.591,Tarea de decisión léxica,2024.2.5,Win32,119.047619,,,,,,,,,,,,,,,,,,,,,,,,486.2225,487.1364,l,1,0.2504,,0.2504,1,487.1364,487.6354,,,,,,243,MAS,WORD,DIS,150,amigo,,la,,487.6355,487.6355,0.12962963,0.204629633,0,0,0,,0,91,91,242,1,asamo,,,
,,,,,,5e830b929f2ed2018ec42099,676192165fb32c2e1fb7aee6,67d0df34d6e400caa5bf6566,2025-03-11_19h12.42.591,Tarea de decisión léxica,2024.2.5,Win32,119.047619,,,,,,,,,,,,,,,,,,,,,,,,487.6364,488.5423,l,1,0.2423,,0.2423,1,488.5424,489.0413,,,,,,231,FEM,WORD,DIS,150,bota,,el,,489.0413,489.0413,0.12962963,0.204629633,0,0,0,,0,92,92,230,1,heta,,,
,,,,,,5e830b929f2ed2018ec42099,676192165fb32c2e1fb7aee6,67d0df34d6e400caa5bf6566,2025-03-11_19h12.42.591,Tarea de decisión léxica,2024.2.5,Win32,119.047619,,,,,,,,,,,,,,,,,,,,,,,,489.0419,489.7984,l,1,0.0931,,0.0931,1,489.7985,490.2975,,,,,,159,MAS,WORD,DIS,150,giro,,la,,490.2982,490.2988,0.12962963,0.204629633,0,0,0,,0,93,93,158,1,bilo,,,
,,,,,,5e830b929f2ed2018ec42099,676192165fb32c2e1fb7aee6,67d0df34d6e400caa5bf6566,2025-03-11_19h12.42.591,Tarea de decisión léxica,2024.2.5,Win32,119.047619,,,,,,,,,,,,,,,,,,,,,,,,490.2993,491.0546,l,1,0.0936,,0.0936,1,491.0546,491.5537,,,,,,411,MAS,WORD,DIS,150,pollo,,la,,491.5537,491.5538,0.12962963,0.204629633,0,0,0,,0,94,94,410,1,mobro,,,
,,,,,,5e830b929f2ed2018ec42099,676192165fb32c2e1fb7aee6,67d0df34d6e400caa5bf6566,2025-03-11_19h12.42.591,Tarea de decisión léxica,2024.2.5,Win32,119.047619,,,,,,,,,,,,,,,,,,,,,,,,491.5547,492.3273,l,1,0.1092,,0.1092,1,492.3274,492.8262,,,,,,75,MAS,WORD,DIS,150,olor,,la,,492.8263,492.8263,0.12962963,0.204629633,0,0,0,,0,95,95,74,1,ocer,,,
,,,,,,5e830b929f2ed2018ec42099,676192165fb32c2e1fb7aee6,67d0df34d6e400caa5bf6566,2025-03-11_19h12.42.591,Tarea de decisión léxica,2024.2.5,Win32,119.047619,,,,,,,,,,,,,,,,,,,,,,,,492.827,493.5999,l,1,0.1084,,0.1084,1,493.6,494.0991,,,,,,309,FEM,WORD,AGR,150,silla,,la,,494.0991,494.0992,0.12962963,0.204629633,0,0,0,,0,96,96,308,1,tirra,,,
,,,,,,5e830b929f2ed2018ec42099,676192165fb32c2e1fb7aee6,67d0df34d6e400caa5bf6566,2025-03-11_19h12.42.591,Tarea de decisión léxica,2024.2.5,Win32,119.047619,,,,,,,,,,,,,,,,,,,,,,,,494.0999,495.1725,l,1,0.4079,,0.4079,1,495.1725,495.6712,,,,,,459,MAS,WORD,DIS,150,grado,,la,,495.6712,495.6713,0.12962963,0.204629633,0,0,0,,0,97,97,458,1,fraco,,,
,,,,,,5e830b929f2ed2018ec42099,676192165fb32c2e1fb7aee6,67d0df34d6e400caa5bf6566,2025-03-11_19h12.42.591,Tarea de decisión léxica,2024.2.5,Win32,119.047619,,,,,,,,,,,,,,,,,,,,,,,,495.6722,496.5863,l,1,0.253,,0.253,1,496.5863,497.0854,,,,,,49,FEM,WORD,DIS,150,edad,,el,,497.0864,497.0867,0.12962963,0.204629633,0,0,0,,0,98,98,48,1,ecat,,,
,,,,,,5e830b929f2ed2018ec42099,676192165fb32c2e1fb7aee6,67d0df34d6e400caa5bf6566,2025-03-11_19h12.42.591,Tarea de decisión léxica,2024.2.5,Win32,119.047619,,,,,,,,,,,,,,,,,,,,,,,,497.0872,497.9006,l,0,0.1508,,0.1508,0,497.9012,498.3997,,,,,,276,MAS,NOWORD,AGR,150,musto,,el,,498.3998,498.3999,0.12962963,0.204629633,0,0,0,,0,99,99,275,1,punto,,,
,,,,,,5e830b929f2ed2018ec42099,676192165fb32c2e1fb7aee6,67d0df34d6e400caa5bf6566,2025-03-11_19h12.42.591,Tarea de decisión léxica,2024.2.5,Win32,119.047619,,,,,,,,,,,,,,,,,,,,,,,,498.4008,499.1734,l,1,0.1084,,0.1084,1,499.1742,499.6724,,,,,,73,MAS,WORD,AGR,150,odio,,el,,499.6724,499.6725,0.12962963,0.204629633,0,0,0,,0,100,100,72,1,omio,,,
,,,,,,5e830b929f2ed2018ec42099,676192165fb32c2e1fb7aee6,67d0df34d6e400caa5bf6566,2025-03-11_19h12.42.591,Tarea de decisión léxica,2024.2.5,Win32,119.047619,,,,,,,,,,,,,,,,,,,,,,,,499.6731,500.4629,l,0,0.1247,,0.1247,0,500.4634,500.9619,,,,,,458,MAS,NOWORD,DIS,150,glaco,,la,,500.9619,500.962,0.12962963,0.204629633,0,0,0,,0,101,101,457,1,plato,,,
,,,,,,5e830b929f2ed2018ec42099,676192165fb32c2e1fb7aee6,67d0df34d6e400caa5bf6566,2025-03-11_19h12.42.591,Tarea de decisión léxica,2024.2.5,Win32,119.047619,,,,,,,,,,,,,,,,,,,,,,,,500.9628,501.7022,l,0,0.0751,,0.0751,0,501.7023,502.2013,,,,,,384,FEM,NOWORD,AGR,150,brame,,la,,502.2013,502.2014,0.12962963,0.204629633,0,0,0,,0,102,102,383,1,frase,,,
,,,,,,5e830b929f2ed2018ec42099,676192165fb32c2e1fb7aee6,67d0df34d6e400caa5bf6566,2025-03-11_19h12.42.591,Tarea de decisión léxica,2024.2.5,Win32,119.047619,,,,,,,,,,,,,,,,,,,,,,,,502.2023,502.9167,a,1,0.0504,,0.0504,1,502.9175,503.4159,,,,,,406,FEM,NOWORD,DIS,150,rarra,,el,,503.4168,503.4174,0.12962963,0.204629633,0,0,0,,0,103,103,405,1,barra,,,
,,,,,,5e830b929f2ed2018ec42099,676192165fb32c2e1fb7aee6,67d0df34d6e400caa5bf6566,2025-03-11_19h12.42.591,Tarea de decisión léxica,2024.2.5,Win32,119.047619,,,,,,,,,,,,,,,,,,,,,,,,503.4178,504.2312,l,0,0.1497,,0.1497,0,504.2318,504.7304,,,,,,248,FEM,NOWORD,AGR,150,trida,,la,,504.7305,504.7306,0.12962963,0.204629633,0,0,0,,0,104,104,247,1,chica,,,
,,,,,,5e830b929f2ed2018ec42099,676192165fb32c2e1fb7aee6,67d0df34d6e400caa5bf6566,2025-03-11_19h12.42.591,Tarea de decisión léxica,2024.2.5,Win32,119.047619,,,,,,,,,,,,,,,,,,,,,,,,504.7316,506.4105,l,0,1.0181,,1.0181,0,506.4106,506.9096,,,,,,80,FEM,NOWORD,AGR,150,ciel,,la,,506.9096,506.9096,0.12962963,0.204629633,0,0,0,,0,105,105,79,1,piel,,,
,,,,,,5e830b929f2ed2018ec42099,676192165fb32c2e1fb7aee6,67d0df34d6e400caa5bf6566,2025-03-11_19h12.42.591,Tarea de decisión léxica,2024.2.5,Win32,119.047619,,,,,,,,,,,,,,,,,,,,,,,,506.9105,507.7665,l,0,0.1931,,0.1931,0,507.7667,508.2656,,,,,,470,MAS,NOWORD,DIS,150,matia,,la,,508.2657,508.2658,0.12962963,0.204629633,0,0,0,,0,106,106,469,1,patio,,,
,,,,,,5e830b929f2ed2018ec42099,676192165fb32c2e1fb7aee6,67d0df34d6e400caa5bf6566,2025-03-11_19h12.42.591,Tarea de decisión léxica,2024.2.5,Win32,119.047619,,,,,,,,,,,,,,,,,,,,,,,,508.2666,509.2637,l,1,0.3352,,0.3352,1,509.2643,509.7629,,,,,,185,MAS,WORD,DIS,150,baúl,,la,,509.7639,509.7645,0.12962963,0.204629633,0,0,0,,0,107,107,184,1,raol,,,
,,,,,,5e830b929f2ed2018ec42099,676192165fb32c2e1fb7aee6,67d0df34d6e400caa5bf6566,2025-03-11_19h12.42.591,Tarea de decisión léxica,2024.2.5,Win32,119.047619,,,,,,,,,,,,,,,,,,,,,,,,509.765,510.5287,a,1,0.1049,,0.1049,1,510.5288,511.0274,,,,,,396,FEM,NOWORD,AGR,150,paeda,,la,,511.0274,511.0275,0.12962963,0.204629633,0,0,0,,0,108,108,395,1,caída,,,
,,,,,,5e830b929f2ed2018ec42099,676192165fb32c2e1fb7aee6,67d0df34d6e400caa5bf6566,2025-03-11_19h12.42.591,Tarea de decisión léxica,2024.2.5,Win32,119.047619,,,,,,,,,,,,,,,,,,,,,,,,511.0285,511.8425,l,1,0.1498,,0.1498,1,511.8425,512.342,,,,,,299,FEM,WORD,AGR,150,bolsa,,la,,512.3421,512.3422,0.12962963,0.204629633,0,0,0,,0,109,109,298,1,bosga,,,
,,,,,,5e830b929f2ed2018ec42099,676192165fb32c2e1fb7aee6,67d0df34d6e400caa5bf6566,2025-03-11_19h12.42.591,Tarea de decisión léxica,2024.2.5,Win32,119.047619,,,,,,,,,,,,,,,,,,,,,,,,512.3434,513.1569,l,0,0.1532,,0.1532,0,513.1574,513.6561,,,,,,196,FEM,NOWORD,AGR,150,sira,,la,,513.6562,513.6562,0.12962963,0.204629633,0,0,0,,0,110,110,195,1,tela,,,
,,,,,,5e830b929f2ed2018ec42099,676192165fb32c2e1fb7aee6,67d0df34d6e400caa5bf6566,2025-03-11_19h12.42.591,Tarea de decisión léxica,2024.2.5,Win32,119.047619,,,,,,,,,,,,,,,,,,,,,,,,513.6573,514.4381,a,0,0.1169,,0.1169,0,514.4382,514.937,,,,,,345,FEM,WORD,AGR,150,arena,,la,,514.9371,514.9371,0.12962963,0.204629633,0,0,0,,0,111,111,344,1,anera,,,
,,,,,,5e830b929f2ed2018ec42099,676192165fb32c2e1fb7aee6,67d0df34d6e400caa5bf6566,2025-03-11_19h12.42.591,Tarea de decisión léxica,2024.2.5,Win32,119.047619,,,,,,,,,,,,,,,,,,,,,,,,514.938,515.6275,l,0,0.0256,,0.0256,0,515.6276,516.1266,,,,,,74,MAS,NOWORD,DIS,150,omio,,la,,516.1273,516.128,0.12962963,0.204629633,0,0,0,,0,112,112,73,1,odio,,,
,,,,,,5e830b929f2ed2018ec42099,676192165fb32c2e1fb7aee6,67d0df34d6e400caa5bf6566,2025-03-11_19h12.42.591,Tarea de decisión léxica,2024.2.5,Win32,119.047619,,,,,,,,,,,,,,,,,,,,,,,,516.1287,516.9339,l,1,0.1418,,0.1418,1,516.9346,517.4326,,,,,,447,MAS,WORD,AGR,150,bolso,,el,,517.4327,517.4327,0.12962963,0.204629633,0,0,0,,0,113,113,446,1,buaso,,,
,,,,,,5e830b929f2ed2018ec42099,676192165fb32c2e1fb7aee6,67d0df34d6e400caa5bf6566,2025-03-11_19h12.42.591,Tarea de decisión léxica,2024.2.5,Win32,119.047619,,,,,,,,,,,,,,,,,,,,,,,,517.4334,518.2312,l,1,0.1337,,0.1337,1,518.2312,518.7304,,,,,,401,MAS,WORD,DIS,150,polvo,,la,,518.7304,518.7306,0.12962963,0.204629633,0,0,0,,0,114,114,400,1,pirvo,,,
,,,,,,5e830b929f2ed2018ec42099,676192165fb32c2e1fb7aee6,67d0df34d6e400caa5bf6566,2025-03-11_19h12.42.591,Tarea de decisión léxica,2024.2.5,Win32,119.047619,,,,,,,,,,,,,,,,,,,,,,,,518.7313,519.6544,l,1,0.263,,0.263,1,519.6546,520.153,,,,,,403,FEM,WORD,DIS,150,prima,,el,,520.153,520.153,0.12962963,0.204629633,0,0,0,,0,115,115,402,1,grisa,,,
,,,,,,5e830b929f2ed2018ec42099,676192165fb32c2e1fb7aee6,67d0df34d6e400caa5bf6566,2025-03-11_19h12.42.591,Tarea de decisión léxica,2024.2.5,Win32,119.047619,,,,,,,,,,,,,,,,,,,,,,,,520.154,521.9246,l,1,1.1069,,1.1069,1,521.9248,522.4239,,,,,,415,FEM,WORD,DIS,150,jaula,,el,,522.4239,522.4239,0.12962963,0.204629633,0,0,0,,0,116,116,414,1,juira,,,
,,,,,,5e830b929f2ed2018ec42099,676192165fb32c2e1fb7aee6,67d0df34d6e400caa5bf6566,2025-03-11_19h12.42.591,Tarea de decisión léxica,2024.2.5,Win32,119.047619,,,,,,,,,,,,,,,,,,,,,,,,522.4247,523.2724,l,0,0.1856,,0.1856,0,523.2731,523.7715,,,,,,344,FEM,NOWORD,AGR,150,trada,,la,,523.7724,523.7727,0.12962963,0.204629633,0,0,0,,0,117,117,343,1,plata,,,
,,,,,,5e830b929f2ed2018ec42099,676192165fb32c2e1fb7aee6,67d0df34d6e400caa5bf6566,2025-03-11_19h12.42.591,Tarea de decisión léxica,2024.2.5,Win32,119.047619,,,,,,,,,,,,,,,,,,,,,,,,523.7733,524.4701,l,0,0.035,,0.035,0,524.4702,524.9694,,,,,,392,MAS,NOWORD,AGR,150,dievo,,el,,524.9694,524.9695,0.12962963,0.204629633,0,0,0,,0,118,118,391,1,dueño,,,
,,,,,,5e830b929f2ed2018ec42099,676192165fb32c2e1fb7aee6,67d0df34d6e400caa5bf6566,2025-03-11_19h12.42.591,Tarea de decisión léxica,2024.2.5,Win32,119.047619,,,,,,,,,,,,,,,,,,,,,,,,524.9703,525.6431,a,0,0.0083,,0.0083,0,525.6431,526.1423,,,,,,251,MAS,WORD,AGR,150,señor,,el,,526.1423,526.1424,0.12962963,0.204629633,0,0,0,,0,119,119,250,1,refor,,,
,,,,,,5e830b929f2ed2018ec42099,676192165fb32c2e1fb7aee6,67d0df34d6e400caa5bf6566,2025-03-11_19h12.42.591,Tarea de decisión léxica,2024.2.5,Win32,119.047619,,,,,,,,,,,,,,,,,,,,,,,,526.1431,527.2152,l,1,0.4119,,0.4119,1,527.2157,527.7144,,,,,,13,FEM,WORD,DIS,150,hora,,el,,527.7145,527.7146,0.12962963,0.204629633,0,0,0,,0,120,120,12,1,nola,,,
,,,,,,5e830b929f2ed2018ec42099,676192165fb32c2e1fb7aee6,67d0df34d6e400caa5bf6566,2025-03-11_19h12.42.591,Tarea de decisión léxica,2024.2.5,Win32,119.047619,,,,,,,,,,,,,,,,,,,,,,,,527.7153,528.513,l,0,0.1336,,0.1336,0,528.5135,529.0122,,,,,,18,FEM,NOWORD,DIS,150,paba,,el,,529.0122,529.0122,0.12962963,0.204629633,0,0,0,,0,121,121,17,1,mamá,,,
,,,,,,5e830b929f2ed2018ec42099,676192165fb32c2e1fb7aee6,67d0df34d6e400caa5bf6566,2025-03-11_19h12.42.591,Tarea de decisión léxica,2024.2.5,Win32,119.047619,,,,,,,,,,,,,,,,,,,,,,,,529.0129,529.8773,l,0,0.1999,,0.1999,0,529.8774,530.3763,,,,,,170,MAS,NOWORD,DIS,150,mibo,,la,,530.3772,530.3775,0.12962963,0.204629633,0,0,0,,0,122,122,169,1,cubo,,,
,,,,,,5e830b929f2ed2018ec42099,676192165fb32c2e1fb7aee6,67d0df34d6e400caa5bf6566,2025-03-11_19h12.42.591,Tarea de decisión léxica,2024.2.5,Win32,119.047619,,,,,,,,,,,,,,,,,,,,,,,,530.3783,531.1334,l,0,0.0915,,0.0915,0,531.1334,531.6326,,,,,,292,FEM,NOWORD,AGR,150,mesta,,la,,531.6326,531.6328,0.12962963,0.204629633,0,0,0,,0,123,123,291,1,pista,,,
,,,,,,5e830b929f2ed2018ec42099,676192165fb32c2e1fb7aee6,67d0df34d6e400caa5bf6566,2025-03-11_19h12.42.591,Tarea de decisión léxica,2024.2.5,Win32,119.047619,,,,,,,,,,,,,,,,,,,,,,,,531.634,532.4729,l,1,0.1756,,0.1756,1,532.4735,532.9717,,,,,,25,FEM,WORD,DIS,150,cama,,el,,532.9717,532.9718,0.12962963,0.204629633,0,0,0,,0,124,124,24,1,paza,,,
,,,,,,5e830b929f2ed2018ec42099,676192165fb32c2e1fb7aee6,67d0df34d6e400caa5bf6566,2025-03-11_19h12.42.591,Tarea de decisión léxica,2024.2.5,Win32,119.047619,,,,,,,,,,,,,,,,,,,,,,,,532.9727,533.8535,l,1,0.2187,,0.2187,1,533.8536,534.3528,,,,,,381,MAS,WORD,DIS,150,humor,,la,,534.3528,534.3528,0.12962963,0.204629633,0,0,0,,0,125,125,380,1,nusor,,,
,,,,,,5e830b929f2ed2018ec42099,676192165fb32c2e1fb7aee6,67d0df34d6e400caa5bf6566,2025-03-11_19h12.42.591,Tarea de decisión léxica,2024.2.5,Win32,119.047619,,,,,,,,,,,,,,,,,,,,,,,,534.3537,536.1327,a,1,1.1164,,1.1164,1,536.1328,536.632,,,,,,92,FEM,NOWORD,AGR,150,sava,,la,,536.6321,536.6321,0.12962963,0.204629633,0,0,0,,0,126,126,91,1,taza,,,
,,,,,,5e830b929f2ed2018ec42099,676192165fb32c2e1fb7aee6,67d0df34d6e400caa5bf6566,2025-03-11_19h12.42.591,Tarea de decisión léxica,2024.2.5,Win32,119.047619,,,,,,,,,,,,,,,,,,,,,,,,536.633,537.4639,l,0,0.1667,,0.1667,0,537.4646,537.963,,,,,,400,MAS,NOWORD,AGR,150,serro,,el,,537.9638,537.9643,0.12962963,0.204629633,0,0,0,,0,127,127,399,1,techo,,,
,,,,,,5e830b929f2ed2018ec42099,676192165fb32c2e1fb7aee6,67d0df34d6e400caa5bf6566,2025-03-11_19h12.42.591,Tarea de decisión léxica,2024.2.5,Win32,119.047619,,,,,,,,,,,,,,,,,,,,,,,,537.9648,538.7698,l,0,0.1452,,0.1452,0,538.7699,539.2688,,,,,,364,FEM,NOWORD,AGR,150,veida,,la,,539.2689,539.269,0.12962963,0.204629633,0,0,0,,0,128,128,363,1,deuda,,,
,,,,,,5e830b929f2ed2018ec42099,676192165fb32c2e1fb7aee6,67d0df34d6e400caa5bf6566,2025-03-11_19h12.42.591,Tarea de decisión léxica,2024.2.5,Win32,119.047619,,,,,,,,,,,,,,,,,,,,,,,,539.2698,540.176,l,0,0.2413,,0.2413,0,540.1761,540.6748,,,,,,382,MAS,NOWORD,DIS,150,nusor,,la,,540.675,540.675,0.12962963,0.204629633,0,0,0,,0,129,129,381,1,humor,,,
,,,,,,5e830b929f2ed2018ec42099,676192165fb32c2e1fb7aee6,67d0df34d6e400caa5bf6566,2025-03-11_19h12.42.591,Tarea de decisión léxica,2024.2.5,Win32,119.047619,,,,,,,,,,,,,,,,,,,,,,,,540.6758,541.4572,a,0,0.117,,0.117,0,541.4573,541.9558,,,,,,105,FEM,WORD,DIS,150,sopa,,el,,541.9559,541.956,0.12962963,0.204629633,0,0,0,,0,130,130,104,1,vina,,,
,,,,,,5e830b929f2ed2018ec42099,676192165fb32c2e1fb7aee6,67d0df34d6e400caa5bf6566,2025-03-11_19h12.42.591,Tarea de decisión léxica,2024.2.5,Win32,119.047619,,,,,,,,,,,,,,,,,,,,,,,,541.9567,542.9041,l,0,0.2831,,0.2831,0,542.9042,543.4033,,,,,,182,FEM,NOWORD,DIS,150,teda,,el,,543.4039,543.4044,0.12962963,0.204629633,0,0,0,,0,131,131,181,1,seda,,,
,,,,,,5e830b929f2ed2018ec42099,676192165fb32c2e1fb7aee6,67d0df34d6e400caa5bf6566,2025-03-11_19h12.42.591,Tarea de decisión léxica,2024.2.5,Win32,119.047619,,,,,,,,,,,,,,,,,,,,,,,,543.4051,544.26,l,1,0.1939,,0.1939,1,544.2605,544.7592,,,,,,145,MAS,WORD,AGR,150,león,,el,,544.7592,544.7593,0.12962963,0.204629633,0,0,0,,0,132,132,144,1,nobo,,,
,,,,,,5e830b929f2ed2018ec42099,676192165fb32c2e1fb7aee6,67d0df34d6e400caa5bf6566,2025-03-11_19h12.42.591,Tarea de decisión léxica,2024.2.5,Win32,119.047619,,,,,,,,,,,,,,,,,,,,,,,,544.7599,545.5079,l,1,0.084,,0.084,1,545.5079,546.0071,,,,,,279,FEM,WORD,AGR,150,prisa,,la,,546.0072,546.0072,0.12962963,0.204629633,0,0,0,,0,133,133,278,1,grina,,,
,,,,,,5e830b929f2ed2018ec42099,676192165fb32c2e1fb7aee6,67d0df34d6e400caa5bf6566,2025-03-11_19h12.42.591,Tarea de decisión léxica,2024.2.5,Win32,119.047619,,,,,,,,,,,,,,,,,,,,,,,,546.008,547.1718,l,1,0.4998,,0.4998,1,547.1719,547.6706,,,,,,255,MAS,WORD,AGR,150,miedo,,el,,547.6706,547.6706,0.12962963,0.204629633,0,0,0,,0,134,134,254,1,mauco,,,
,,,,,,5e830b929f2ed2018ec42099,676192165fb32c2e1fb7aee6,67d0df34d6e400caa5bf6566,2025-03-11_19h12.42.591,Tarea de decisión léxica,2024.2.5,Win32,119.047619,,,,,,,,,,,,,,,,,,,,,,,,547.6713,548.3861,a,0,0.0512,,0.0512,0,548.3866,548.8852,,,,,,461,FEM,WORD,AGR,150,tabla,,la,,548.8852,548.8853,0.12962963,0.204629633,0,0,0,,0,135,135,460,1,pagra,,,
,,,,,,5e830b929f2ed2018ec42099,676192165fb32c2e1fb7aee6,67d0df34d6e400caa5bf6566,2025-03-11_19h12.42.591,Tarea de decisión léxica,2024.2.5,Win32,119.047619,,,,,,,,,,,,,,,,,,,,,,,,548.886,549.5755,l,1,0.0289,,0.0289,1,549.5761,550.075,,,,,,439,FEM,WORD,DIS,150,presa,,el,,550.0761,550.0767,0.12962963,0.204629633,0,0,0,,0,136,136,438,1,prema,,,
,,,,,,5e830b929f2ed2018ec42099,676192165fb32c2e1fb7aee6,67d0df34d6e400caa5bf6566,2025-03-11_19h12.42.591,Tarea de decisión léxica,2024.2.5,Win32,119.047619,,,,,,,,,,,,,,,,,,,,,,,,550.0772,550.8567,l,0,0.1194,,0.1194,0,550.8573,551.3559,,,,,,22,MAS,NOWORD,DIS,150,blan,,la,,551.3559,551.356,0.12962963,0.204629633,0,0,0,,0,137,137,21,1,plan,,,
,,,,,,5e830b929f2ed2018ec42099,676192165fb32c2e1fb7aee6,67d0df34d6e400caa5bf6566,2025-03-11_19h12.42.591,Tarea de decisión léxica,2024.2.5,Win32,119.047619,,,,,,,,,,,,,,,,,,,,,,,,551.3569,552.063,a,1,0.0423,,0.0423,1,552.0637,552.562,,,,,,56,MAS,NOWORD,AGR,150,jado,,el,,552.562,552.5621,0.12962963,0.204629633,0,0,0,,0,138,138,55,1,gato,,,
,,,,,,5e830b929f2ed2018ec42099,676192165fb32c2e1fb7aee6,67d0df34d6e400caa5bf6566,2025-03-11_19h12.42.591,Tarea de decisión léxica,2024.2.5,Win32,119.047619,,,,,,,,,,,,,,,,,,,,,,,,552.5631,553.2775,l,1,0.0503,,0.0503,1,553.2775,553.7766,,,,,,265,FEM,WORD,DIS,150,mitad,,el,,553.7766,553.7766,0.12962963,0.204629633,0,0,0,,0,139,139,264,1,pitat,,,
,,,,,,5e830b929f2ed2018ec42099,676192165fb32c2e1fb7aee6,67d0df34d6e400caa5bf6566,2025-03-11_19h12.42.591,Tarea de decisión léxica,2024.2.5,Win32,119.047619,,,,,,,,,,,,,,,,,,,,,,,,553.7774,554.5671,l,0,0.1252,,0.1252,0,554.5677,555.0659,,,,,,138,MAS,NOWORD,DIS,150,pamo,,la,,555.066,555.066,0.12962963,0.204629633,0,0,0,,0,140,140,137,1,nene,,,
,,,,,,5e830b929f2ed2018ec42099,676192165fb32c2e1fb7aee6,67d0df34d6e400caa5bf6566,2025-03-11_19h12.42.591,Tarea de decisión léxica,2024.2.5,Win32,119.047619,,,,,,,,,,,,,,,,,,,,,,,,555.0667,556.7797,l,0,1.0534,,1.0534,0,556.7798,557.2789,,,,,,430,FEM,NOWORD,DIS,150,tenta,,el,,557.2801,557.2808,0.12962963,0.204629633,0,0,0,,0,141,141,429,1,tarta,,,
,,,,,,5e830b929f2ed2018ec42099,676192165fb32c2e1fb7aee6,67d0df34d6e400caa5bf6566,2025-03-11_19h12.42.591,Tarea de decisión léxica,2024.2.5,Win32,119.047619,,,,,,,,,,,,,,,,,,,,,,,,557.2817,558.0357,l,0,0.0926,,0.0926,0,558.0358,558.5349,,,,,,8,MAS,NOWORD,AGR,150,nivo,,el,,558.5349,558.5349,0.12962963,0.204629633,0,0,0,,0,142,142,7,1,hijo,,,
,,,,,,5e830b929f2ed2018ec42099,676192165fb32c2e1fb7aee6,67d0df34d6e400caa5bf6566,2025-03-11_19h12.42.591,Tarea de decisión léxica,2024.2.5,Win32,119.047619,,,,,,,,,,,,,,,,,,,,,,,,558.5356,559.3334,a,1,0.1333,,0.1333,1,559.3342,559.8326,,,,,,338,MAS,NOWORD,DIS,150,nuejo,,la,,559.8326,559.8327,0.12962963,0.204629633,0,0,0,,0,143,143,337,1,huevo,,,
,,,,,,5e830b929f2ed2018ec42099,676192165fb32c2e1fb7aee6,67d0df34d6e400caa5bf6566,2025-03-11_19h12.42.591,Tarea de decisión léxica,2024.2.5,Win32,119.047619,,,,,,,,,,,,,,,,,,,,,,,,559.8335,560.5394,l,0,0.0459,,0.0459,0,560.54,561.0387,,,,,,204,FEM,NOWORD,AGR,150,beja,,la,,561.0387,561.0388,0.12962963,0.204629633,0,0,0,,0,144,144,203,1,leña,,,
,,,,,,5e830b929f2ed2018ec42099,676192165fb32c2e1fb7aee6,67d0df34d6e400caa5bf6566,2025-03-11_19h12.42.591,Tarea de decisión léxica,2024.2.5,Win32,119.047619,,,,,,,,,,,,,,,,,,,,,,,,561.0397,561.9209,l,0,0.2217,,0.2217,0,561.9209,562.4196,,,,,,412,MAS,NOWORD,AGR,150,mobro,,el,,562.4196,562.4196,0.12962963,0.204629633,0,0,0,,0,145,145,411,1,pollo,,,
,,,,,,5e830b929f2ed2018ec42099,676192165fb32c2e1fb7aee6,67d0df34d6e400caa5bf6566,2025-03-11_19h12.42.591,Tarea de decisión léxica,2024.2.5,Win32,119.047619,,,,,,,,,,,,,,,,,,,,,,,,562.4205,563.218,l,0,0.1334,,0.1334,0,563.218,563.7172,,,,,,340,MAS,NOWORD,AGR,150,plajo,,el,,563.718,563.7184,0.12962963,0.204629633,0,0,0,,0,146,146,339,1,brazo,,,
,,,,,,5e830b929f2ed2018ec42099,676192165fb32c2e1fb7aee6,67d0df34d6e400caa5bf6566,2025-03-11_19h12.42.591,Tarea de decisión léxica,2024.2.5,Win32,119.047619,,,,,,,,,,,,,,,,,,,,,,,,563.7189,565.2313,l,1,0.849,,0.849,1,565.2318,565.7303,,,,,,131,FEM,WORD,DIS,150,mina,,el,,565.7303,565.7303,0.12962963,0.204629633,0,0,0,,0,147,147,130,1,fada,,,
,,,,,,5e830b929f2ed2018ec42099,676192165fb32c2e1fb7aee6,67d0df34d6e400caa5bf6566,2025-03-11_19h12.42.591,Tarea de decisión léxica,2024.2.5,Win32,119.047619,,,,,,,,,,,,,,,,,,,,,,,,565.7312,566.6286,a,1,0.2368,,0.2368,1,566.6287,567.1278,,,,,,154,MAS,NOWORD,DIS,150,tado,,la,,567.1279,567.1279,0.12962963,0.204629633,0,0,0,,0,148,148,153,1,pato,,,
,,,,,,5e830b929f2ed2018ec42099,676192165fb32c2e1fb7aee6,67d0df34d6e400caa5bf6566,2025-03-11_19h12.42.591,Tarea de decisión léxica,2024.2.5,Win32,119.047619,,,,,,,,,,,,,,,,,,,,,,,,567.1287,568.0429,l,1,0.2501,,0.2501,1,568.0429,568.542,,,,,,405,FEM,WORD,AGR,150,barra,,la,,568.5421,568.5421,0.12962963,0.204629633,0,0,0,,0,149,149,404,1,rarra,,,
,,,,,,5e830b929f2ed2018ec42099,676192165fb32c2e1fb7aee6,67d0df34d6e400caa5bf6566,2025-03-11_19h12.42.591,Tarea de decisión léxica,2024.2.5,Win32,119.047619,,,,,,,,,,,,,,,,,,,,,,,,568.5428,569.5236,l,1,0.3178,,0.3178,1,569.5237,570.0228,,,,,,85,MAS,WORD,DIS,150,lago,,la,,570.0228,570.0228,0.12962963,0.204629633,0,0,0,,0,150,150,84,1,babo,,,
,,,,,,5e830b929f2ed2018ec42099,676192165fb32c2e1fb7aee6,67d0df34d6e400caa5bf6566,2025-03-11_19h12.42.591,Tarea de decisión léxica,2024.2.5,Win32,119.047619,,,,,,,,,,,,,,,,,,,,,,,,570.0237,570.8047,l,1,0.1181,,0.1181,1,570.8048,571.3037,,,,,,473,FEM,WORD,AGR,150,feria,,la,,571.3045,571.3052,0.12962963,0.204629633,0,0,0,,0,151,151,472,1,felia,,,
,,,,,,5e830b929f2ed2018ec42099,676192165fb32c2e1fb7aee6,67d0df34d6e400caa5bf6566,2025-03-11_19h12.42.591,Tarea de decisión léxica,2024.2.5,Win32,119.047619,,,,,,,,,,,,,,,,,,,,,,,,571.3057,572.1106,l,1,0.1429,,0.1429,1,572.1106,572.6097,,,,,,225,MAS,WORD,DIS,150,lodo,,la,,572.6098,572.6099,0.12962963,0.204629633,0,0,0,,0,152,152,224,1,boco,,,
,,,,,,5e830b929f2ed2018ec42099,676192165fb32c2e1fb7aee6,67d0df34d6e400caa5bf6566,2025-03-11_19h12.42.591,Tarea de decisión léxica,2024.2.5,Win32,119.047619,,,,,,,,,,,,,,,,,,,,,,,,572.6108,573.425,l,0,0.1504,,0.1504,0,573.4256,573.924,,,,,,288,FEM,NOWORD,AGR,150,fosta,,la,,573.924,573.9242,0.12962963,0.204629633,0,0,0,,0,153,153,287,1,lista,,,
,,,,,,5e830b929f2ed2018ec42099,676192165fb32c2e1fb7aee6,67d0df34d6e400caa5bf6566,2025-03-11_19h12.42.591,Tarea de decisión léxica,2024.2.5,Win32,119.047619,,,,,,,,,,,,,,,,,,,,,,,,573.9247,574.7061,l,0,0.1179,,0.1179,0,574.7062,575.2054,,,,,,96,FEM,NOWORD,AGR,151,neda,,la,,575.2054,575.2056,0.12962963,0.204629633,0,0,0,,0,154,154,95,1,moda,,,
,,,,,,5e830b929f2ed2018ec42099,676192165fb32c2e1fb7aee6,67d0df34d6e400caa5bf6566,2025-03-11_19h12.42.591,Tarea de decisión léxica,2024.2.5,Win32,119.047619,,,,,,,,,,,,,,,,,,,,,,,,575.2065,576.4032,a,1,0.5331,,0.5331,1,576.4041,576.9022,,,,,,296,MAS,NOWORD,AGR,150,goler,,el,,576.9031,576.9036,0.12962963,0.204629633,0,0,0,,0,155,155,295,1,dolor,,,
,,,,,,5e830b929f2ed2018ec42099,676192165fb32c2e1fb7aee6,67d0df34d6e400caa5bf6566,2025-03-11_19h12.42.591,Tarea de decisión léxica,2024.2.5,Win32,119.047619,,,,,,,,,,,,,,,,,,,,,,,,576.9044,577.7923,l,1,0.2256,,0.2256,1,577.7924,578.2914,,,,,,325,FEM,WORD,AGR,150,magia,,la,,578.2914,578.2914,0.12962963,0.204629633,0,0,0,,0,156,156,324,1,mabia,,,
,,,,,,5e830b929f2ed2018ec42099,676192165fb32c2e1fb7aee6,67d0df34d6e400caa5bf6566,2025-03-11_19h12.42.591,Tarea de decisión léxica,2024.2.5,Win32,119.047619,,,,,,,,,,,,,,,,,,,,,,,,578.2921,579.2564,a,1,0.2993,,0.2993,1,579.2564,579.7554,,,,,,228,MAS,NOWORD,AGR,150,laro,,el,,579.7554,579.7555,0.12962963,0.204629633,0,0,0,,0,157,157,227,1,faro,,,
,,,,,,5e830b929f2ed2018ec42099,676192165fb32c2e1fb7aee6,67d0df34d6e400caa5bf6566,2025-03-11_19h12.42.591,Tarea de decisión léxica,2024.2.5,Win32,119.047619,,,,,,,,,,,,,,,,,,,,,,,,579.7562,580.8369,a,1,0.4163,,0.4163,1,580.837,581.336,,,,,,142,FEM,NOWORD,DIS,150,sina,,el,,581.336,581.336,0.12962963,0.204629633,0,0,0,,0,158,158,141,1,cruz,,,
,,,,,,5e830b929f2ed2018ec42099,676192165fb32c2e1fb7aee6,67d0df34d6e400caa5bf6566,2025-03-11_19h12.42.591,Tarea de decisión léxica,2024.2.5,Win32,119.047619,,,,,,,,,,,,,,,,,,,,,,,,581.3367,582.3344,l,1,0.3333,,0.3333,1,582.3344,582.8333,,,,,,477,MAS,WORD,AGR,150,botón,,el,,582.8333,582.8334,0.12962963,0.204629633,0,0,0,,0,159,159,476,1,hocon,,,
,,,,,,5e830b929f2ed2018ec42099,676192165fb32c2e1fb7aee6,67d0df34d6e400caa5bf6566,2025-03-11_19h12.42.591,Tarea de decisión léxica,2024.2.5,Win32,119.047619,,,,,,,,,,,,,,,,,,,,,,,,582.8343,583.9148,a,1,0.4188,,0.4188,1,583.9148,584.4139,,,,,,14,FEM,NOWORD,DIS,150,nola,,el,,584.4145,598.6056,-0.022222236,-0.422222208,1,0,0,,0,160,160,13,1,hora,break_done_button,,
,,,,,,5e830b929f2ed2018ec42099,676192165fb32c2e1fb7aee6,67d0df34d6e400caa5bf6566,2025-03-11_19h12.42.591,Tarea de decisión léxica,2024.2.5,Win32,119.047619,,,,,,,,,,,,,,,,,,,,,,,,598.6063,601.2508,,0,,,0.4188,-1,601.2512,601.7499,,,,,,314,MAS,NOWORD,DIS,150,govio,,la,,601.75,601.7501,-0.022222236,-0.422222208,0,0,0,,0,161,161,313,1,novio,,,
,,,,,,5e830b929f2ed2018ec42099,676192165fb32c2e1fb7aee6,67d0df34d6e400caa5bf6566,2025-03-11_19h12.42.591,Tarea de decisión léxica,2024.2.5,Win32,119.047619,,,,,,,,,,,,,,,,,,,,,,,,601.7507,603.0724,a,1,0.6575,,0.6575,1,603.073,603.5715,,,,,,268,MAS,NOWORD,AGR,150,figro,,el,,603.5715,603.5715,-0.022222236,-0.422222208,0,0,0,,0,162,162,267,1,libro,,,
,,,,,,5e830b929f2ed2018ec42099,676192165fb32c2e1fb7aee6,67d0df34d6e400caa5bf6566,2025-03-11_19h12.42.591,Tarea de decisión léxica,2024.2.5,Win32,119.047619,,,,,,,,,,,,,,,,,,,,,,,,603.5723,604.5865,l,1,0.3495,,0.3495,1,604.5865,605.0855,,,,,,389,MAS,WORD,AGR,150,cerdo,,el,,605.0856,605.0856,-0.022222236,-0.422222208,0,0,0,,0,163,163,388,1,cenco,,,
,,,,,,5e830b929f2ed2018ec42099,676192165fb32c2e1fb7aee6,67d0df34d6e400caa5bf6566,2025-03-11_19h12.42.591,Tarea de decisión léxica,2024.2.5,Win32,119.047619,,,,,,,,,,,,,,,,,,,,,,,,605.0865,606.092,l,1,0.3413,,0.3413,1,606.0921,606.5913,,,,,,79,FEM,WORD,AGR,150,piel,,la,,606.5914,606.5914,-0.022222236,-0.422222208,0,0,0,,0,164,164,78,1,ciel,,,
,,,,,,5e830b929f2ed2018ec42099,676192165fb32c2e1fb7aee6,67d0df34d6e400caa5bf6566,2025-03-11_19h12.42.591,Tarea de decisión léxica,2024.2.5,Win32,119.047619,,,,,,,,,,,,,,,,,,,,,,,,606.592,607.5893,a,1,0.3363,,0.3363,1,607.5893,608.0885,,,,,,436,MAS,NOWORD,AGR,150,ricno,,el,,608.0897,608.0902,-0.022222236,-0.422222208,0,0,0,,0,165,165,435,1,ritmo,,,
,,,,,,5e830b929f2ed2018ec42099,676192165fb32c2e1fb7aee6,67d0df34d6e400caa5bf6566,2025-03-11_19h12.42.591,Tarea de decisión léxica,2024.2.5,Win32,119.047619,,,,,,,,,,,,,,,,,,,,,,,,608.0907,608.8792,l,1,0.1265,,0.1265,1,608.8792,609.3779,,,,,,83,FEM,WORD,AGR,150,bala,,la,,609.378,609.378,-0.022222236,-0.422222208,0,0,0,,0,166,166,82,1,taga,,,
,,,,,,5e830b929f2ed2018ec42099,676192165fb32c2e1fb7aee6,67d0df34d6e400caa5bf6566,2025-03-11_19h12.42.591,Tarea de decisión léxica,2024.2.5,Win32,119.047619,,,,,,,,,,,,,,,,,,,,,,,,609.3786,610.1432,a,1,0.1043,,0.1043,1,610.1433,610.6425,,,,,,148,FEM,NOWORD,AGR,150,pama,,la,,610.6425,610.6426,-0.022222236,-0.422222208,0,0,0,,0,167,167,147,1,hoja,,,
,,,,,,5e830b929f2ed2018ec42099,676192165fb32c2e1fb7aee6,67d0df34d6e400caa5bf6566,2025-03-11_19h12.42.591,Tarea de decisión léxica,2024.2.5,Win32,119.047619,,,,,,,,,,,,,,,,,,,,,,,,610.6433,613.2876,,0,,,0.1043,-1,613.2881,613.787,,,,,,284,MAS,NOWORD,AGR,150,tuevo,,el,,613.7871,613.7872,-0.022222236,-0.422222208,0,0,0,,0,168,168,283,1,sueño,,,
,,,,,,5e830b929f2ed2018ec42099,676192165fb32c2e1fb7aee6,67d0df34d6e400caa5bf6566,2025-03-11_19h12.42.591,Tarea de decisión léxica,2024.2.5,Win32,119.047619,,,,,,,,,,,,,,,,,,,,,,,,613.7883,614.8099,l,1,0.3611,,0.3611,1,614.8102,615.3089,,,,,,443,MAS,WORD,AGR,150,salón,,el,,615.309,615.309,-0.022222236,-0.422222208,0,0,0,,0,169,169,442,1,taron,,,
,,,,,,5e830b929f2ed2018ec42099,676192165fb32c2e1fb7aee6,67d0df34d6e400caa5bf6566,2025-03-11_19h12.42.591,Tarea de decisión léxica,2024.2.5,Win32,119.047619,,,,,,,,,,,,,,,,,,,,,,,,615.3098,616.2493,l,1,0.2749,,0.2749,1,616.2493,616.7481,,,,,,11,MAS,WORD,AGR,150,lado,,el,,616.7491,616.7496,-0.022222236,-0.422222208,0,0,0,,0,170,170,10,1,bapo,,,
,,,,,,5e830b929f2ed2018ec42099,676192165fb32c2e1fb7aee6,67d0df34d6e400caa5bf6566,2025-03-11_19h12.42.591,Tarea de decisión léxica,2024.2.5,Win32,119.047619,,,,,,,,,,,,,,,,,,,,,,,,616.7501,617.7047,l,0,0.2937,,0.2937,0,617.7054,618.204,,,,,,388,FEM,NOWORD,AGR,150,bresa,,la,,618.204,618.2041,-0.022222236,-0.422222208,0,0,0,,0,171,171,387,1,crema,,,
,,,,,,5e830b929f2ed2018ec42099,676192165fb32c2e1fb7aee6,67d0df34d6e400caa5bf6566,2025-03-11_19h12.42.591,Tarea de decisión léxica,2024.2.5,Win32,119.047619,,,,,,,,,,,,,,,,,,,,,,,,618.2049,619.0441,a,0,0.1753,,0.1753,0,619.0442,619.5432,,,,,,315,FEM,WORD,DIS,150,reina,,el,,619.5432,619.5432,-0.022222236,-0.422222208,0,0,0,,0,172,172,314,1,riosa,,,
,,,,,,5e830b929f2ed2018ec42099,676192165fb32c2e1fb7aee6,67d0df34d6e400caa5bf6566,2025-03-11_19h12.42.591,Tarea de decisión léxica,2024.2.5,Win32,119.047619,,,,,,,,,,,,,,,,,,,,,,,,619.5439,620.4831,l,1,0.2763,,0.2763,1,620.4838,620.9822,,,,,,319,MAS,WORD,AGR,150,suelo,,el,,620.9823,620.9823,-0.022222236,-0.422222208,0,0,0,,0,173,173,318,1,tuero,,,
,,,,,,5e830b929f2ed2018ec42099,676192165fb32c2e1fb7aee6,67d0df34d6e400caa5bf6566,2025-03-11_19h12.42.591,Tarea de decisión léxica,2024.2.5,Win32,119.047619,,,,,,,,,,,,,,,,,,,,,,,,620.9829,621.8141,l,1,0.1669,,0.1669,1,621.8142,622.3133,,,,,,369,MAS,WORD,AGR,150,ruido,,el,,622.3134,622.3134,-0.022222236,-0.422222208,0,0,0,,0,174,174,368,1,rioco,,,
,,,,,,5e830b929f2ed2018ec42099,676192165fb32c2e1fb7aee6,67d0df34d6e400caa5bf6566,2025-03-11_19h12.42.591,Tarea de decisión léxica,2024.2.5,Win32,119.047619,,,,,,,,,,,,,,,,,,,,,,,,622.3141,623.4115,a,1,0.4331,,0.4331,1,623.4115,623.9104,,,,,,222,FEM,NOWORD,DIS,150,puca,,el,,623.9111,623.9115,-0.022222236,-0.422222208,0,0,0,,0,175,175,221,1,mula,,,
,,,,,,5e830b929f2ed2018ec42099,676192165fb32c2e1fb7aee6,67d0df34d6e400caa5bf6566,2025-03-11_19h12.42.591,Tarea de decisión léxica,2024.2.5,Win32,119.047619,,,,,,,,,,,,,,,,,,,,,,,,623.912,625.0335,a,1,0.4577,,0.4577,1,625.0336,625.5328,,,,,,12,MAS,NOWORD,AGR,150,bapo,,el,,625.5329,625.533,-0.022222236,-0.422222208,0,0,0,,0,176,176,11,1,lado,,,
,,,,,,5e830b929f2ed2018ec42099,676192165fb32c2e1fb7aee6,67d0df34d6e400caa5bf6566,2025-03-11_19h12.42.591,Tarea de decisión léxica,2024.2.5,Win32,119.047619,,,,,,,,,,,,,,,,,,,,,,,,625.5339,626.6055,a,1,0.4124,,0.4124,1,626.6056,627.1048,,,,,,212,FEM,NOWORD,AGR,150,joad,,la,,627.1049,627.105,-0.022222236,-0.422222208,0,0,0,,0,177,177,211,1,joya,,,
,,,,,,5e830b929f2ed2018ec42099,676192165fb32c2e1fb7aee6,67d0df34d6e400caa5bf6566,2025-03-11_19h12.42.591,Tarea de decisión léxica,2024.2.5,Win32,119.047619,,,,,,,,,,,,,,,,,,,,,,,,627.1056,628.1695,a,1,0.4025,,0.4025,1,628.1696,628.6686,,,,,,272,FEM,NOWORD,AGR,150,refal,,la,,628.6686,628.6687,-0.022222236,-0.422222208,0,0,0,,0,178,178,271,1,señal,,,
,,,,,,5e830b929f2ed2018ec42099,676192165fb32c2e1fb7aee6,67d0df34d6e400caa5bf6566,2025-03-11_19h12.42.591,Tarea de decisión léxica,2024.2.5,Win32,119.047619,,,,,,,,,,,,,,,,,,,,,,,,628.6694,629.4589,l,1,0.1249,,0.1249,1,629.459,629.9583,,,,,,197,MAS,WORD,AGR,150,bate,,el,,629.9591,629.9597,-0.022222236,-0.422222208,0,0,0,,0,179,179,196,1,dade,,,
,,,,,,5e830b929f2ed2018ec42099,676192165fb32c2e1fb7aee6,67d0df34d6e400caa5bf6566,2025-03-11_19h12.42.591,Tarea de decisión léxica,2024.2.5,Win32,119.047619,,,,,,,,,,,,,,,,,,,,,,,,629.9603,630.9479,a,0,0.3257,,0.3257,0,630.9485,631.447,,,,,,41,FEM,WORD,AGR,150,nave,,la,,631.4471,631.4471,-0.022222236,-0.422222208,0,0,0,,0,180,180,40,1,haje,,,
,,,,,,5e830b929f2ed2018ec42099,676192165fb32c2e1fb7aee6,67d0df34d6e400caa5bf6566,2025-03-11_19h12.42.591,Tarea de decisión léxica,2024.2.5,Win32,119.047619,,,,,,,,,,,,,,,,,,,,,,,,631.4478,632.2874,l,1,0.1751,,0.1751,1,632.288,632.7864,,,,,,297,MAS,WORD,AGR,150,grupo,,el,,632.7864,632.7865,-0.022222236,-0.422222208,0,0,0,,0,181,181,296,1,brubo,,,
,,,,,,5e830b929f2ed2018ec42099,676192165fb32c2e1fb7aee6,67d0df34d6e400caa5bf6566,2025-03-11_19h12.42.591,Tarea de decisión léxica,2024.2.5,Win32,119.047619,,,,,,,,,,,,,,,,,,,,,,,,632.7873,633.6433,a,1,0.1918,,0.1918,1,633.6434,634.1423,,,,,,4,FEM,NOWORD,AGR,150,dica,,la,,634.1424,634.1424,-0.022222236,-0.422222208,0,0,0,,0,182,182,3,1,vida,,,
,,,,,,5e830b929f2ed2018ec42099,676192165fb32c2e1fb7aee6,67d0df34d6e400caa5bf6566,2025-03-11_19h12.42.591,Tarea de decisión léxica,2024.2.5,Win32,119.047619,,,,,,,,,,,,,,,,,,,,,,,,634.1434,635.1239,a,0,0.3196,,0.3196,0,635.1244,635.6233,,,,,,221,FEM,WORD,DIS,150,mula,,el,,635.6234,635.6235,-0.022222236,-0.422222208,0,0,0,,0,183,183,220,1,puca,,,
,,,,,,5e830b929f2ed2018ec42099,676192165fb32c2e1fb7aee6,67d0df34d6e400caa5bf6566,2025-03-11_19h12.42.591,Tarea de decisión léxica,2024.2.5,Win32,119.047619,,,,,,,,,,,,,,,,,,,,,,,,635.6245,636.6295,a,1,0.3449,,0.3449,1,636.6301,637.1287,,,,,,112,MAS,NOWORD,AGR,150,siro,,el,,637.1295,637.1301,-0.022222236,-0.422222208,0,0,0,,0,184,184,111,1,muro,,,
,,,,,,5e830b929f2ed2018ec42099,676192165fb32c2e1fb7aee6,67d0df34d6e400caa5bf6566,2025-03-11_19h12.42.591,Tarea de decisión léxica,2024.2.5,Win32,119.047619,,,,,,,,,,,,,,,,,,,,,,,,637.1307,637.8107,l,1,0.017,,0.017,1,637.8108,638.31,,,,,,103,FEM,WORD,AGR,150,ruta,,la,,638.3101,638.3102,-0.022222236,-0.422222208,0,0,0,,0,185,185,102,1,rova,,,
,,,,,,5e830b929f2ed2018ec42099,676192165fb32c2e1fb7aee6,67d0df34d6e400caa5bf6566,2025-03-11_19h12.42.591,Tarea de decisión léxica,2024.2.5,Win32,119.047619,,,,,,,,,,,,,,,,,,,,,,,,638.3111,639.2502,a,1,0.276,,0.276,1,639.2503,639.7492,,,,,,336,FEM,NOWORD,AGR,150,pesta,,la,,639.7493,639.7494,-0.022222236,-0.422222208,0,0,0,,0,186,186,335,1,costa,,,
,,,,,,5e830b929f2ed2018ec42099,676192165fb32c2e1fb7aee6,67d0df34d6e400caa5bf6566,2025-03-11_19h12.42.591,Tarea de decisión léxica,2024.2.5,Win32,119.047619,,,,,,,,,,,,,,,,,,,,,,,,639.7503,640.531,l,0,0.12,,0.12,0,640.5318,641.0304,,,,,,258,FEM,NOWORD,DIS,150,asama,,el,,641.0305,641.0305,-0.022222236,-0.422222208,0,0,0,,0,187,187,257,1,amiga,,,
,,,,,,5e830b929f2ed2018ec42099,676192165fb32c2e1fb7aee6,67d0df34d6e400caa5bf6566,2025-03-11_19h12.42.591,Tarea de decisión léxica,2024.2.5,Win32,119.047619,,,,,,,,,,,,,,,,,,,,,,,,641.0314,642.0448,l,1,0.3544,,0.3544,1,642.0455,642.544,,,,,,59,FEM,WORD,AGR,150,sala,,la,,642.5441,642.5441,-0.022222236,-0.422222208,0,0,0,,0,188,188,58,1,tafa,,,
,,,,,,5e830b929f2ed2018ec42099,676192165fb32c2e1fb7aee6,67d0df34d6e400caa5bf6566,2025-03-11_19h12.42.591,Tarea de decisión léxica,2024.2.5,Win32,119.047619,,,,,,,,,,,,,,,,,,,,,,,,642.5447,643.6171,l,1,0.4083,,0.4083,1,643.6171,644.1162,,,,,,373,FEM,WORD,DIS,150,pizza,,el,,644.1171,644.1175,-0.022222236,-0.422222208,0,0,0,,0,189,189,372,1,pogza,,,
,,,,,,5e830b929f2ed2018ec42099,676192165fb32c2e1fb7aee6,67d0df34d6e400caa5bf6566,2025-03-11_19h12.42.591,Tarea de decisión léxica,2024.2.5,Win32,119.047619,,,,,,,,,,,,,,,,,,,,,,,,644.1181,645.1897,l,1,0.4092,,0.4092,1,645.1897,645.6884,,,,,,45,FEM,WORD,AGR,150,mesa,,la,,645.6886,645.6886,-0.022222236,-0.422222208,0,0,0,,0,190,190,44,1,pema,,,
,,,,,,5e830b929f2ed2018ec42099,676192165fb32c2e1fb7aee6,67d0df34d6e400caa5bf6566,2025-03-11_19h12.42.591,Tarea de decisión léxica,2024.2.5,Win32,119.047619,,,,,,,,,,,,,,,,,,,,,,,,645.6895,646.6536,l,1,0.2999,,0.2999,1,646.6536,647.1528,,,,,,395,FEM,WORD,DIS,150,caída,,el,,647.1528,647.153,-0.022222236,-0.422222208,0,0,0,,0,191,191,394,1,paeda,,,
,,,,,,5e830b929f2ed2018ec42099,676192165fb32c2e1fb7aee6,67d0df34d6e400caa5bf6566,2025-03-11_19h12.42.591,Tarea de decisión léxica,2024.2.5,Win32,119.047619,,,,,,,,,,,,,,,,,,,,,,,,647.1544,648.1011,l,1,0.2836,,0.2836,1,648.1012,648.5999,,,,,,449,FEM,WORD,DIS,150,pluma,,el,,648.5999,648.6,-0.022222236,-0.422222208,0,0,0,,0,192,192,448,1,crusa,,,
,,,,,,5e830b929f2ed2018ec42099,676192165fb32c2e1fb7aee6,67d0df34d6e400caa5bf6566,2025-03-11_19h12.42.591,Tarea de decisión léxica,2024.2.5,Win32,119.047619,,,,,,,,,,,,,,,,,,,,,,,,648.6008,649.906,a,1,0.6427,,0.6427,1,649.9062,650.4052,,,,,,420,MAS,NOWORD,AGR,150,chudo,,el,,650.4053,650.4053,-0.022222236,-0.422222208,0,0,0,,0,193,193,419,1,truco,,,
,,,,,,5e830b929f2ed2018ec42099,676192165fb32c2e1fb7aee6,67d0df34d6e400caa5bf6566,2025-03-11_19h12.42.591,Tarea de decisión léxica,2024.2.5,Win32,119.047619,,,,,,,,,,,,,,,,,,,,,,,,650.4064,651.4283,l,0,0.3582,,0.3582,0,651.429,651.9275,,,,,,58,MAS,NOWORD,DIS,150,heco,,la,,651.9283,651.9288,-0.022222236,-0.422222208,0,0,0,,0,194,194,57,1,dedo,,,
,,,,,,5e830b929f2ed2018ec42099,676192165fb32c2e1fb7aee6,67d0df34d6e400caa5bf6566,2025-03-11_19h12.42.591,Tarea de decisión léxica,2024.2.5,Win32,119.047619,,,,,,,,,,,,,,,,,,,,,,,,651.9293,652.9589,l,1,0.3697,,0.3697,1,652.9595,653.4581,,,,,,69,FEM,WORD,AGR,150,zona,,la,,653.4581,653.4581,-0.022222236,-0.422222208,0,0,0,,0,195,195,68,1,ñola,,,
,,,,,,5e830b929f2ed2018ec42099,676192165fb32c2e1fb7aee6,67d0df34d6e400caa5bf6566,2025-03-11_19h12.42.591,Tarea de decisión léxica,2024.2.5,Win32,119.047619,,,,,,,,,,,,,,,,,,,,,,,,653.4589,654.3317,l,1,0.2093,,0.2093,1,654.3317,654.8308,,,,,,211,FEM,WORD,DIS,150,joya,,el,,654.8309,654.831,-0.022222236,-0.422222208,0,0,0,,0,196,196,210,1,joad,,,
,,,,,,5e830b929f2ed2018ec42099,676192165fb32c2e1fb7aee6,67d0df34d6e400caa5bf6566,2025-03-11_19h12.42.591,Tarea de decisión léxica,2024.2.5,Win32,119.047619,,,,,,,,,,,,,,,,,,,,,,,,654.8319,655.9536,a,1,0.4621,,0.4621,1,655.9537,656.453,,,,,,442,FEM,NOWORD,DIS,150,telza,,el,,656.453,656.4532,-0.022222236,-0.422222208,0,0,0,,0,197,197,441,1,selva,,,
,,,,,,5e830b929f2ed2018ec42099,676192165fb32c2e1fb7aee6,67d0df34d6e400caa5bf6566,2025-03-11_19h12.42.591,Tarea de decisión léxica,2024.2.5,Win32,119.047619,,,,,,,,,,,,,,,,,,,,,,,,656.454,657.4177,l,1,0.2998,,0.2998,1,657.4178,657.9167,,,,,,195,FEM,WORD,DIS,150,tela,,el,,657.9168,657.9168,-0.022222236,-0.422222208,0,0,0,,0,198,198,194,1,sira,,,
,,,,,,5e830b929f2ed2018ec42099,676192165fb32c2e1fb7aee6,67d0df34d6e400caa5bf6566,2025-03-11_19h12.42.591,Tarea de decisión léxica,2024.2.5,Win32,119.047619,,,,,,,,,,,,,,,,,,,,,,,,657.9177,658.8818,a,1,0.3001,,0.3001,1,658.8819,659.3808,,,,,,334,FEM,NOWORD,DIS,150,dalea,,el,,659.3816,659.3821,-0.022222236,-0.422222208,0,0,0,,0,199,199,333,1,tarea,,,
,,,,,,5e830b929f2ed2018ec42099,676192165fb32c2e1fb7aee6,67d0df34d6e400caa5bf6566,2025-03-11_19h12.42.591,Tarea de decisión léxica,2024.2.5,Win32,119.047619,,,,,,,,,,,,,,,,,,,,,,,,659.3825,660.4289,a,1,0.383,,0.383,1,660.4291,660.9281,,,,,,66,MAS,NOWORD,DIS,150,nios,,la,,660.9281,660.9281,-0.022222236,-0.422222208,0,0,0,,0,200,200,65,1,dios,,,
,,,,,,5e830b929f2ed2018ec42099,676192165fb32c2e1fb7aee6,67d0df34d6e400caa5bf6566,2025-03-11_19h12.42.591,Tarea de decisión léxica,2024.2.5,Win32,119.047619,,,,,,,,,,,,,,,,,,,,,,,,660.9288,662.0511,a,1,0.4625,,0.4625,1,662.0511,662.5503,,,,,,62,FEM,NOWORD,DIS,150,efla,,el,,662.5503,662.5504,-0.022222236,-0.422222208,0,0,0,,0,201,201,61,1,obra,,,
,,,,,,5e830b929f2ed2018ec42099,676192165fb32c2e1fb7aee6,67d0df34d6e400caa5bf6566,2025-03-11_19h12.42.591,Tarea de decisión léxica,2024.2.5,Win32,119.047619,,,,,,,,,,,,,,,,,,,,,,,,662.5513,663.5651,l,1,0.3501,,0.3501,1,663.5651,664.0642,,,,,,271,FEM,WORD,AGR,150,señal,,la,,664.0642,664.0644,-0.022222236,-0.422222208,0,0,0,,0,202,202,270,1,refal,,,
,,,,,,5e830b929f2ed2018ec42099,676192165fb32c2e1fb7aee6,67d0df34d6e400caa5bf6566,2025-03-11_19h12.42.591,Tarea de decisión léxica,2024.2.5,Win32,119.047619,,,,,,,,,,,,,,,,,,,,,,,,664.065,664.9295,a,0,0.2051,,0.2051,0,664.93,665.4285,,,,,,129,MAS,WORD,DIS,150,oído,,la,,665.4296,665.43,-0.022222236,-0.422222208,0,0,0,,0,203,203,128,1,pima,,,
,,,,,,5e830b929f2ed2018ec42099,676192165fb32c2e1fb7aee6,67d0df34d6e400caa5bf6566,2025-03-11_19h12.42.591,Tarea de decisión léxica,2024.2.5,Win32,119.047619,,,,,,,,,,,,,,,,,,,,,,,,665.4304,666.6262,a,1,0.5328,,0.5328,1,666.6268,667.1254,,,,,,16,FEM,NOWORD,AGR,150,odea,,la,,667.1254,667.1254,-0.022222236,-0.422222208,0,0,0,,0,204,204,15,1,idea,,,
,,,,,,5e830b929f2ed2018ec42099,676192165fb32c2e1fb7aee6,67d0df34d6e400caa5bf6566,2025-03-11_19h12.42.591,Tarea de decisión léxica,2024.2.5,Win32,119.047619,,,,,,,,,,,,,,,,,,,,,,,,667.1262,668.2734,l,0,0.4837,,0.4837,0,668.2743,668.7727,,,,,,250,FEM,NOWORD,DIS,150,plane,,el,,668.7728,668.7729,-0.022222236,-0.422222208,0,0,0,,0,205,205,249,1,clase,,,
,,,,,,5e830b929f2ed2018ec42099,676192165fb32c2e1fb7aee6,67d0df34d6e400caa5bf6566,2025-03-11_19h12.42.591,Tarea de decisión léxica,2024.2.5,Win32,119.047619,,,,,,,,,,,,,,,,,,,,,,,,668.7737,669.7957,l,1,0.358,,0.358,1,669.7962,670.2948,,,,,,143,MAS,WORD,DIS,150,pavo,,la,,670.2949,670.2949,-0.022222236,-0.422222208,0,0,0,,0,206,206,142,1,pezo,,,
,,,,,,5e830b929f2ed2018ec42099,676192165fb32c2e1fb7aee6,67d0df34d6e400caa5bf6566,2025-03-11_19h12.42.591,Tarea de decisión léxica,2024.2.5,Win32,119.047619,,,,,,,,,,,,,,,,,,,,,,,,670.2955,671.2682,l,1,0.3081,,0.3081,1,671.2683,671.7673,,,,,,317,FEM,WORD,AGR,150,playa,,la,,671.7673,671.7673,-0.022222236,-0.422222208,0,0,0,,0,207,207,316,1,plaad,,,
,,,,,,5e830b929f2ed2018ec42099,676192165fb32c2e1fb7aee6,67d0df34d6e400caa5bf6566,2025-03-11_19h12.42.591,Tarea de decisión léxica,2024.2.5,Win32,119.047619,,,,,,,,,,,,,,,,,,,,,,,,671.7682,672.7572,a,1,0.3273,,0.3273,1,672.7573,673.2562,,,,,,116,FEM,NOWORD,AGR,150,haca,,la,,673.2573,673.2579,-0.022222236,-0.422222208,0,0,0,,0,208,208,115,1,pata,,,
,,,,,,5e830b929f2ed2018ec42099,676192165fb32c2e1fb7aee6,67d0df34d6e400caa5bf6566,2025-03-11_19h12.42.591,Tarea de decisión léxica,2024.2.5,Win32,119.047619,,,,,,,,,,,,,,,,,,,,,,,,673.2584,674.0133,l,0,0.0938,,0.0938,0,674.0139,674.5124,,,,,,468,MAS,NOWORD,AGR,150,peiso,,el,,674.5124,674.5125,-0.022222236,-0.422222208,0,0,0,,0,209,209,467,1,piano,,,
,,,,,,5e830b929f2ed2018ec42099,676192165fb32c2e1fb7aee6,67d0df34d6e400caa5bf6566,2025-03-11_19h12.42.591,Tarea de decisión léxica,2024.2.5,Win32,119.047619,,,,,,,,,,,,,,,,,,,,,,,,674.5131,675.577,a,1,0.4037,,0.4037,1,675.5775,676.0762,,,,,,454,FEM,NOWORD,DIS,150,pafia,,el,,676.0762,676.0763,-0.022222236,-0.422222208,0,0,0,,0,210,210,453,1,mafia,,,
,,,,,,5e830b929f2ed2018ec42099,676192165fb32c2e1fb7aee6,67d0df34d6e400caa5bf6566,2025-03-11_19h12.42.591,Tarea de decisión léxica,2024.2.5,Win32,119.047619,,,,,,,,,,,,,,,,,,,,,,,,676.0769,676.9496,l,0,0.2127,,0.2127,0,676.9502,677.449,,,,,,126,MAS,NOWORD,DIS,150,vudo,,la,,677.449,677.4491,-0.022222236,-0.422222208,0,0,0,,0,211,211,125,1,lujo,,,
,,,,,,5e830b929f2ed2018ec42099,676192165fb32c2e1fb7aee6,67d0df34d6e400caa5bf6566,2025-03-11_19h12.42.591,Tarea de decisión léxica,2024.2.5,Win32,119.047619,,,,,,,,,,,,,,,,,,,,,,,,677.4503,678.5554,l,1,0.4409,,0.4409,1,678.5558,679.0545,,,,,,385,FEM,WORD,AGR,150,letra,,la,,679.0546,679.0546,-0.022222236,-0.422222208,0,0,0,,0,212,212,384,1,febra,,,
,,,,,,5e830b929f2ed2018ec42099,676192165fb32c2e1fb7aee6,67d0df34d6e400caa5bf6566,2025-03-11_19h12.42.591,Tarea de decisión léxica,2024.2.5,Win32,119.047619,,,,,,,,,,,,,,,,,,,,,,,,679.0554,680.0277,l,1,0.3081,,0.3081,1,680.0278,680.5267,,,,,,471,FEM,WORD,DIS,150,grasa,,el,,680.5276,680.528,-0.022222236,-0.422222208,0,0,0,,0,213,213,470,1,prana,,,
,,,,,,5e830b929f2ed2018ec42099,676192165fb32c2e1fb7aee6,67d0df34d6e400caa5bf6566,2025-03-11_19h12.42.591,Tarea de decisión léxica,2024.2.5,Win32,119.047619,,,,,,,,,,,,,,,,,,,,,,,,680.5286,681.5581,l,1,0.3664,,0.3664,1,681.5582,682.0572,,,,,,437,FEM,WORD,AGR,150,plaza,,la,,682.0572,682.0573,-0.022222236,-0.422222208,0,0,0,,0,214,214,436,1,glava,,,
,,,,,,5e830b929f2ed2018ec42099,676192165fb32c2e1fb7aee6,67d0df34d6e400caa5bf6566,2025-03-11_19h12.42.591,Tarea de decisión léxica,2024.2.5,Win32,119.047619,,,,,,,,,,,,,,,,,,,,,,,,682.058,683.172,l,1,0.4495,,0.4495,1,683.172,683.6713,,,,,,163,FEM,WORD,AGR,150,fama,,la,,683.6713,683.6713,-0.022222236,-0.422222208,0,0,0,,0,215,215,162,1,laga,,,
,,,,,,5e830b929f2ed2018ec42099,676192165fb32c2e1fb7aee6,67d0df34d6e400caa5bf6566,2025-03-11_19h12.42.591,Tarea de decisión léxica,2024.2.5,Win32,119.047619,,,,,,,,,,,,,,,,,,,,,,,,683.6721,684.7526,l,1,0.417,,0.417,1,684.7526,685.2515,,,,,,397,FEM,WORD,AGR,150,tribu,,la,,685.2515,685.2516,-0.022222236,-0.422222208,0,0,0,,0,216,216,396,1,trigi,,,
,,,,,,5e830b929f2ed2018ec42099,676192165fb32c2e1fb7aee6,67d0df34d6e400caa5bf6566,2025-03-11_19h12.42.591,Tarea de decisión léxica,2024.2.5,Win32,119.047619,,,,,,,,,,,,,,,,,,,,,,,,685.2524,686.1416,l,0,0.225,,0.225,0,686.1422,686.6409,,,,,,372,FEM,NOWORD,AGR,150,mosta,,la,,686.6409,686.641,-0.022222236,-0.422222208,0,0,0,,0,217,217,371,1,pasta,,,
,,,,,,5e830b929f2ed2018ec42099,676192165fb32c2e1fb7aee6,67d0df34d6e400caa5bf6566,2025-03-11_19h12.42.591,Tarea de decisión léxica,2024.2.5,Win32,119.047619,,,,,,,,,,,,,,,,,,,,,,,,686.6418,687.8137,l,1,0.5113,,0.5113,1,687.8142,688.3131,,,,,,111,MAS,WORD,DIS,150,muro,,la,,688.3142,688.3148,-0.022222236,-0.422222208,0,0,0,,0,218,218,110,1,siro,,,
,,,,,,5e830b929f2ed2018ec42099,676192165fb32c2e1fb7aee6,67d0df34d6e400caa5bf6566,2025-03-11_19h12.42.591,Tarea de decisión léxica,2024.2.5,Win32,119.047619,,,,,,,,,,,,,,,,,,,,,,,,688.3152,689.2696,l,0,0.2916,,0.2916,0,689.27,689.7686,,,,,,144,MAS,NOWORD,AGR,150,pezo,,el,,689.7687,689.7687,-0.022222236,-0.422222208,0,0,0,,0,219,219,143,1,pavo,,,
,,,,,,5e830b929f2ed2018ec42099,676192165fb32c2e1fb7aee6,67d0df34d6e400caa5bf6566,2025-03-11_19h12.42.591,Tarea de decisión léxica,2024.2.5,Win32,119.047619,,,,,,,,,,,,,,,,,,,,,,,,689.7695,690.534,l,0,0.1004,,0.1004,0,690.5341,691.033,,,,,,194,FEM,NOWORD,DIS,150,foda,,el,,691.0331,691.0331,-0.022222236,-0.422222208,0,0,0,,0,220,220,193,1,loca,,,
,,,,,,5e830b929f2ed2018ec42099,676192165fb32c2e1fb7aee6,67d0df34d6e400caa5bf6566,2025-03-11_19h12.42.591,Tarea de decisión léxica,2024.2.5,Win32,119.047619,,,,,,,,,,,,,,,,,,,,,,,,691.0337,692.3556,a,1,0.6579,,0.6579,1,692.3562,692.8548,,,,,,326,FEM,NOWORD,DIS,150,mabia,,el,,692.8548,692.8549,-0.022222236,-0.422222208,0,0,0,,0,221,221,325,1,magia,,,
,,,,,,5e830b929f2ed2018ec42099,676192165fb32c2e1fb7aee6,67d0df34d6e400caa5bf6566,2025-03-11_19h12.42.591,Tarea de decisión léxica,2024.2.5,Win32,119.047619,,,,,,,,,,,,,,,,,,,,,,,,692.8556,693.9196,l,1,0.4031,,0.4031,1,693.9197,694.4187,,,,,,479,MAS,WORD,DIS,150,rumbo,,la,,694.4188,694.4188,-0.022222236,-0.422222208,0,0,0,,0,222,222,478,1,rimpo,,,
,,,,,,5e830b929f2ed2018ec42099,676192165fb32c2e1fb7aee6,67d0df34d6e400caa5bf6566,2025-03-11_19h12.42.591,Tarea de decisión léxica,2024.2.5,Win32,119.047619,,,,,,,,,,,,,,,,,,,,,,,,694.4197,695.4834,a,1,0.3996,,0.3996,1,695.4835,695.9828,,,,,,390,MAS,NOWORD,DIS,150,cenco,,la,,695.9838,695.9843,-0.022222236,-0.422222208,0,0,0,,0,223,223,389,1,cerdo,,,
,,,,,,5e830b929f2ed2018ec42099,676192165fb32c2e1fb7aee6,67d0df34d6e400caa5bf6566,2025-03-11_19h12.42.591,Tarea de decisión léxica,2024.2.5,Win32,119.047619,,,,,,,,,,,,,,,,,,,,,,,,695.9848,697.0557,a,1,0.4079,,0.4079,1,697.0559,697.5548,,,,,,216,FEM,NOWORD,AGR,150,raua,,la,,697.5549,697.5549,-0.022222236,-0.422222208,0,0,0,,0,224,224,215,1,raíz,,,
,,,,,,5e830b929f2ed2018ec42099,676192165fb32c2e1fb7aee6,67d0df34d6e400caa5bf6566,2025-03-11_19h12.42.591,Tarea de decisión léxica,2024.2.5,Win32,119.047619,,,,,,,,,,,,,,,,,,,,,,,,697.5557,698.6198,l,0,0.402,,0.402,0,698.6208,699.1186,,,,,,174,FEM,NOWORD,DIS,150,boma,,el,,699.1186,699.1187,-0.022222236,-0.422222208,0,0,0,,0,225,225,173,1,rosa,,,
,,,,,,5e830b929f2ed2018ec42099,676192165fb32c2e1fb7aee6,67d0df34d6e400caa5bf6566,2025-03-11_19h12.42.591,Tarea de decisión léxica,2024.2.5,Win32,119.047619,,,,,,,,,,,,,,,,,,,,,,,,699.1193,700.2001,l,1,0.4172,,0.4172,1,700.2006,700.6993,,,,,,281,MAS,WORD,DIS,150,cielo,,la,,700.6993,700.6994,-0.022222236,-0.422222208,0,0,0,,0,226,226,280,1,cauro,,,
,,,,,,5e830b929f2ed2018ec42099,676192165fb32c2e1fb7aee6,67d0df34d6e400caa5bf6566,2025-03-11_19h12.42.591,Tarea de decisión léxica,2024.2.5,Win32,119.047619,,,,,,,,,,,,,,,,,,,,,,,,700.7002,701.8391,l,1,0.4746,,0.4746,1,701.8393,702.338,,,,,,165,FEM,WORD,DIS,150,vela,,el,,702.3389,702.3393,-0.022222236,-0.422222208,0,0,0,,0,227,227,164,1,dera,,,
,,,,,,5e830b929f2ed2018ec42099,676192165fb32c2e1fb7aee6,67d0df34d6e400caa5bf6566,2025-03-11_19h12.42.591,Tarea de decisión léxica,2024.2.5,Win32,119.047619,,,,,,,,,,,,,,,,,,,,,,,,702.3398,703.5361,l,1,0.5325,,0.5325,1,703.5362,704.0349,,,,,,465,FEM,WORD,AGR,150,aguja,,la,,704.0349,704.0349,-0.022222236,-0.422222208,0,0,0,,0,228,228,464,1,asuba,,,
,,,,,,5e830b929f2ed2018ec42099,676192165fb32c2e1fb7aee6,67d0df34d6e400caa5bf6566,2025-03-11_19h12.42.591,Tarea de decisión léxica,2024.2.5,Win32,119.047619,,,,,,,,,,,,,,,,,,,,,,,,704.0357,705.0665,a,1,0.3645,,0.3645,1,705.0665,705.5657,,,,,,404,FEM,NOWORD,AGR,150,grisa,,la,,705.5657,705.5657,-0.022222236,-0.422222208,0,0,0,,0,229,229,403,1,prima,,,
,,,,,,5e830b929f2ed2018ec42099,676192165fb32c2e1fb7aee6,67d0df34d6e400caa5bf6566,2025-03-11_19h12.42.591,Tarea de decisión léxica,2024.2.5,Win32,119.047619,,,,,,,,,,,,,,,,,,,,,,,,705.5664,707.3708,l,1,1.1403,,1.1403,1,707.3709,707.8699,,,,,,171,MAS,WORD,AGR,150,hilo,,el,,707.8699,707.87,-0.022222236,-0.422222208,0,0,0,,0,230,230,170,1,niro,,,
,,,,,,5e830b929f2ed2018ec42099,676192165fb32c2e1fb7aee6,67d0df34d6e400caa5bf6566,2025-03-11_19h12.42.591,Tarea de decisión léxica,2024.2.5,Win32,119.047619,,,,,,,,,,,,,,,,,,,,,,,,707.871,708.8765,l,1,0.343,,0.343,1,708.8766,709.3756,,,,,,35,MAS,WORD,DIS,150,pelo,,la,,709.3756,709.3756,-0.022222236,-0.422222208,0,0,0,,0,231,231,34,1,meno,,,
,,,,,,5e830b929f2ed2018ec42099,676192165fb32c2e1fb7aee6,67d0df34d6e400caa5bf6566,2025-03-11_19h12.42.591,Tarea de decisión léxica,2024.2.5,Win32,119.047619,,,,,,,,,,,,,,,,,,,,,,,,709.3763,710.3572,l,1,0.3184,,0.3184,1,710.3572,710.8563,,,,,,31,FEM,WORD,AGR,150,ropa,,la,,710.857,710.8574,-0.022222236,-0.422222208,0,0,0,,0,232,232,30,1,bova,,,
,,,,,,5e830b929f2ed2018ec42099,676192165fb32c2e1fb7aee6,67d0df34d6e400caa5bf6566,2025-03-11_19h12.42.591,Tarea de decisión léxica,2024.2.5,Win32,119.047619,,,,,,,,,,,,,,,,,,,,,,,,710.8581,711.996,l,1,0.4754,,0.4754,1,711.9962,712.4951,,,,,,115,FEM,WORD,DIS,150,pata,,el,,712.4952,712.4953,-0.022222236,-0.422222208,0,0,0,,0,233,233,114,1,haca,,,
,,,,,,5e830b929f2ed2018ec42099,676192165fb32c2e1fb7aee6,67d0df34d6e400caa5bf6566,2025-03-11_19h12.42.591,Tarea de decisión léxica,2024.2.5,Win32,119.047619,,,,,,,,,,,,,,,,,,,,,,,,712.4965,713.6013,l,1,0.4449,,0.4449,1,713.6013,714.1006,,,,,,341,MAS,WORD,DIS,150,valor,,la,,714.1007,714.1007,-0.022222236,-0.422222208,0,0,0,,0,234,234,340,1,daror,,,
,,,,,,5e830b929f2ed2018ec42099,676192165fb32c2e1fb7aee6,67d0df34d6e400caa5bf6566,2025-03-11_19h12.42.591,Tarea de decisión léxica,2024.2.5,Win32,119.047619,,,,,,,,,,,,,,,,,,,,,,,,714.1015,715.3315,l,1,0.5694,,0.5694,1,715.3316,715.8306,,,,,,5,FEM,WORD,AGR,150,cosa,,la,,715.8306,715.8307,-0.022222236,-0.422222208,0,0,0,,0,235,235,4,1,poga,,,
,,,,,,5e830b929f2ed2018ec42099,676192165fb32c2e1fb7aee6,67d0df34d6e400caa5bf6566,2025-03-11_19h12.42.591,Tarea de decisión léxica,2024.2.5,Win32,119.047619,,,,,,,,,,,,,,,,,,,,,,,,715.8313,716.8122,l,1,0.3194,,0.3194,1,716.8123,717.3115,,,,,,283,MAS,WORD,AGR,150,sueño,,el,,717.3115,717.3116,-0.022222236,-0.422222208,0,0,0,,0,236,236,282,1,tuevo,,,
,,,,,,5e830b929f2ed2018ec42099,676192165fb32c2e1fb7aee6,67d0df34d6e400caa5bf6566,2025-03-11_19h12.42.591,Tarea de decisión léxica,2024.2.5,Win32,119.047619,,,,,,,,,,,,,,,,,,,,,,,,717.3122,718.3763,a,1,0.3989,,0.3989,1,718.3764,718.8754,,,,,,36,MAS,NOWORD,AGR,150,meno,,el,,718.8763,718.8769,-0.022222236,-0.422222208,0,0,0,,0,237,237,35,1,pelo,,,
,,,,,,5e830b929f2ed2018ec42099,676192165fb32c2e1fb7aee6,67d0df34d6e400caa5bf6566,2025-03-11_19h12.42.591,Tarea de decisión léxica,2024.2.5,Win32,119.047619,,,,,,,,,,,,,,,,,,,,,,,,718.8775,719.8904,l,1,0.35,,0.35,1,719.8905,720.3893,,,,,,77,MAS,WORD,AGR,150,loco,,el,,720.3894,720.3894,-0.022222236,-0.422222208,0,0,0,,0,238,238,76,1,fodo,,,
,,,,,,5e830b929f2ed2018ec42099,676192165fb32c2e1fb7aee6,67d0df34d6e400caa5bf6566,2025-03-11_19h12.42.591,Tarea de decisión léxica,2024.2.5,Win32,119.047619,,,,,,,,,,,,,,,,,,,,,,,,720.3903,721.4791,l,1,0.4266,,0.4266,1,721.4792,721.9784,,,,,,89,MAS,WORD,DIS,150,humo,,la,,721.9784,721.9785,-0.022222236,-0.422222208,0,0,0,,0,239,239,88,1,guso,,,
,,,,,,5e830b929f2ed2018ec42099,676192165fb32c2e1fb7aee6,67d0df34d6e400caa5bf6566,2025-03-11_19h12.42.591,Tarea de decisión léxica,2024.2.5,Win32,119.047619,,,,,,,,,,,,,,,,,,,,,,,,721.9794,722.9598,l,1,0.3211,,0.3211,1,722.9598,723.4588,,,,,,307,MAS,WORD,DIS,150,hotel,,la,,723.4588,723.4589,-0.022222236,-0.422222208,0,0,0,,0,240,240,306,1,holol,,,
,,,,,,5e830b929f2ed2018ec42099,676192165fb32c2e1fb7aee6,67d0df34d6e400caa5bf6566,2025-03-11_19h12.42.591,Tarea de decisión léxica,2024.2.5,Win32,119.047619,,,,,,,,,,,,,,,,,,,,,,,,723.4595,724.5237,a,1,0.3994,,0.3994,1,724.5237,725.0229,,,,,,414,FEM,NOWORD,DIS,150,bieda,,el,,725.0229,725.023,-0.022222236,-0.422222208,0,0,0,,0,241,241,413,1,rueda,,,
,,,,,,5e830b929f2ed2018ec42099,676192165fb32c2e1fb7aee6,67d0df34d6e400caa5bf6566,2025-03-11_19h12.42.591,Tarea de decisión léxica,2024.2.5,Win32,119.047619,,,,,,,,,,,,,,,,,,,,,,,,725.0242,726.0708,a,1,0.3833,,0.3833,1,726.0709,726.57,,,,,,172,MAS,NOWORD,AGR,150,niro,,el,,726.5709,726.5714,-0.022222236,-0.422222208,0,0,0,,0,242,242,171,1,hilo,,,
,,,,,,5e830b929f2ed2018ec42099,676192165fb32c2e1fb7aee6,67d0df34d6e400caa5bf6566,2025-03-11_19h12.42.591,Tarea de decisión léxica,2024.2.5,Win32,119.047619,,,,,,,,,,,,,,,,,,,,,,,,726.5718,727.5848,l,1,0.3528,,0.3528,1,727.5849,728.084,,,,,,355,FEM,WORD,DIS,150,regla,,el,,728.084,728.0841,-0.022222236,-0.422222208,0,0,0,,0,243,243,354,1,bepla,,,
,,,,,,5e830b929f2ed2018ec42099,676192165fb32c2e1fb7aee6,67d0df34d6e400caa5bf6566,2025-03-11_19h12.42.591,Tarea de decisión léxica,2024.2.5,Win32,119.047619,,,,,,,,,,,,,,,,,,,,,,,,728.0848,729.2485,a,1,0.5019,,0.5019,1,729.2486,729.7478,,,,,,198,MAS,NOWORD,DIS,150,dade,,la,,729.7479,729.748,-0.022222236,-0.422222208,0,0,0,,0,244,244,197,1,bate,,,
,,,,,,5e830b929f2ed2018ec42099,676192165fb32c2e1fb7aee6,67d0df34d6e400caa5bf6566,2025-03-11_19h12.42.591,Tarea de decisión léxica,2024.2.5,Win32,119.047619,,,,,,,,,,,,,,,,,,,,,,,,729.749,730.8706,a,1,0.4614,,0.4614,1,730.8707,731.3698,,,,,,316,FEM,NOWORD,AGR,150,riosa,,la,,731.3698,731.3699,-0.022222236,-0.422222208,0,0,0,,0,245,245,315,1,reina,,,
,,,,,,5e830b929f2ed2018ec42099,676192165fb32c2e1fb7aee6,67d0df34d6e400caa5bf6566,2025-03-11_19h12.42.591,Tarea de decisión léxica,2024.2.5,Win32,119.047619,,,,,,,,,,,,,,,,,,,,,,,,731.3707,732.2105,l,0,0.1753,,0.1753,0,732.211,732.7094,,,,,,282,MAS,NOWORD,DIS,150,cauro,,la,,732.7094,732.7095,-0.022222236,-0.422222208,0,0,0,,0,246,246,281,1,cielo,,,
,,,,,,5e830b929f2ed2018ec42099,676192165fb32c2e1fb7aee6,67d0df34d6e400caa5bf6566,2025-03-11_19h12.42.591,Tarea de decisión léxica,2024.2.5,Win32,119.047619,,,,,,,,,,,,,,,,,,,,,,,,732.7104,733.7824,a,1,0.4091,,0.4091,1,733.783,734.2814,,,,,,52,FEM,NOWORD,AGR,150,mava,,la,,734.2824,734.2832,-0.022222236,-0.422222208,0,0,0,,0,247,247,51,1,caja,,,
,,,,,,5e830b929f2ed2018ec42099,676192165fb32c2e1fb7aee6,67d0df34d6e400caa5bf6566,2025-03-11_19h12.42.591,Tarea de decisión léxica,2024.2.5,Win32,119.047619,,,,,,,,,,,,,,,,,,,,,,,,734.2839,735.2297,l,1,0.287,,0.287,1,735.2297,735.7289,,,,,,407,FEM,WORD,DIS,150,cueva,,el,,735.729,735.7292,-0.022222236,-0.422222208,0,0,0,,0,248,248,406,1,cauba,,,
,,,,,,5e830b929f2ed2018ec42099,676192165fb32c2e1fb7aee6,67d0df34d6e400caa5bf6566,2025-03-11_19h12.42.591,Tarea de decisión léxica,2024.2.5,Win32,119.047619,,,,,,,,,,,,,,,,,,,,,,,,735.7302,736.8434,l,1,0.4496,,0.4496,1,736.8434,737.3426,,,,,,347,FEM,WORD,DIS,150,pieza,,el,,737.3427,737.3427,-0.022222236,-0.422222208,0,0,0,,0,249,249,346,1,mueza,,,
,,,,,,5e830b929f2ed2018ec42099,676192165fb32c2e1fb7aee6,67d0df34d6e400caa5bf6566,2025-03-11_19h12.42.591,Tarea de decisión léxica,2024.2.5,Win32,119.047619,,,,,,,,,,,,,,,,,,,,,,,,737.3437,738.3656,a,1,0.3616,,0.3616,1,738.3657,738.865,,,,,,100,MAS,NOWORD,AGR,150,soro,,el,,738.8652,738.8653,-0.022222236,-0.422222208,0,0,0,,0,250,250,99,1,lobo,,,
,,,,,,5e830b929f2ed2018ec42099,676192165fb32c2e1fb7aee6,67d0df34d6e400caa5bf6566,2025-03-11_19h12.42.591,Tarea de decisión léxica,2024.2.5,Win32,119.047619,,,,,,,,,,,,,,,,,,,,,,,,738.8663,739.8964,l,1,0.3671,,0.3671,1,739.8964,740.3955,,,,,,273,FEM,WORD,DIS,150,broma,,el,,740.3963,740.3967,-0.022222236,-0.422222208,0,0,0,,0,251,251,272,1,frosa,,,
,,,,,,5e830b929f2ed2018ec42099,676192165fb32c2e1fb7aee6,67d0df34d6e400caa5bf6566,2025-03-11_19h12.42.591,Tarea de decisión léxica,2024.2.5,Win32,119.047619,,,,,,,,,,,,,,,,,,,,,,,,740.3972,741.352,a,1,0.2923,,0.2923,1,741.3521,741.8512,,,,,,210,MAS,NOWORD,DIS,150,dero,,la,,741.8513,741.8514,-0.022222236,-0.422222208,0,0,0,,0,252,252,209,1,velo,,,
,,,,,,5e830b929f2ed2018ec42099,676192165fb32c2e1fb7aee6,67d0df34d6e400caa5bf6566,2025-03-11_19h12.42.591,Tarea de decisión léxica,2024.2.5,Win32,119.047619,,,,,,,,,,,,,,,,,,,,,,,,741.8522,742.6665,l,0,0.1531,,0.1531,0,742.6671,743.1659,,,,,,322,MAS,NOWORD,DIS,150,rarco,,la,,743.1659,743.166,-0.022222236,-0.422222208,0,0,0,,0,253,253,321,1,banco,,,
,,,,,,5e830b929f2ed2018ec42099,676192165fb32c2e1fb7aee6,67d0df34d6e400caa5bf6566,2025-03-11_19h12.42.591,Tarea de decisión léxica,2024.2.5,Win32,119.047619,,,,,,,,,,,,,,,,,,,,,,,,743.1669,744.2802,a,1,0.4522,,0.4522,1,744.2807,744.7794,,,,,,246,FEM,NOWORD,DIS,150,pafle,,el,,744.7794,744.7794,-0.022222236,-0.422222208,0,0,0,,0,254,254,245,1,madre,,,
,,,,,,5e830b929f2ed2018ec42099,676192165fb32c2e1fb7aee6,67d0df34d6e400caa5bf6566,2025-03-11_19h12.42.591,Tarea de decisión léxica,2024.2.5,Win32,119.047619,,,,,,,,,,,,,,,,,,,,,,,,744.7801,746.0021,a,1,0.5619,,0.5619,1,746.0022,746.5012,,,,,,192,FEM,NOWORD,AGR,150,bila,,la,,746.5013,746.5014,-0.022222236,-0.422222208,0,0,0,,0,255,255,191,1,pila,,,
,,,,,,5e830b929f2ed2018ec42099,676192165fb32c2e1fb7aee6,67d0df34d6e400caa5bf6566,2025-03-11_19h12.42.591,Tarea de decisión léxica,2024.2.5,Win32,119.047619,,,,,,,,,,,,,,,,,,,,,,,,746.5021,747.5161,a,1,0.3541,,0.3541,1,747.5162,748.0152,,,,,,434,MAS,NOWORD,DIS,150,durco,,la,,748.016,748.0165,-0.022222236,-0.422222208,0,0,0,,0,256,256,433,1,disco,,,
,,,,,,5e830b929f2ed2018ec42099,676192165fb32c2e1fb7aee6,67d0df34d6e400caa5bf6566,2025-03-11_19h12.42.591,Tarea de decisión léxica,2024.2.5,Win32,119.047619,,,,,,,,,,,,,,,,,,,,,,,,748.0169,749.0053,l,1,0.3279,,0.3279,1,749.0053,749.5043,,,,,,173,FEM,WORD,DIS,150,rosa,,el,,749.5044,749.5044,-0.022222236,-0.422222208,0,0,0,,0,257,257,172,1,boma,,,
,,,,,,5e830b929f2ed2018ec42099,676192165fb32c2e1fb7aee6,67d0df34d6e400caa5bf6566,2025-03-11_19h12.42.591,Tarea de decisión léxica,2024.2.5,Win32,119.047619,,,,,,,,,,,,,,,,,,,,,,,,749.5051,750.4446,a,0,0.2797,,0.2797,0,750.4452,750.9434,,,,,,333,FEM,WORD,DIS,150,tarea,,el,,750.9435,750.9436,-0.022222236,-0.422222208,0,0,0,,0,258,258,332,1,dalea,,,
,,,,,,5e830b929f2ed2018ec42099,676192165fb32c2e1fb7aee6,67d0df34d6e400caa5bf6566,2025-03-11_19h12.42.591,Tarea de decisión léxica,2024.2.5,Win32,119.047619,,,,,,,,,,,,,,,,,,,,,,,,750.9444,751.9999,a,1,0.3953,,0.3953,1,752.0004,752.499,,,,,,346,FEM,NOWORD,DIS,150,anera,,el,,752.4991,752.4992,-0.022222236,-0.422222208,0,0,0,,0,259,259,345,1,arena,,,
,,,,,,5e830b929f2ed2018ec42099,676192165fb32c2e1fb7aee6,67d0df34d6e400caa5bf6566,2025-03-11_19h12.42.591,Tarea de decisión léxica,2024.2.5,Win32,119.047619,,,,,,,,,,,,,,,,,,,,,,,,752.5001,753.5222,a,1,0.3591,,0.3591,1,753.5222,754.0213,,,,,,220,FEM,NOWORD,AGR,150,miva,,la,,754.0213,754.0214,-0.022222236,-0.422222208,0,0,0,,0,260,260,219,1,pipa,,,
,,,,,,5e830b929f2ed2018ec42099,676192165fb32c2e1fb7aee6,67d0df34d6e400caa5bf6566,2025-03-11_19h12.42.591,Tarea de decisión léxica,2024.2.5,Win32,119.047619,,,,,,,,,,,,,,,,,,,,,,,,754.022,755.0195,a,1,0.3338,,0.3338,1,755.0196,755.5186,,,,,,408,FEM,NOWORD,AGR,150,cauba,,la,,755.5196,755.5204,-0.022222236,-0.422222208,0,0,0,,0,261,261,407,1,cueva,,,
,,,,,,5e830b929f2ed2018ec42099,676192165fb32c2e1fb7aee6,67d0df34d6e400caa5bf6566,2025-03-11_19h12.42.591,Tarea de decisión léxica,2024.2.5,Win32,119.047619,,,,,,,,,,,,,,,,,,,,,,,,755.5209,756.6334,l,1,0.4526,,0.4526,1,756.6334,757.1324,,,,,,367,MAS,WORD,DIS,150,reloj,,la,,757.1324,757.1325,-0.022222236,-0.422222208,0,0,0,,0,262,262,366,1,rerob,,,
,,,,,,5e830b929f2ed2018ec42099,676192165fb32c2e1fb7aee6,67d0df34d6e400caa5bf6566,2025-03-11_19h12.42.591,Tarea de decisión léxica,2024.2.5,Win32,119.047619,,,,,,,,,,,,,,,,,,,,,,,,757.1334,758.455,l,1,0.6573,,0.6573,1,758.4551,758.9542,,,,,,29,MAS,WORD,AGR,150,modo,,el,,758.9543,758.9543,-0.022222236,-0.422222208,0,0,0,,0,263,263,28,1,pono,,,
,,,,,,5e830b929f2ed2018ec42099,676192165fb32c2e1fb7aee6,67d0df34d6e400caa5bf6566,2025-03-11_19h12.42.591,Tarea de decisión léxica,2024.2.5,Win32,119.047619,,,,,,,,,,,,,,,,,,,,,,,,758.9552,760.0522,a,1,0.4325,,0.4325,1,760.0523,760.5516,,,,,,274,FEM,NOWORD,DIS,150,frosa,,el,,760.5516,760.5517,-0.022222236,-0.422222208,0,0,0,,0,264,264,273,1,broma,,,
,,,,,,5e830b929f2ed2018ec42099,676192165fb32c2e1fb7aee6,67d0df34d6e400caa5bf6566,2025-03-11_19h12.42.591,Tarea de decisión léxica,2024.2.5,Win32,119.047619,,,,,,,,,,,,,,,,,,,,,,,,760.5525,761.7243,l,1,0.5089,,0.5089,1,761.7243,762.2235,,,,,,109,MAS,WORD,AGR,150,rayo,,el,,762.2236,762.2237,-0.022222236,-0.422222208,0,0,0,,0,265,265,108,1,suno,,,
