counterbalancing_condition,consent_prescreening.block_1/age_years,consent_prescreening.block_1/declare_consent,consent_prescreening.block_1/gender,consent_prescreening.block_1/language_disorder,consent_prescreening.block_1/first_language,PROLIFIC_PID,STUDY_ID,SESSION_ID,date,expName,psychopyVersion,OS,frameRate,check_prescreening_answers.started,check_prescreening_answers.stopped,Instructions.started,Instructions.stopped,instr_done_keyboard.keys,instr_done_keyboard.rt,instr_done_keyboard.duration,instr_done_touch.x,instr_done_touch.y,instr_done_touch.leftButton,instr_done_touch.midButton,instr_done_touch.rightButton,instruction_pages.thisRepN,instruction_pages.thisTrialN,instruction_pages.thisN,instruction_pages.thisIndex,instruction_pages.ran,pageN,phase,instruct_text,has_image,instruct_image,presentTrial.started,presentTrial.stopped,response.keys,response.corr,response.rt,response.duration,rt,corr,feedback.started,feedback.stopped,practice_trials.thisRepN,practice_trials.thisTrialN,practice_trials.thisN,practice_trials.thisIndex,practice_trials.ran,TrialID,Gender,StimulusType,Condition,PrimeDuration,Prime,len,Flanker,corrAns,Break.started,Break.stopped,break_done_touch.x,break_done_touch.y,break_done_touch.leftButton,break_done_touch.midButton,break_done_touch.rightButton,break_done_keyboard.keys,experiment_trials.thisRepN,experiment_trials.thisTrialN,experiment_trials.thisN,experiment_trials.thisIndex,experiment_trials.ran,PairedWith,break_done_keyboard.rt,break_done_keyboard.duration,End.started,End.stopped
2,28,"[""read_info"",""consent_given"",""comfortable"",""over_18""]",M,"[""none""]","[""spanish""]",5e9133f704391d46ee2bcb31,676192165fb32c2e1fb7aee6,67d1fa2c96f754c4747da134,2025-03-12_18h19.02.693,Tarea de decisión léxica,2024.2.5,Win32,59.88023952,,,,,,,,,,,,,,,,,,,,,,,,,,,,,,,,,,,,,,,,,,,,,,,,,,,,,,,,,,,,,,,,
,,,,,,5e9133f704391d46ee2bcb31,676192165fb32c2e1fb7aee6,67d1fa2c96f754c4747da134,2025-03-12_18h19.02.693,Tarea de decisión léxica,2024.2.5,Win32,59.88023952,29.2248,29.225,,,,,,,,,,,,,,,,,,,,,,,,,,,,,,,,,,,,,,,,,,,,,,,,,,,,,,,,,,,,,,
,,,,,,5e9133f704391d46ee2bcb31,676192165fb32c2e1fb7aee6,67d1fa2c96f754c4747da134,2025-03-12_18h19.02.693,Tarea de decisión léxica,2024.2.5,Win32,59.88023952,,,29.2474,42.3857,space,13.1059,,-0.032552083,0.139322917,0,0,0,0,0,0,0,1,1,instructions,"INSTRUCCIONES
Va a realizar una prueba de decisión léxica. Desde el comienzo de la prueba mire siempre al centro de la pantalla. Se presentará una serie de cadenas de letras, una a la vez, en la pantalla. Su tarea consiste en determinar si cada cadena de letras constituye una palabra real en español o una no-palabra (una secuencia de letras que no constituye una palabra real). 

Pulse la tecla ESPACIO para continuar.",0,keyboardresponseWN.png,,,,,,,,,,,,,,,,,,,,,,,,,,,,,,,,,,,,,,,,,,
,,,,,,5e9133f704391d46ee2bcb31,676192165fb32c2e1fb7aee6,67d1fa2c96f754c4747da134,2025-03-12_18h19.02.693,Tarea de decisión léxica,2024.2.5,Win32,59.88023952,,,42.393,56.2097,space,13.7951,,-0.032552083,0.139322917,0,0,0,0,1,1,1,1,2,instructions,"El procedimiento es el siguiente: Aparecerán dos barras verticales posicionadas en el centro de la pantalla, separadas por un pequeño espacio.Por favor, enfoque su atención en el espacio entre las barras. Esto preparará sus ojos para la siguiente cadena de letras, que aparecerá entre las dos barras durante un instante.

Pulse la tecla ESPACIO para continuar.",0,keyboardresponseWN.png,,,,,,,,,,,,,,,,,,,,,,,,,,,,,,,,,,,,,,,,,,
,,,,,,5e9133f704391d46ee2bcb31,676192165fb32c2e1fb7aee6,67d1fa2c96f754c4747da134,2025-03-12_18h19.02.693,Tarea de decisión léxica,2024.2.5,Win32,59.88023952,,,56.2125,67.7975,space,11.5228,,-0.032552083,0.139322917,0,0,0,0,2,2,2,1,3,instructions,"En el teclado de su dispositivo, pulse la tecla ""A"" si la cadena de letras es una palabra real en español (por ejemplo: ""mano"") y la tecla ""L"" si la cadena de letras es una no-palabra (por ejemplo: ""minu"").
Pulse la tecla ESPACIO para continuar.",1,keyboardresponseWN.png,,,,,,,,,,,,,,,,,,,,,,,,,,,,,,,,,,,,,,,,,,
,,,,,,5e9133f704391d46ee2bcb31,676192165fb32c2e1fb7aee6,67d1fa2c96f754c4747da134,2025-03-12_18h19.02.693,Tarea de decisión léxica,2024.2.5,Win32,59.88023952,,,67.8001,80.1639,space,12.3438,,0.141927083,0.444010417,0,0,0,0,3,3,3,1,4,instructions,"Es muy importante que responda con la mayor rapidez y precisión posibles. Si no responde dentro de 2 segundos, aparecerá el mensaje ""Muy lento"" y el experimento pasará a la siguiente palabra. Inmediatamente después de su respuesta se indicará si fue correcta o no. Los primeros 15 intentos serán de práctica y habrá dos descansos durante la prueba.

Pulse la tecla ESPACIO  para iniciar la parte de práctica.",0,keyboardresponseWN.png,,,,,,,,,,,,,,,,,,,,,,,,,,,,,,,,,,,,,,,,,,
,,,,,,5e9133f704391d46ee2bcb31,676192165fb32c2e1fb7aee6,67d1fa2c96f754c4747da134,2025-03-12_18h19.02.693,Tarea de decisión léxica,2024.2.5,Win32,59.88023952,,,,,,,,,,,,,,,,,,,,,,,80.2158,82.3456,a,1,1.4487,,1.4487,1,82.3463,82.8433,0,0,0,9,1,1010,MAS,WORD,DIS,150,video,5,la,l,,,,,,,,,,,,,,,,,,
,,,,,,5e9133f704391d46ee2bcb31,676192165fb32c2e1fb7aee6,67d1fa2c96f754c4747da134,2025-03-12_18h19.02.693,Tarea de decisión léxica,2024.2.5,Win32,59.88023952,,,,,,,,,,,,,,,,,,,,,,,82.846,84.1599,l,1,0.6352,,0.6352,1,84.1601,84.6588,0,1,1,1,1,1002,FEM,NOWORD,DIS,150,mabo,4,el,a,,,,,,,,,,,,,,,,,,
,,,,,,5e9133f704391d46ee2bcb31,676192165fb32c2e1fb7aee6,67d1fa2c96f754c4747da134,2025-03-12_18h19.02.693,Tarea de decisión léxica,2024.2.5,Win32,59.88023952,,,,,,,,,,,,,,,,,,,,,,,84.661,85.8745,a,1,0.5375,,0.5375,1,85.8747,86.3739,0,2,2,8,1,1009,FEM,WORD,AGR,150,viejo,5,la,l,,,,,,,,,,,,,,,,,,
,,,,,,5e9133f704391d46ee2bcb31,676192165fb32c2e1fb7aee6,67d1fa2c96f754c4747da134,2025-03-12_18h19.02.693,Tarea de decisión léxica,2024.2.5,Win32,59.88023952,,,,,,,,,,,,,,,,,,,,,,,86.3778,87.8054,a,1,0.7504,,0.7504,1,87.8056,88.3046,0,3,3,6,1,1007,MAS,WORD,DIS,150,masa,4,la,l,,,,,,,,,,,,,,,,,,
,,,,,,5e9133f704391d46ee2bcb31,676192165fb32c2e1fb7aee6,67d1fa2c96f754c4747da134,2025-03-12_18h19.02.693,Tarea de decisión léxica,2024.2.5,Win32,59.88023952,,,,,,,,,,,,,,,,,,,,,,,88.3064,89.2873,a,1,0.3004,,0.3004,1,89.2876,89.7869,0,4,4,5,1,1006,FEM,WORD,AGR,150,cara,4,la,l,,,,,,,,,,,,,,,,,,
,,,,,,5e9133f704391d46ee2bcb31,676192165fb32c2e1fb7aee6,67d1fa2c96f754c4747da134,2025-03-12_18h19.02.693,Tarea de decisión léxica,2024.2.5,Win32,59.88023952,,,,,,,,,,,,,,,,,,,,,,,89.7881,90.9521,l,1,0.4818,,0.4818,1,90.9522,91.4521,0,5,5,3,1,1004,FEM,NOWORD,AGR,150,bireo,5,la,a,,,,,,,,,,,,,,,,,,
,,,,,,5e9133f704391d46ee2bcb31,676192165fb32c2e1fb7aee6,67d1fa2c96f754c4747da134,2025-03-12_18h19.02.693,Tarea de decisión léxica,2024.2.5,Win32,59.88023952,,,,,,,,,,,,,,,,,,,,,,,91.454,92.6506,a,0,0.5207,,0.5207,0,92.652,93.15,0,6,6,0,1,1001,FEM,NOWORD,AGR,150,croz,4,la,a,,,,,,,,,,,,,,,,,,
,,,,,,5e9133f704391d46ee2bcb31,676192165fb32c2e1fb7aee6,67d1fa2c96f754c4747da134,2025-03-12_18h19.02.693,Tarea de decisión léxica,2024.2.5,Win32,59.88023952,,,,,,,,,,,,,,,,,,,,,,,93.1516,94.4323,l,1,0.6002,,0.6002,1,94.4333,94.932,0,7,7,4,1,1005,MAS,NOWORD,DIS,150,nobad,5,la,a,,,,,,,,,,,,,,,,,,
,,,,,,5e9133f704391d46ee2bcb31,676192165fb32c2e1fb7aee6,67d1fa2c96f754c4747da134,2025-03-12_18h19.02.693,Tarea de decisión léxica,2024.2.5,Win32,59.88023952,,,,,,,,,,,,,,,,,,,,,,,94.9338,96.0311,a,1,0.4204,,0.4204,1,96.0312,96.5309,0,8,8,7,1,1008,MAS,WORD,DIS,150,frío,4,la,l,,,,,,,,,,,,,,,,,,
,,,,,,5e9133f704391d46ee2bcb31,676192165fb32c2e1fb7aee6,67d1fa2c96f754c4747da134,2025-03-12_18h19.02.693,Tarea de decisión léxica,2024.2.5,Win32,59.88023952,,,,,,,,,,,,,,,,,,,,,,,96.533,97.7116,l,1,0.5091,,0.5091,1,97.7117,98.2121,0,9,9,2,1,1003,FEM,NOWORD,DIS,150,muvor,5,el,a,,,,,,,,,,,,,,,,,,
,,,,,,5e9133f704391d46ee2bcb31,676192165fb32c2e1fb7aee6,67d1fa2c96f754c4747da134,2025-03-12_18h19.02.693,Tarea de decisión léxica,2024.2.5,Win32,59.88023952,,,101.8501,108.0355,space,6.1674,,0.141927083,0.444010417,0,0,0,,,,,,,,,,,108.11,109.2849,l,1,0.5069,,0.5069,1,109.2853,109.7847,,,,,,434,MAS,NOWORD,DIS,150,durco,,la,,109.7857,109.793,0.141927083,0.444010417,0,0,0,,0,0,0,433,1,disco,,,,
,,,,,,5e9133f704391d46ee2bcb31,676192165fb32c2e1fb7aee6,67d1fa2c96f754c4747da134,2025-03-12_18h19.02.693,Tarea de decisión léxica,2024.2.5,Win32,59.88023952,,,,,,,,,,,,,,,,,,,,,,,109.795,110.9501,l,1,0.4916,,0.4916,1,110.9504,111.4493,,,,,,26,FEM,NOWORD,DIS,150,paza,,el,,111.4496,111.45,0.141927083,0.444010417,0,0,0,,0,1,1,25,1,cama,,,,
,,,,,,5e9133f704391d46ee2bcb31,676192165fb32c2e1fb7aee6,67d1fa2c96f754c4747da134,2025-03-12_18h19.02.693,Tarea de decisión léxica,2024.2.5,Win32,59.88023952,,,,,,,,,,,,,,,,,,,,,,,111.4519,112.5152,a,1,0.3941,,0.3941,1,112.5157,113.0145,,,,,,127,MAS,WORD,AGR,150,pico,,el,,113.017,113.0179,0.141927083,0.444010417,0,0,0,,0,2,2,126,1,itio,,,,
,,,,,,5e9133f704391d46ee2bcb31,676192165fb32c2e1fb7aee6,67d1fa2c96f754c4747da134,2025-03-12_18h19.02.693,Tarea de decisión léxica,2024.2.5,Win32,59.88023952,,,,,,,,,,,,,,,,,,,,,,,113.019,114.0631,a,1,0.3672,,0.3672,1,114.0635,114.5636,,,,,,153,MAS,WORD,DIS,150,pato,,la,,114.5639,114.5645,0.141927083,0.444010417,0,0,0,,0,3,3,152,1,tado,,,,
,,,,,,5e9133f704391d46ee2bcb31,676192165fb32c2e1fb7aee6,67d1fa2c96f754c4747da134,2025-03-12_18h19.02.693,Tarea de decisión léxica,2024.2.5,Win32,59.88023952,,,,,,,,,,,,,,,,,,,,,,,114.566,115.6446,l,1,0.3994,,0.3994,1,115.645,116.1445,,,,,,330,MAS,NOWORD,DIS,150,nueno,,la,,116.1447,116.145,0.141927083,0.444010417,0,0,0,,0,4,4,329,1,hueso,,,,
,,,,,,5e9133f704391d46ee2bcb31,676192165fb32c2e1fb7aee6,67d1fa2c96f754c4747da134,2025-03-12_18h19.02.693,Tarea de decisión léxica,2024.2.5,Win32,59.88023952,,,,,,,,,,,,,,,,,,,,,,,116.1466,117.326,l,1,0.5102,,0.5102,1,117.3262,117.8272,,,,,,340,MAS,NOWORD,AGR,150,plajo,,el,,117.8275,117.8281,0.141927083,0.444010417,0,0,0,,0,5,5,339,1,brazo,,,,
,,,,,,5e9133f704391d46ee2bcb31,676192165fb32c2e1fb7aee6,67d1fa2c96f754c4747da134,2025-03-12_18h19.02.693,Tarea de decisión léxica,2024.2.5,Win32,59.88023952,,,,,,,,,,,,,,,,,,,,,,,117.8308,118.908,l,1,0.4098,,0.4098,1,118.9083,119.408,,,,,,16,FEM,NOWORD,AGR,150,odea,,la,,119.4083,119.4087,0.141927083,0.444010417,0,0,0,,0,6,6,15,1,idea,,,,
,,,,,,5e9133f704391d46ee2bcb31,676192165fb32c2e1fb7aee6,67d1fa2c96f754c4747da134,2025-03-12_18h19.02.693,Tarea de decisión léxica,2024.2.5,Win32,59.88023952,,,,,,,,,,,,,,,,,,,,,,,119.4103,120.4618,l,1,0.3828,,0.3828,1,120.4619,120.9567,,,,,,56,MAS,NOWORD,AGR,150,jado,,el,,120.9596,120.9603,0.141927083,0.444010417,0,0,0,,0,7,7,55,1,gato,,,,
,,,,,,5e9133f704391d46ee2bcb31,676192165fb32c2e1fb7aee6,67d1fa2c96f754c4747da134,2025-03-12_18h19.02.693,Tarea de decisión léxica,2024.2.5,Win32,59.88023952,,,,,,,,,,,,,,,,,,,,,,,120.9608,122.0566,l,1,0.4213,,0.4213,1,122.057,122.5557,,,,,,144,MAS,NOWORD,AGR,150,pezo,,el,,122.556,122.5565,0.141927083,0.444010417,0,0,0,,0,8,8,143,1,pavo,,,,
,,,,,,5e9133f704391d46ee2bcb31,676192165fb32c2e1fb7aee6,67d1fa2c96f754c4747da134,2025-03-12_18h19.02.693,Tarea de decisión léxica,2024.2.5,Win32,59.88023952,,,,,,,,,,,,,,,,,,,,,,,122.5596,123.6206,a,1,0.3919,,0.3919,1,123.6211,124.1205,,,,,,271,FEM,WORD,AGR,150,señal,,la,,124.1206,124.1213,0.141927083,0.444010417,0,0,0,,0,9,9,270,1,refal,,,,
,,,,,,5e9133f704391d46ee2bcb31,676192165fb32c2e1fb7aee6,67d1fa2c96f754c4747da134,2025-03-12_18h19.02.693,Tarea de decisión léxica,2024.2.5,Win32,59.88023952,,,,,,,,,,,,,,,,,,,,,,,124.1229,125.2031,l,1,0.4025,,0.4025,1,125.2034,125.7028,,,,,,414,FEM,NOWORD,DIS,150,bieda,,el,,125.7031,125.7036,0.141927083,0.444010417,0,0,0,,0,10,10,413,1,rueda,,,,
,,,,,,5e9133f704391d46ee2bcb31,676192165fb32c2e1fb7aee6,67d1fa2c96f754c4747da134,2025-03-12_18h19.02.693,Tarea de decisión léxica,2024.2.5,Win32,59.88023952,,,,,,,,,,,,,,,,,,,,,,,125.7066,126.9011,a,1,0.5313,,0.5313,1,126.9016,127.4009,,,,,,423,MAS,WORD,AGR,150,queso,,el,,127.4034,127.4047,0.141927083,0.444010417,0,0,0,,0,11,11,422,1,quigo,,,,
,,,,,,5e9133f704391d46ee2bcb31,676192165fb32c2e1fb7aee6,67d1fa2c96f754c4747da134,2025-03-12_18h19.02.693,Tarea de decisión léxica,2024.2.5,Win32,59.88023952,,,,,,,,,,,,,,,,,,,,,,,127.4059,128.4991,a,1,0.419,,0.419,1,128.4996,128.9987,,,,,,37,MAS,WORD,DIS,150,rato,,la,,128.9989,128.9992,0.141927083,0.444010417,0,0,0,,0,12,12,36,1,gaco,,,,
,,,,,,5e9133f704391d46ee2bcb31,676192165fb32c2e1fb7aee6,67d1fa2c96f754c4747da134,2025-03-12_18h19.02.693,Tarea de decisión léxica,2024.2.5,Win32,59.88023952,,,,,,,,,,,,,,,,,,,,,,,129.0022,130.0967,l,1,0.4252,,0.4252,1,130.0969,130.5977,,,,,,42,FEM,NOWORD,DIS,150,haje,,el,,130.5979,130.5983,0.141927083,0.444010417,0,0,0,,0,13,13,41,1,nave,,,,
,,,,,,5e9133f704391d46ee2bcb31,676192165fb32c2e1fb7aee6,67d1fa2c96f754c4747da134,2025-03-12_18h19.02.693,Tarea de decisión léxica,2024.2.5,Win32,59.88023952,,,,,,,,,,,,,,,,,,,,,,,130.6006,131.712,l,1,0.4442,,0.4442,1,131.7123,132.212,,,,,,24,FEM,NOWORD,AGR,150,giva,,la,,132.2123,132.2127,0.141927083,0.444010417,0,0,0,,0,14,14,23,1,hija,,,,
,,,,,,5e9133f704391d46ee2bcb31,676192165fb32c2e1fb7aee6,67d1fa2c96f754c4747da134,2025-03-12_18h19.02.693,Tarea de decisión léxica,2024.2.5,Win32,59.88023952,,,,,,,,,,,,,,,,,,,,,,,132.2146,133.3104,a,1,0.4262,,0.4262,1,133.3108,133.8114,,,,,,307,MAS,WORD,AGR,150,hotel,,el,,133.8116,133.812,0.141927083,0.444010417,0,0,0,,0,15,15,306,1,holol,,,,
,,,,,,5e9133f704391d46ee2bcb31,676192165fb32c2e1fb7aee6,67d1fa2c96f754c4747da134,2025-03-12_18h19.02.693,Tarea de decisión léxica,2024.2.5,Win32,59.88023952,,,,,,,,,,,,,,,,,,,,,,,133.815,134.9103,l,1,0.4219,,0.4219,1,134.9107,135.4091,,,,,,256,MAS,NOWORD,AGR,150,mauco,,el,,135.412,135.4129,0.141927083,0.444010417,0,0,0,,0,16,16,255,1,miedo,,,,
,,,,,,5e9133f704391d46ee2bcb31,676192165fb32c2e1fb7aee6,67d1fa2c96f754c4747da134,2025-03-12_18h19.02.693,Tarea de decisión léxica,2024.2.5,Win32,59.88023952,,,,,,,,,,,,,,,,,,,,,,,135.4139,136.5926,a,0,0.5088,,0.5088,0,136.5954,137.0919,,,,,,174,FEM,NOWORD,DIS,150,boma,,el,,137.0919,137.0922,0.141927083,0.444010417,0,0,0,,0,17,17,173,1,rosa,,,,
,,,,,,5e9133f704391d46ee2bcb31,676192165fb32c2e1fb7aee6,67d1fa2c96f754c4747da134,2025-03-12_18h19.02.693,Tarea de decisión léxica,2024.2.5,Win32,59.88023952,,,,,,,,,,,,,,,,,,,,,,,137.0951,138.2116,a,1,0.4493,,0.4493,1,138.2127,138.7052,,,,,,1,FEM,WORD,DIS,150,casa,,el,,138.7054,138.7057,0.141927083,0.444010417,0,0,0,,0,18,18,0,1,mada,,,,
,,,,,,5e9133f704391d46ee2bcb31,676192165fb32c2e1fb7aee6,67d1fa2c96f754c4747da134,2025-03-12_18h19.02.693,Tarea de decisión léxica,2024.2.5,Win32,59.88023952,,,,,,,,,,,,,,,,,,,,,,,138.7074,139.8882,l,1,0.5013,,0.5013,1,139.8887,140.3878,,,,,,80,FEM,NOWORD,AGR,150,ciel,,la,,140.388,140.3883,0.141927083,0.444010417,0,0,0,,0,19,19,79,1,piel,,,,
,,,,,,5e9133f704391d46ee2bcb31,676192165fb32c2e1fb7aee6,67d1fa2c96f754c4747da134,2025-03-12_18h19.02.693,Tarea de decisión léxica,2024.2.5,Win32,59.88023952,,,,,,,,,,,,,,,,,,,,,,,140.3905,141.553,l,1,0.4873,,0.4873,1,141.5534,142.0525,,,,,,232,FEM,NOWORD,AGR,150,heta,,la,,142.0528,142.0532,0.141927083,0.444010417,0,0,0,,0,20,20,231,1,bota,,,,
,,,,,,5e9133f704391d46ee2bcb31,676192165fb32c2e1fb7aee6,67d1fa2c96f754c4747da134,2025-03-12_18h19.02.693,Tarea de decisión léxica,2024.2.5,Win32,59.88023952,,,,,,,,,,,,,,,,,,,,,,,142.0557,143.2513,l,1,0.5184,,0.5184,1,143.2516,143.751,,,,,,366,FEM,NOWORD,DIS,150,gulla,,el,,143.7533,143.7542,0.141927083,0.444010417,0,0,0,,0,21,21,365,1,ducha,,,,
,,,,,,5e9133f704391d46ee2bcb31,676192165fb32c2e1fb7aee6,67d1fa2c96f754c4747da134,2025-03-12_18h19.02.693,Tarea de decisión léxica,2024.2.5,Win32,59.88023952,,,,,,,,,,,,,,,,,,,,,,,143.7551,144.8827,a,1,0.4588,,0.4588,1,144.8831,145.3829,,,,,,205,FEM,WORD,DIS,150,rana,,el,,145.3832,145.3835,0.141927083,0.444010417,0,0,0,,0,22,22,204,1,bara,,,,
,,,,,,5e9133f704391d46ee2bcb31,676192165fb32c2e1fb7aee6,67d1fa2c96f754c4747da134,2025-03-12_18h19.02.693,Tarea de decisión léxica,2024.2.5,Win32,59.88023952,,,,,,,,,,,,,,,,,,,,,,,145.3849,146.5143,a,1,0.458,,0.458,1,146.5144,147.0144,,,,,,387,FEM,WORD,AGR,150,crema,,la,,147.0147,147.0149,0.141927083,0.444010417,0,0,0,,0,23,23,386,1,bresa,,,,
,,,,,,5e9133f704391d46ee2bcb31,676192165fb32c2e1fb7aee6,67d1fa2c96f754c4747da134,2025-03-12_18h19.02.693,Tarea de decisión léxica,2024.2.5,Win32,59.88023952,,,,,,,,,,,,,,,,,,,,,,,147.0167,148.3965,l,1,0.6998,,0.6998,1,148.397,148.8956,,,,,,320,MAS,NOWORD,AGR,150,tuero,,el,,148.8958,148.8961,0.141927083,0.444010417,0,0,0,,0,24,24,319,1,suelo,,,,
,,,,,,5e9133f704391d46ee2bcb31,676192165fb32c2e1fb7aee6,67d1fa2c96f754c4747da134,2025-03-12_18h19.02.693,Tarea de decisión léxica,2024.2.5,Win32,59.88023952,,,,,,,,,,,,,,,,,,,,,,,148.898,150.0946,l,1,0.5241,,0.5241,1,150.095,150.595,,,,,,228,MAS,NOWORD,AGR,150,laro,,el,,150.5954,150.5958,0.141927083,0.444010417,0,0,0,,0,25,25,227,1,faro,,,,
,,,,,,5e9133f704391d46ee2bcb31,676192165fb32c2e1fb7aee6,67d1fa2c96f754c4747da134,2025-03-12_18h19.02.693,Tarea de decisión léxica,2024.2.5,Win32,59.88023952,,,,,,,,,,,,,,,,,,,,,,,150.5975,151.8764,a,1,0.6029,,0.6029,1,151.8768,152.3761,,,,,,57,MAS,WORD,DIS,150,dedo,,la,,152.3785,152.3796,0.141927083,0.444010417,0,0,0,,0,26,26,56,1,heco,,,,
,,,,,,5e9133f704391d46ee2bcb31,676192165fb32c2e1fb7aee6,67d1fa2c96f754c4747da134,2025-03-12_18h19.02.693,Tarea de decisión léxica,2024.2.5,Win32,59.88023952,,,,,,,,,,,,,,,,,,,,,,,152.3804,153.6073,l,1,0.5598,,0.5598,1,153.6077,154.1073,,,,,,226,MAS,NOWORD,DIS,150,boco,,la,,154.1077,154.1079,0.141927083,0.444010417,0,0,0,,0,27,27,225,1,lodo,,,,
,,,,,,5e9133f704391d46ee2bcb31,676192165fb32c2e1fb7aee6,67d1fa2c96f754c4747da134,2025-03-12_18h19.02.693,Tarea de decisión léxica,2024.2.5,Win32,59.88023952,,,,,,,,,,,,,,,,,,,,,,,154.1097,155.2726,l,1,0.4927,,0.4927,1,155.273,155.7723,,,,,,300,FEM,NOWORD,AGR,150,bosga,,la,,155.7723,155.7727,0.141927083,0.444010417,0,0,0,,0,28,28,299,1,bolsa,,,,
,,,,,,5e9133f704391d46ee2bcb31,676192165fb32c2e1fb7aee6,67d1fa2c96f754c4747da134,2025-03-12_18h19.02.693,Tarea de decisión léxica,2024.2.5,Win32,59.88023952,,,,,,,,,,,,,,,,,,,,,,,155.7753,156.939,l,1,0.4884,,0.4884,1,156.9393,157.4375,,,,,,420,MAS,NOWORD,AGR,150,chudo,,el,,157.4378,157.438,0.141927083,0.444010417,0,0,0,,0,29,29,419,1,truco,,,,
,,,,,,5e9133f704391d46ee2bcb31,676192165fb32c2e1fb7aee6,67d1fa2c96f754c4747da134,2025-03-12_18h19.02.693,Tarea de decisión léxica,2024.2.5,Win32,59.88023952,,,,,,,,,,,,,,,,,,,,,,,157.4395,158.5196,l,1,0.4035,,0.4035,1,158.52,159.0199,,,,,,382,MAS,NOWORD,DIS,150,nusor,,la,,159.0202,159.0205,0.141927083,0.444010417,0,0,0,,0,30,30,381,1,humor,,,,
,,,,,,5e9133f704391d46ee2bcb31,676192165fb32c2e1fb7aee6,67d1fa2c96f754c4747da134,2025-03-12_18h19.02.693,Tarea de decisión léxica,2024.2.5,Win32,59.88023952,,,,,,,,,,,,,,,,,,,,,,,159.0232,160.0369,l,0,0.338,,0.338,0,160.0391,160.5358,,,,,,311,MAS,WORD,AGR,150,honor,,el,,160.5395,160.5414,0.141927083,0.444010417,0,0,0,,0,31,31,310,1,nosor,,,,
,,,,,,5e9133f704391d46ee2bcb31,676192165fb32c2e1fb7aee6,67d1fa2c96f754c4747da134,2025-03-12_18h19.02.693,Tarea de decisión léxica,2024.2.5,Win32,59.88023952,,,,,,,,,,,,,,,,,,,,,,,160.5433,161.7332,l,1,0.5155,,0.5155,1,161.7351,162.2334,,,,,,306,MAS,NOWORD,DIS,150,adiol,,la,,162.2335,162.234,0.141927083,0.444010417,0,0,0,,0,32,32,305,1,avión,,,,
,,,,,,5e9133f704391d46ee2bcb31,676192165fb32c2e1fb7aee6,67d1fa2c96f754c4747da134,2025-03-12_18h19.02.693,Tarea de decisión léxica,2024.2.5,Win32,59.88023952,,,,,,,,,,,,,,,,,,,,,,,162.2368,163.3828,l,1,0.4673,,0.4673,1,163.3831,163.8846,,,,,,316,FEM,NOWORD,AGR,150,riosa,,la,,163.8847,163.8847,0.141927083,0.444010417,0,0,0,,0,33,33,315,1,reina,,,,
,,,,,,5e9133f704391d46ee2bcb31,676192165fb32c2e1fb7aee6,67d1fa2c96f754c4747da134,2025-03-12_18h19.02.693,Tarea de decisión léxica,2024.2.5,Win32,59.88023952,,,,,,,,,,,,,,,,,,,,,,,163.8861,165.0306,a,1,0.4761,,0.4761,1,165.0312,165.5293,,,,,,149,MAS,WORD,DIS,150,cabo,,la,,165.5296,165.5299,0.141927083,0.444010417,0,0,0,,0,34,34,148,1,pafo,,,,
,,,,,,5e9133f704391d46ee2bcb31,676192165fb32c2e1fb7aee6,67d1fa2c96f754c4747da134,2025-03-12_18h19.02.693,Tarea de decisión léxica,2024.2.5,Win32,59.88023952,,,,,,,,,,,,,,,,,,,,,,,165.5321,166.713,l,1,0.501,,0.501,1,166.7133,167.2126,,,,,,148,FEM,NOWORD,AGR,150,pama,,la,,167.2171,167.2193,0.141927083,0.444010417,0,0,0,,0,35,35,147,1,hoja,,,,
,,,,,,5e9133f704391d46ee2bcb31,676192165fb32c2e1fb7aee6,67d1fa2c96f754c4747da134,2025-03-12_18h19.02.693,Tarea de decisión léxica,2024.2.5,Win32,59.88023952,,,,,,,,,,,,,,,,,,,,,,,167.2215,168.3272,l,1,0.4358,,0.4358,1,168.3275,168.8273,,,,,,130,MAS,NOWORD,DIS,150,pima,,la,,168.8277,168.8281,0.141927083,0.444010417,0,0,0,,0,36,36,129,1,oído,,,,
,,,,,,5e9133f704391d46ee2bcb31,676192165fb32c2e1fb7aee6,67d1fa2c96f754c4747da134,2025-03-12_18h19.02.693,Tarea de decisión léxica,2024.2.5,Win32,59.88023952,,,,,,,,,,,,,,,,,,,,,,,168.8304,169.9924,l,1,0.488,,0.488,1,169.9928,170.4923,,,,,,192,FEM,NOWORD,AGR,150,bila,,la,,170.4926,170.4931,0.141927083,0.444010417,0,0,0,,0,37,37,191,1,pila,,,,
,,,,,,5e9133f704391d46ee2bcb31,676192165fb32c2e1fb7aee6,67d1fa2c96f754c4747da134,2025-03-12_18h19.02.693,Tarea de decisión léxica,2024.2.5,Win32,59.88023952,,,,,,,,,,,,,,,,,,,,,,,170.4956,171.6398,a,1,0.4698,,0.4698,1,171.6405,172.1397,,,,,,267,MAS,WORD,AGR,150,libro,,el,,172.1399,172.1402,0.141927083,0.444010417,0,0,0,,0,38,38,266,1,figro,,,,
,,,,,,5e9133f704391d46ee2bcb31,676192165fb32c2e1fb7aee6,67d1fa2c96f754c4747da134,2025-03-12_18h19.02.693,Tarea de decisión léxica,2024.2.5,Win32,59.88023952,,,,,,,,,,,,,,,,,,,,,,,172.143,173.3212,l,0,0.5094,,0.5094,0,173.3243,173.8211,,,,,,11,MAS,WORD,AGR,150,lado,,el,,173.8213,173.8216,0.141927083,0.444010417,0,0,0,,0,39,39,10,1,bapo,,,,
,,,,,,5e9133f704391d46ee2bcb31,676192165fb32c2e1fb7aee6,67d1fa2c96f754c4747da134,2025-03-12_18h19.02.693,Tarea de decisión léxica,2024.2.5,Win32,59.88023952,,,,,,,,,,,,,,,,,,,,,,,173.8234,175.0376,l,1,0.5407,,0.5407,1,175.0393,175.5366,,,,,,338,MAS,NOWORD,DIS,150,nuejo,,la,,175.5398,175.5405,0.141927083,0.444010417,0,0,0,,0,40,40,337,1,huevo,,,,
,,,,,,5e9133f704391d46ee2bcb31,676192165fb32c2e1fb7aee6,67d1fa2c96f754c4747da134,2025-03-12_18h19.02.693,Tarea de decisión léxica,2024.2.5,Win32,59.88023952,,,,,,,,,,,,,,,,,,,,,,,175.541,176.7857,l,1,0.575,,0.575,1,176.7862,177.2853,,,,,,258,FEM,NOWORD,DIS,150,asama,,el,,177.2854,177.2857,0.141927083,0.444010417,0,0,0,,0,41,41,257,1,amiga,,,,
,,,,,,5e9133f704391d46ee2bcb31,676192165fb32c2e1fb7aee6,67d1fa2c96f754c4747da134,2025-03-12_18h19.02.693,Tarea de decisión léxica,2024.2.5,Win32,59.88023952,,,,,,,,,,,,,,,,,,,,,,,177.2878,178.4503,a,1,0.4885,,0.4885,1,178.4506,178.9498,,,,,,147,FEM,WORD,AGR,150,hoja,,la,,178.9499,178.9502,0.141927083,0.444010417,0,0,0,,0,42,42,146,1,pama,,,,
,,,,,,5e9133f704391d46ee2bcb31,676192165fb32c2e1fb7aee6,67d1fa2c96f754c4747da134,2025-03-12_18h19.02.693,Tarea de decisión léxica,2024.2.5,Win32,59.88023952,,,,,,,,,,,,,,,,,,,,,,,178.9518,180.0993,a,1,0.4702,,0.4702,1,180.0997,180.5982,,,,,,221,FEM,WORD,DIS,150,mula,,el,,180.5984,180.5988,0.141927083,0.444010417,0,0,0,,0,43,43,220,1,puca,,,,
,,,,,,5e9133f704391d46ee2bcb31,676192165fb32c2e1fb7aee6,67d1fa2c96f754c4747da134,2025-03-12_18h19.02.693,Tarea de decisión léxica,2024.2.5,Win32,59.88023952,,,,,,,,,,,,,,,,,,,,,,,180.6006,181.6797,l,1,0.4039,,0.4039,1,181.6804,182.1798,,,,,,182,FEM,NOWORD,DIS,150,teda,,el,,182.1801,182.1803,0.141927083,0.444010417,0,0,0,,0,44,44,181,1,seda,,,,
,,,,,,5e9133f704391d46ee2bcb31,676192165fb32c2e1fb7aee6,67d1fa2c96f754c4747da134,2025-03-12_18h19.02.693,Tarea de decisión léxica,2024.2.5,Win32,59.88023952,,,,,,,,,,,,,,,,,,,,,,,182.1822,183.263,a,1,0.4009,,0.4009,1,183.2633,183.761,,,,,,133,FEM,WORD,DIS,150,vaca,,el,,183.7638,183.7645,0.141927083,0.444010417,0,0,0,,0,45,45,132,1,vesa,,,,
,,,,,,5e9133f704391d46ee2bcb31,676192165fb32c2e1fb7aee6,67d1fa2c96f754c4747da134,2025-03-12_18h19.02.693,Tarea de decisión léxica,2024.2.5,Win32,59.88023952,,,,,,,,,,,,,,,,,,,,,,,183.7656,184.9101,a,1,0.4718,,0.4718,1,184.9105,185.41,,,,,,265,FEM,WORD,DIS,150,mitad,,el,,185.4102,185.4104,0.141927083,0.444010417,0,0,0,,0,46,46,264,1,pitat,,,,
,,,,,,5e9133f704391d46ee2bcb31,676192165fb32c2e1fb7aee6,67d1fa2c96f754c4747da134,2025-03-12_18h19.02.693,Tarea de decisión léxica,2024.2.5,Win32,59.88023952,,,,,,,,,,,,,,,,,,,,,,,185.4122,186.5606,l,1,0.4734,,0.4734,1,186.5608,187.059,,,,,,108,MAS,NOWORD,AGR,150,raot,,el,,187.0593,187.0596,0.141927083,0.444010417,0,0,0,,0,47,47,107,1,saco,,,,
,,,,,,5e9133f704391d46ee2bcb31,676192165fb32c2e1fb7aee6,67d1fa2c96f754c4747da134,2025-03-12_18h19.02.693,Tarea de decisión léxica,2024.2.5,Win32,59.88023952,,,,,,,,,,,,,,,,,,,,,,,187.0616,188.1409,a,1,0.3959,,0.3959,1,188.1413,188.64,,,,,,339,MAS,WORD,AGR,150,brazo,,el,,188.6402,188.6405,0.141927083,0.444010417,0,0,0,,0,48,48,338,1,plajo,,,,
,,,,,,5e9133f704391d46ee2bcb31,676192165fb32c2e1fb7aee6,67d1fa2c96f754c4747da134,2025-03-12_18h19.02.693,Tarea de decisión léxica,2024.2.5,Win32,59.88023952,,,,,,,,,,,,,,,,,,,,,,,188.6424,189.8053,l,1,0.4893,,0.4893,1,189.8056,190.3056,,,,,,326,FEM,NOWORD,DIS,150,mabia,,el,,190.3058,190.306,0.141927083,0.444010417,0,0,0,,0,49,49,325,1,magia,,,,
,,,,,,5e9133f704391d46ee2bcb31,676192165fb32c2e1fb7aee6,67d1fa2c96f754c4747da134,2025-03-12_18h19.02.693,Tarea de decisión léxica,2024.2.5,Win32,59.88023952,,,,,,,,,,,,,,,,,,,,,,,190.3078,191.6057,a,0,0.619,,0.619,0,191.6076,192.1044,,,,,,64,FEM,NOWORD,AGR,150,funa,,la,,192.1077,192.1097,0.141927083,0.444010417,0,0,0,,0,50,50,63,1,luna,,,,
,,,,,,5e9133f704391d46ee2bcb31,676192165fb32c2e1fb7aee6,67d1fa2c96f754c4747da134,2025-03-12_18h19.02.693,Tarea de decisión léxica,2024.2.5,Win32,59.88023952,,,,,,,,,,,,,,,,,,,,,,,192.1116,193.4691,a,1,0.69,,0.69,1,193.471,193.9683,,,,,,459,MAS,WORD,AGR,150,grado,,el,,193.9687,193.9694,0.141927083,0.444010417,0,0,0,,0,51,51,458,1,fraco,,,,
,,,,,,5e9133f704391d46ee2bcb31,676192165fb32c2e1fb7aee6,67d1fa2c96f754c4747da134,2025-03-12_18h19.02.693,Tarea de decisión léxica,2024.2.5,Win32,59.88023952,,,,,,,,,,,,,,,,,,,,,,,193.9711,195.2182,l,1,0.573,,0.573,1,195.2185,195.7168,,,,,,322,MAS,NOWORD,DIS,150,rarco,,la,,195.7171,195.7173,0.141927083,0.444010417,0,0,0,,0,52,52,321,1,banco,,,,
,,,,,,5e9133f704391d46ee2bcb31,676192165fb32c2e1fb7aee6,67d1fa2c96f754c4747da134,2025-03-12_18h19.02.693,Tarea de decisión léxica,2024.2.5,Win32,59.88023952,,,,,,,,,,,,,,,,,,,,,,,195.7198,196.9816,l,1,0.5862,,0.5862,1,196.9821,197.4821,,,,,,30,MAS,NOWORD,DIS,150,pono,,la,,197.4823,197.4827,0.141927083,0.444010417,0,0,0,,0,53,53,29,1,modo,,,,
,,,,,,5e9133f704391d46ee2bcb31,676192165fb32c2e1fb7aee6,67d1fa2c96f754c4747da134,2025-03-12_18h19.02.693,Tarea de decisión léxica,2024.2.5,Win32,59.88023952,,,,,,,,,,,,,,,,,,,,,,,197.4844,198.5977,a,1,0.4338,,0.4338,1,198.598,199.0978,,,,,,457,MAS,WORD,DIS,150,plato,,la,,199.0981,199.0986,0.141927083,0.444010417,0,0,0,,0,54,54,456,1,glaco,,,,
,,,,,,5e9133f704391d46ee2bcb31,676192165fb32c2e1fb7aee6,67d1fa2c96f754c4747da134,2025-03-12_18h19.02.693,Tarea de decisión léxica,2024.2.5,Win32,59.88023952,,,,,,,,,,,,,,,,,,,,,,,199.1005,200.495,l,1,0.7264,,0.7264,1,200.4955,200.9957,,,,,,360,MAS,NOWORD,AGR,150,cacer,,el,,200.998,200.9993,0.141927083,0.444010417,0,0,0,,0,55,55,359,1,calor,,,,
,,,,,,5e9133f704391d46ee2bcb31,676192165fb32c2e1fb7aee6,67d1fa2c96f754c4747da134,2025-03-12_18h19.02.693,Tarea de decisión léxica,2024.2.5,Win32,59.88023952,,,,,,,,,,,,,,,,,,,,,,,201.0007,202.1602,a,1,0.4841,,0.4841,1,202.1607,202.6594,,,,,,425,FEM,WORD,DIS,150,viuda,,el,,202.6594,202.6596,0.141927083,0.444010417,0,0,0,,0,56,56,424,1,virca,,,,
,,,,,,5e9133f704391d46ee2bcb31,676192165fb32c2e1fb7aee6,67d1fa2c96f754c4747da134,2025-03-12_18h19.02.693,Tarea de decisión léxica,2024.2.5,Win32,59.88023952,,,,,,,,,,,,,,,,,,,,,,,202.6618,203.8091,l,1,0.4751,,0.4751,1,203.8095,204.3076,,,,,,372,FEM,NOWORD,AGR,150,mosta,,la,,204.3077,204.3079,0.141927083,0.444010417,0,0,0,,0,57,57,371,1,pasta,,,,
,,,,,,5e9133f704391d46ee2bcb31,676192165fb32c2e1fb7aee6,67d1fa2c96f754c4747da134,2025-03-12_18h19.02.693,Tarea de decisión léxica,2024.2.5,Win32,59.88023952,,,,,,,,,,,,,,,,,,,,,,,204.3103,205.4742,a,1,0.4834,,0.4834,1,205.4749,205.9733,,,,,,309,FEM,WORD,DIS,150,silla,,el,,205.9736,205.9738,0.141927083,0.444010417,0,0,0,,0,58,58,308,1,tirra,,,,
,,,,,,5e9133f704391d46ee2bcb31,676192165fb32c2e1fb7aee6,67d1fa2c96f754c4747da134,2025-03-12_18h19.02.693,Tarea de decisión léxica,2024.2.5,Win32,59.88023952,,,,,,,,,,,,,,,,,,,,,,,205.9754,207.206,l,1,0.5514,,0.5514,1,207.2064,207.71,,,,,,290,FEM,NOWORD,DIS,150,bumpa,,el,,207.7127,207.7143,0.141927083,0.444010417,0,0,0,,0,59,59,289,1,bomba,,,,
,,,,,,5e9133f704391d46ee2bcb31,676192165fb32c2e1fb7aee6,67d1fa2c96f754c4747da134,2025-03-12_18h19.02.693,Tarea de decisión léxica,2024.2.5,Win32,59.88023952,,,,,,,,,,,,,,,,,,,,,,,207.7159,208.9035,a,1,0.526,,0.526,1,208.9041,209.4041,,,,,,285,MAS,WORD,DIS,150,error,,la,,209.4042,209.4045,0.141927083,0.444010417,0,0,0,,0,60,60,284,1,echor,,,,
,,,,,,5e9133f704391d46ee2bcb31,676192165fb32c2e1fb7aee6,67d1fa2c96f754c4747da134,2025-03-12_18h19.02.693,Tarea de decisión léxica,2024.2.5,Win32,59.88023952,,,,,,,,,,,,,,,,,,,,,,,209.4063,210.6188,a,1,0.533,,0.533,1,210.619,211.1177,,,,,,197,MAS,WORD,DIS,150,bate,,la,,211.1178,211.1181,0.141927083,0.444010417,0,0,0,,0,61,61,196,1,dade,,,,
,,,,,,5e9133f704391d46ee2bcb31,676192165fb32c2e1fb7aee6,67d1fa2c96f754c4747da134,2025-03-12_18h19.02.693,Tarea de decisión léxica,2024.2.5,Win32,59.88023952,,,,,,,,,,,,,,,,,,,,,,,211.1203,212.2508,a,1,0.45,,0.45,1,212.2511,212.7509,,,,,,131,FEM,WORD,AGR,150,mina,,la,,212.7518,212.752,0.141927083,0.444010417,0,0,0,,0,62,62,130,1,fada,,,,
,,,,,,5e9133f704391d46ee2bcb31,676192165fb32c2e1fb7aee6,67d1fa2c96f754c4747da134,2025-03-12_18h19.02.693,Tarea de decisión léxica,2024.2.5,Win32,59.88023952,,,,,,,,,,,,,,,,,,,,,,,212.7536,213.821,a,1,0.3994,,0.3994,1,213.8212,214.315,,,,,,251,MAS,WORD,AGR,150,señor,,el,,214.3151,214.3152,0.141927083,0.444010417,0,0,0,,0,63,63,250,1,refor,,,,
,,,,,,5e9133f704391d46ee2bcb31,676192165fb32c2e1fb7aee6,67d1fa2c96f754c4747da134,2025-03-12_18h19.02.693,Tarea de decisión léxica,2024.2.5,Win32,59.88023952,,,,,,,,,,,,,,,,,,,,,,,214.3173,215.4136,a,1,0.4237,,0.4237,1,215.4139,215.9143,,,,,,99,MAS,WORD,AGR,150,lobo,,el,,215.9165,215.9176,0.141927083,0.444010417,0,0,0,,0,64,64,98,1,soro,,,,
,,,,,,5e9133f704391d46ee2bcb31,676192165fb32c2e1fb7aee6,67d1fa2c96f754c4747da134,2025-03-12_18h19.02.693,Tarea de decisión léxica,2024.2.5,Win32,59.88023952,,,,,,,,,,,,,,,,,,,,,,,215.9187,217.1128,l,1,0.5165,,0.5165,1,217.113,217.6122,,,,,,58,MAS,NOWORD,DIS,150,heco,,la,,217.6124,217.6126,0.141927083,0.444010417,0,0,0,,0,65,65,57,1,dedo,,,,
,,,,,,5e9133f704391d46ee2bcb31,676192165fb32c2e1fb7aee6,67d1fa2c96f754c4747da134,2025-03-12_18h19.02.693,Tarea de decisión léxica,2024.2.5,Win32,59.88023952,,,,,,,,,,,,,,,,,,,,,,,217.6145,218.8447,l,1,0.5508,,0.5508,1,218.8451,219.3446,,,,,,314,MAS,NOWORD,DIS,150,govio,,la,,219.3448,219.3452,0.141927083,0.444010417,0,0,0,,0,66,66,313,1,novio,,,,
,,,,,,5e9133f704391d46ee2bcb31,676192165fb32c2e1fb7aee6,67d1fa2c96f754c4747da134,2025-03-12_18h19.02.693,Tarea de decisión léxica,2024.2.5,Win32,59.88023952,,,,,,,,,,,,,,,,,,,,,,,219.348,220.5761,a,1,0.5554,,0.5554,1,220.5764,221.075,,,,,,475,FEM,WORD,AGR,150,manta,,la,,221.0751,221.0753,0.141927083,0.444010417,0,0,0,,0,67,67,474,1,mucta,,,,
,,,,,,5e9133f704391d46ee2bcb31,676192165fb32c2e1fb7aee6,67d1fa2c96f754c4747da134,2025-03-12_18h19.02.693,Tarea de decisión léxica,2024.2.5,Win32,59.88023952,,,,,,,,,,,,,,,,,,,,,,,221.0773,222.2909,l,1,0.5571,,0.5571,1,222.2912,222.7896,,,,,,86,MAS,NOWORD,DIS,150,babo,,la,,222.7897,222.7899,0.141927083,0.444010417,0,0,0,,0,68,68,85,1,lago,,,,
,,,,,,5e9133f704391d46ee2bcb31,676192165fb32c2e1fb7aee6,67d1fa2c96f754c4747da134,2025-03-12_18h19.02.693,Tarea de decisión léxica,2024.2.5,Win32,59.88023952,,,,,,,,,,,,,,,,,,,,,,,222.7922,223.8386,a,1,0.3761,,0.3761,1,223.8387,224.3389,,,,,,213,FEM,WORD,DIS,150,rama,,el,,224.3411,224.342,0.141927083,0.444010417,0,0,0,,0,69,69,212,1,bana,,,,
,,,,,,5e9133f704391d46ee2bcb31,676192165fb32c2e1fb7aee6,67d1fa2c96f754c4747da134,2025-03-12_18h19.02.693,Tarea de decisión léxica,2024.2.5,Win32,59.88023952,,,,,,,,,,,,,,,,,,,,,,,224.3428,225.522,l,1,0.5054,,0.5054,1,225.5224,226.0204,,,,,,220,FEM,NOWORD,AGR,150,miva,,la,,226.0206,226.0209,0.141927083,0.444010417,0,0,0,,0,70,70,219,1,pipa,,,,
,,,,,,5e9133f704391d46ee2bcb31,676192165fb32c2e1fb7aee6,67d1fa2c96f754c4747da134,2025-03-12_18h19.02.693,Tarea de decisión léxica,2024.2.5,Win32,59.88023952,,,,,,,,,,,,,,,,,,,,,,,226.0231,227.0533,l,1,0.358,,0.358,1,227.0536,227.5534,,,,,,170,MAS,NOWORD,DIS,150,mibo,,la,,227.5535,227.554,0.141927083,0.444010417,0,0,0,,0,71,71,169,1,cubo,,,,
,,,,,,5e9133f704391d46ee2bcb31,676192165fb32c2e1fb7aee6,67d1fa2c96f754c4747da134,2025-03-12_18h19.02.693,Tarea de decisión léxica,2024.2.5,Win32,59.88023952,,,,,,,,,,,,,,,,,,,,,,,227.5571,228.6189,a,1,0.3839,,0.3839,1,228.6193,229.1185,,,,,,371,FEM,WORD,AGR,150,pasta,,la,,229.1187,229.1192,0.141927083,0.444010417,0,0,0,,0,72,72,370,1,mosta,,,,
,,,,,,5e9133f704391d46ee2bcb31,676192165fb32c2e1fb7aee6,67d1fa2c96f754c4747da134,2025-03-12_18h19.02.693,Tarea de decisión léxica,2024.2.5,Win32,59.88023952,,,,,,,,,,,,,,,,,,,,,,,229.1221,230.1686,l,1,0.3773,,0.3773,1,230.1688,230.6666,,,,,,328,MAS,NOWORD,AGR,150,lendo,,el,,230.6669,230.6674,0.141927083,0.444010417,0,0,0,,0,73,73,327,1,fondo,,,,
,,,,,,5e9133f704391d46ee2bcb31,676192165fb32c2e1fb7aee6,67d1fa2c96f754c4747da134,2025-03-12_18h19.02.693,Tarea de decisión léxica,2024.2.5,Win32,59.88023952,,,,,,,,,,,,,,,,,,,,,,,230.6712,231.6978,a,0,0.3552,,0.3552,0,231.6999,232.1974,,,,,,92,FEM,NOWORD,AGR,150,sava,,la,,232.1999,232.2008,0.141927083,0.444010417,0,0,0,,0,74,74,91,1,taza,,,,
,,,,,,5e9133f704391d46ee2bcb31,676192165fb32c2e1fb7aee6,67d1fa2c96f754c4747da134,2025-03-12_18h19.02.693,Tarea de decisión léxica,2024.2.5,Win32,59.88023952,,,,,,,,,,,,,,,,,,,,,,,232.2017,233.4635,l,1,0.5899,,0.5899,1,233.4651,233.9624,,,,,,332,MAS,NOWORD,AGR,150,erato,,el,,233.9626,233.9628,0.141927083,0.444010417,0,0,0,,0,75,75,331,1,éxito,,,,
,,,,,,5e9133f704391d46ee2bcb31,676192165fb32c2e1fb7aee6,67d1fa2c96f754c4747da134,2025-03-12_18h19.02.693,Tarea de decisión léxica,2024.2.5,Win32,59.88023952,,,,,,,,,,,,,,,,,,,,,,,233.9646,235.0945,l,1,0.4505,,0.4505,1,235.0946,235.5947,,,,,,418,FEM,NOWORD,DIS,150,banja,,el,,235.595,235.5954,0.141927083,0.444010417,0,0,0,,0,76,76,417,1,barba,,,,
,,,,,,5e9133f704391d46ee2bcb31,676192165fb32c2e1fb7aee6,67d1fa2c96f754c4747da134,2025-03-12_18h19.02.693,Tarea de decisión léxica,2024.2.5,Win32,59.88023952,,,,,,,,,,,,,,,,,,,,,,,235.5972,236.7262,l,1,0.4584,,0.4584,1,236.7265,237.2265,,,,,,244,MAS,NOWORD,AGR,150,asamo,,el,,237.2268,237.2272,0.141927083,0.444010417,0,0,0,,0,77,77,243,1,amigo,,,,
,,,,,,5e9133f704391d46ee2bcb31,676192165fb32c2e1fb7aee6,67d1fa2c96f754c4747da134,2025-03-12_18h19.02.693,Tarea de decisión léxica,2024.2.5,Win32,59.88023952,,,,,,,,,,,,,,,,,,,,,,,237.2289,238.358,a,1,0.458,,0.458,1,238.3583,238.8576,,,,,,385,FEM,WORD,DIS,150,letra,,el,,238.8577,238.8577,0.141927083,0.444010417,0,0,0,,0,78,78,384,1,febra,,,,
,,,,,,5e9133f704391d46ee2bcb31,676192165fb32c2e1fb7aee6,67d1fa2c96f754c4747da134,2025-03-12_18h19.02.693,Tarea de decisión léxica,2024.2.5,Win32,59.88023952,,,,,,,,,,,,,,,,,,,,,,,238.8599,239.923,l,0,0.3911,,0.3911,0,239.9251,240.4233,,,,,,125,MAS,WORD,DIS,150,lujo,,la,,240.4255,240.4264,0.141927083,0.444010417,0,0,0,,0,79,79,124,1,vudo,,,,
,,,,,,5e9133f704391d46ee2bcb31,676192165fb32c2e1fb7aee6,67d1fa2c96f754c4747da134,2025-03-12_18h19.02.693,Tarea de decisión léxica,2024.2.5,Win32,59.88023952,,,,,,,,,,,,,,,,,,,,,,,240.4272,241.5551,a,1,0.4553,,0.4553,1,241.5571,242.0544,,,,,,315,FEM,WORD,AGR,150,reina,,la,,242.0545,242.0546,0.141927083,0.444010417,0,0,0,,0,80,80,314,1,riosa,,,,
,,,,,,5e9133f704391d46ee2bcb31,676192165fb32c2e1fb7aee6,67d1fa2c96f754c4747da134,2025-03-12_18h19.02.693,Tarea de decisión léxica,2024.2.5,Win32,59.88023952,,,,,,,,,,,,,,,,,,,,,,,242.0567,243.154,a,1,0.417,,0.417,1,243.1543,243.6528,,,,,,199,MAS,WORD,AGR,150,lazo,,el,,243.6529,243.6533,0.141927083,0.444010417,0,0,0,,0,81,81,198,1,fano,,,,
,,,,,,5e9133f704391d46ee2bcb31,676192165fb32c2e1fb7aee6,67d1fa2c96f754c4747da134,2025-03-12_18h19.02.693,Tarea de decisión léxica,2024.2.5,Win32,59.88023952,,,,,,,,,,,,,,,,,,,,,,,243.6551,244.6693,a,1,0.3418,,0.3418,1,244.6697,245.1678,,,,,,295,MAS,WORD,AGR,150,dolor,,el,,245.1678,245.1679,0.141927083,0.444010417,0,0,0,,0,82,82,294,1,goler,,,,
,,,,,,5e9133f704391d46ee2bcb31,676192165fb32c2e1fb7aee6,67d1fa2c96f754c4747da134,2025-03-12_18h19.02.693,Tarea de decisión léxica,2024.2.5,Win32,59.88023952,,,,,,,,,,,,,,,,,,,,,,,245.1708,246.267,l,1,0.42,,0.42,1,246.2671,246.7672,,,,,,224,FEM,NOWORD,AGR,150,cira,,la,,246.7694,246.7702,0.141927083,0.444010417,0,0,0,,0,83,83,223,1,cera,,,,
,,,,,,5e9133f704391d46ee2bcb31,676192165fb32c2e1fb7aee6,67d1fa2c96f754c4747da134,2025-03-12_18h19.02.693,Tarea de decisión léxica,2024.2.5,Win32,59.88023952,,,,,,,,,,,,,,,,,,,,,,,246.771,247.948,a,0,0.5014,,0.5014,0,247.9503,248.4483,,,,,,336,FEM,NOWORD,AGR,150,pesta,,la,,248.4485,248.449,0.141927083,0.444010417,0,0,0,,0,84,84,335,1,costa,,,,
,,,,,,5e9133f704391d46ee2bcb31,676192165fb32c2e1fb7aee6,67d1fa2c96f754c4747da134,2025-03-12_18h19.02.693,Tarea de decisión léxica,2024.2.5,Win32,59.88023952,,,,,,,,,,,,,,,,,,,,,,,248.4508,249.6808,l,1,0.5508,,0.5508,1,249.6824,250.1797,,,,,,188,MAS,NOWORD,AGR,150,suto,,el,,250.1798,250.1803,0.141927083,0.444010417,0,0,0,,0,85,85,187,1,mito,,,,
,,,,,,5e9133f704391d46ee2bcb31,676192165fb32c2e1fb7aee6,67d1fa2c96f754c4747da134,2025-03-12_18h19.02.693,Tarea de decisión léxica,2024.2.5,Win32,59.88023952,,,,,,,,,,,,,,,,,,,,,,,250.1826,251.6298,l,1,0.7717,,0.7717,1,251.6302,252.1299,,,,,,460,MAS,NOWORD,AGR,150,fraco,,el,,252.1304,252.1309,0.141927083,0.444010417,0,0,0,,0,86,86,459,1,grado,,,,
,,,,,,5e9133f704391d46ee2bcb31,676192165fb32c2e1fb7aee6,67d1fa2c96f754c4747da134,2025-03-12_18h19.02.693,Tarea de decisión léxica,2024.2.5,Win32,59.88023952,,,,,,,,,,,,,,,,,,,,,,,252.1339,253.1611,l,1,0.3502,,0.3502,1,253.1614,253.6607,,,,,,88,MAS,NOWORD,AGR,150,damo,,el,,253.6608,253.6612,0.141927083,0.444010417,0,0,0,,0,87,87,87,1,vaso,,,,
,,,,,,5e9133f704391d46ee2bcb31,676192165fb32c2e1fb7aee6,67d1fa2c96f754c4747da134,2025-03-12_18h19.02.693,Tarea de decisión léxica,2024.2.5,Win32,59.88023952,,,,,,,,,,,,,,,,,,,,,,,253.6628,254.9095,a,1,0.5692,,0.5692,1,254.9098,255.4078,,,,,,329,MAS,WORD,DIS,150,hueso,,la,,255.4104,255.4113,0.141927083,0.444010417,0,0,0,,0,88,88,328,1,nueno,,,,
,,,,,,5e9133f704391d46ee2bcb31,676192165fb32c2e1fb7aee6,67d1fa2c96f754c4747da134,2025-03-12_18h19.02.693,Tarea de decisión léxica,2024.2.5,Win32,59.88023952,,,,,,,,,,,,,,,,,,,,,,,255.4121,256.5231,a,0,0.4354,,0.4354,0,256.5253,257.0233,,,,,,82,FEM,NOWORD,DIS,150,vasa,,el,,257.0236,257.0239,0.141927083,0.444010417,0,0,0,,0,89,89,81,1,dama,,,,
,,,,,,5e9133f704391d46ee2bcb31,676192165fb32c2e1fb7aee6,67d1fa2c96f754c4747da134,2025-03-12_18h19.02.693,Tarea de decisión léxica,2024.2.5,Win32,59.88023952,,,,,,,,,,,,,,,,,,,,,,,257.0258,258.1053,l,1,0.4091,,0.4091,1,258.1076,258.6051,,,,,,254,MAS,NOWORD,DIS,150,trido,,la,,258.6054,258.6056,0.141927083,0.444010417,0,0,0,,0,90,90,253,1,chico,,,,
,,,,,,5e9133f704391d46ee2bcb31,676192165fb32c2e1fb7aee6,67d1fa2c96f754c4747da134,2025-03-12_18h19.02.693,Tarea de decisión léxica,2024.2.5,Win32,59.88023952,,,,,,,,,,,,,,,,,,,,,,,258.6076,259.771,a,1,0.4852,,0.4852,1,259.7712,260.2706,,,,,,347,FEM,WORD,AGR,150,pieza,,la,,260.2708,260.2713,0.141927083,0.444010417,0,0,0,,0,91,91,346,1,mueza,,,,
,,,,,,5e9133f704391d46ee2bcb31,676192165fb32c2e1fb7aee6,67d1fa2c96f754c4747da134,2025-03-12_18h19.02.693,Tarea de decisión léxica,2024.2.5,Win32,59.88023952,,,,,,,,,,,,,,,,,,,,,,,260.2729,261.4531,l,1,0.5032,,0.5032,1,261.4534,261.9516,,,,,,198,MAS,NOWORD,DIS,150,dade,,la,,261.9519,261.9523,0.141927083,0.444010417,0,0,0,,0,92,92,197,1,bate,,,,
,,,,,,5e9133f704391d46ee2bcb31,676192165fb32c2e1fb7aee6,67d1fa2c96f754c4747da134,2025-03-12_18h19.02.693,Tarea de decisión léxica,2024.2.5,Win32,59.88023952,,,,,,,,,,,,,,,,,,,,,,,261.9548,263.0675,l,1,0.4446,,0.4446,1,263.0677,263.5675,,,,,,390,MAS,NOWORD,DIS,150,cenco,,la,,263.5697,263.5706,0.141927083,0.444010417,0,0,0,,0,93,93,389,1,cerdo,,,,
,,,,,,5e9133f704391d46ee2bcb31,676192165fb32c2e1fb7aee6,67d1fa2c96f754c4747da134,2025-03-12_18h19.02.693,Tarea de decisión léxica,2024.2.5,Win32,59.88023952,,,,,,,,,,,,,,,,,,,,,,,263.5716,264.6329,l,1,0.3852,,0.3852,1,264.6333,265.1332,,,,,,202,FEM,NOWORD,DIS,150,cusa,,el,,265.1334,265.1336,0.141927083,0.444010417,0,0,0,,0,94,94,201,1,cuna,,,,
,,,,,,5e9133f704391d46ee2bcb31,676192165fb32c2e1fb7aee6,67d1fa2c96f754c4747da134,2025-03-12_18h19.02.693,Tarea de decisión léxica,2024.2.5,Win32,59.88023952,,,,,,,,,,,,,,,,,,,,,,,265.1359,266.4984,a,1,0.6827,,0.6827,1,266.4987,266.9973,,,,,,255,MAS,WORD,AGR,150,miedo,,el,,266.9975,266.9977,0.141927083,0.444010417,0,0,0,,0,95,95,254,1,mauco,,,,
,,,,,,5e9133f704391d46ee2bcb31,676192165fb32c2e1fb7aee6,67d1fa2c96f754c4747da134,2025-03-12_18h19.02.693,Tarea de decisión léxica,2024.2.5,Win32,59.88023952,,,,,,,,,,,,,,,,,,,,,,,266.9996,268.529,a,1,0.8496,,0.8496,1,268.5292,269.0285,,,,,,35,MAS,WORD,AGR,150,pelo,,el,,269.0286,269.0289,0.141927083,0.444010417,0,0,0,,0,96,96,34,1,meno,,,,
,,,,,,5e9133f704391d46ee2bcb31,676192165fb32c2e1fb7aee6,67d1fa2c96f754c4747da134,2025-03-12_18h19.02.693,Tarea de decisión léxica,2024.2.5,Win32,59.88023952,,,,,,,,,,,,,,,,,,,,,,,269.0329,270.111,l,1,0.4078,,0.4078,1,270.1114,270.6097,,,,,,410,MAS,NOWORD,DIS,150,pafro,,la,,270.61,270.6103,0.141927083,0.444010417,0,0,0,,0,97,97,409,1,carro,,,,
,,,,,,5e9133f704391d46ee2bcb31,676192165fb32c2e1fb7aee6,67d1fa2c96f754c4747da134,2025-03-12_18h19.02.693,Tarea de decisión léxica,2024.2.5,Win32,59.88023952,,,,,,,,,,,,,,,,,,,,,,,270.6121,271.6437,l,0,0.3517,,0.3517,0,271.6457,272.1431,,,,,,217,MAS,WORD,DIS,150,luto,,la,,272.1459,272.1477,0.141927083,0.444010417,0,0,0,,0,98,98,216,1,budo,,,,
,,,,,,5e9133f704391d46ee2bcb31,676192165fb32c2e1fb7aee6,67d1fa2c96f754c4747da134,2025-03-12_18h19.02.693,Tarea de decisión léxica,2024.2.5,Win32,59.88023952,,,,,,,,,,,,,,,,,,,,,,,272.1496,273.1748,a,1,0.3549,,0.3549,1,273.1765,273.6737,,,,,,33,FEM,WORD,DIS,150,boca,,el,,273.6739,273.6742,0.141927083,0.444010417,0,0,0,,0,99,99,32,1,loda,,,,
,,,,,,5e9133f704391d46ee2bcb31,676192165fb32c2e1fb7aee6,67d1fa2c96f754c4747da134,2025-03-12_18h19.02.693,Tarea de decisión léxica,2024.2.5,Win32,59.88023952,,,,,,,,,,,,,,,,,,,,,,,273.6761,274.7901,l,1,0.4412,,0.4412,1,274.7904,275.2886,,,,,,74,MAS,NOWORD,DIS,150,omio,,la,,275.2888,275.2891,0.141927083,0.444010417,0,0,0,,0,100,100,73,1,odio,,,,
,,,,,,5e9133f704391d46ee2bcb31,676192165fb32c2e1fb7aee6,67d1fa2c96f754c4747da134,2025-03-12_18h19.02.693,Tarea de decisión léxica,2024.2.5,Win32,59.88023952,,,,,,,,,,,,,,,,,,,,,,,275.2912,276.5212,l,0,0.5503,,0.5503,0,276.5228,277.0207,,,,,,119,MAS,WORD,AGR,150,pozo,,el,,277.0209,277.0211,0.141927083,0.444010417,0,0,0,,0,101,101,118,1,hooy,,,,
,,,,,,5e9133f704391d46ee2bcb31,676192165fb32c2e1fb7aee6,67d1fa2c96f754c4747da134,2025-03-12_18h19.02.693,Tarea de decisión léxica,2024.2.5,Win32,59.88023952,,,,,,,,,,,,,,,,,,,,,,,277.0227,278.2199,a,1,0.5167,,0.5167,1,278.2216,278.7192,,,,,,241,MAS,WORD,DIS,150,mundo,,la,,278.7192,278.7197,0.141927083,0.444010417,0,0,0,,0,102,102,240,1,mirdo,,,,
,,,,,,5e9133f704391d46ee2bcb31,676192165fb32c2e1fb7aee6,67d1fa2c96f754c4747da134,2025-03-12_18h19.02.693,Tarea de decisión léxica,2024.2.5,Win32,59.88023952,,,,,,,,,,,,,,,,,,,,,,,278.721,279.818,a,1,0.4258,,0.4258,1,279.8182,280.3178,,,,,,111,MAS,WORD,AGR,150,muro,,el,,280.3206,280.3215,0.141927083,0.444010417,0,0,0,,0,103,103,110,1,siro,,,,
,,,,,,5e9133f704391d46ee2bcb31,676192165fb32c2e1fb7aee6,67d1fa2c96f754c4747da134,2025-03-12_18h19.02.693,Tarea de decisión léxica,2024.2.5,Win32,59.88023952,,,,,,,,,,,,,,,,,,,,,,,280.3225,281.3833,a,1,0.3851,,0.3851,1,281.3837,281.8828,,,,,,357,FEM,WORD,DIS,150,bruja,,el,,281.883,281.8832,0.141927083,0.444010417,0,0,0,,0,104,104,356,1,gruba,,,,
,,,,,,5e9133f704391d46ee2bcb31,676192165fb32c2e1fb7aee6,67d1fa2c96f754c4747da134,2025-03-12_18h19.02.693,Tarea de decisión léxica,2024.2.5,Win32,59.88023952,,,,,,,,,,,,,,,,,,,,,,,281.8848,283.1481,l,1,0.5808,,0.5808,1,283.1483,283.6474,,,,,,278,MAS,NOWORD,DIS,150,vuemo,,la,,283.6476,283.6478,0.141927083,0.444010417,0,0,0,,0,105,105,277,1,fuego,,,,
,,,,,,5e9133f704391d46ee2bcb31,676192165fb32c2e1fb7aee6,67d1fa2c96f754c4747da134,2025-03-12_18h19.02.693,Tarea de decisión léxica,2024.2.5,Win32,59.88023952,,,,,,,,,,,,,,,,,,,,,,,283.6495,284.7638,a,1,0.4372,,0.4372,1,284.7641,285.2638,,,,,,319,MAS,WORD,AGR,150,suelo,,el,,285.2641,285.2643,0.141927083,0.444010417,0,0,0,,0,106,106,318,1,tuero,,,,
,,,,,,5e9133f704391d46ee2bcb31,676192165fb32c2e1fb7aee6,67d1fa2c96f754c4747da134,2025-03-12_18h19.02.693,Tarea de decisión léxica,2024.2.5,Win32,59.88023952,,,,,,,,,,,,,,,,,,,,,,,285.2673,286.3953,l,1,0.4511,,0.4511,1,286.3958,286.8946,,,,,,78,MAS,NOWORD,DIS,150,fodo,,la,,286.8969,286.8977,0.141927083,0.444010417,0,0,0,,0,107,107,77,1,loco,,,,
,,,,,,5e9133f704391d46ee2bcb31,676192165fb32c2e1fb7aee6,67d1fa2c96f754c4747da134,2025-03-12_18h19.02.693,Tarea de decisión léxica,2024.2.5,Win32,59.88023952,,,,,,,,,,,,,,,,,,,,,,,286.8985,287.9596,a,1,0.3931,,0.3931,1,287.9599,288.4595,,,,,,263,FEM,WORD,AGR,150,vista,,la,,288.4597,288.4599,0.141927083,0.444010417,0,0,0,,0,108,108,262,1,dosta,,,,
,,,,,,5e9133f704391d46ee2bcb31,676192165fb32c2e1fb7aee6,67d1fa2c96f754c4747da134,2025-03-12_18h19.02.693,Tarea de decisión léxica,2024.2.5,Win32,59.88023952,,,,,,,,,,,,,,,,,,,,,,,288.4624,289.6087,a,1,0.4668,,0.4668,1,289.6089,290.1081,,,,,,235,FEM,WORD,AGR,150,grúa,,la,,290.1082,290.1085,0.141927083,0.444010417,0,0,0,,0,109,109,234,1,tria,,,,
,,,,,,5e9133f704391d46ee2bcb31,676192165fb32c2e1fb7aee6,67d1fa2c96f754c4747da134,2025-03-12_18h19.02.693,Tarea de decisión léxica,2024.2.5,Win32,59.88023952,,,,,,,,,,,,,,,,,,,,,,,290.1102,291.1741,a,1,0.3883,,0.3883,1,291.1744,291.6729,,,,,,341,MAS,WORD,DIS,150,valor,,la,,291.673,291.6733,0.141927083,0.444010417,0,0,0,,0,110,110,340,1,daror,,,,
,,,,,,5e9133f704391d46ee2bcb31,676192165fb32c2e1fb7aee6,67d1fa2c96f754c4747da134,2025-03-12_18h19.02.693,Tarea de decisión léxica,2024.2.5,Win32,59.88023952,,,,,,,,,,,,,,,,,,,,,,,291.675,292.8054,a,1,0.4552,,0.4552,1,292.8057,293.3053,,,,,,233,FEM,WORD,DIS,150,lana,,el,,293.3056,293.3058,0.141927083,0.444010417,0,0,0,,0,111,111,232,1,fasa,,,,
,,,,,,5e9133f704391d46ee2bcb31,676192165fb32c2e1fb7aee6,67d1fa2c96f754c4747da134,2025-03-12_18h19.02.693,Tarea de decisión léxica,2024.2.5,Win32,59.88023952,,,,,,,,,,,,,,,,,,,,,,,293.3077,294.3704,l,1,0.3901,,0.3901,1,294.3707,294.8706,,,,,,212,FEM,NOWORD,AGR,150,joad,,la,,294.8742,294.8761,0.141927083,0.444010417,0,0,0,,0,112,112,211,1,joya,,,,
,,,,,,5e9133f704391d46ee2bcb31,676192165fb32c2e1fb7aee6,67d1fa2c96f754c4747da134,2025-03-12_18h19.02.693,Tarea de decisión léxica,2024.2.5,Win32,59.88023952,,,,,,,,,,,,,,,,,,,,,,,294.878,296.2192,l,1,0.6694,,0.6694,1,296.2195,296.7183,,,,,,282,MAS,NOWORD,DIS,150,cauro,,la,,296.7187,296.7194,0.141927083,0.444010417,0,0,0,,0,113,113,281,1,cielo,,,,
,,,,,,5e9133f704391d46ee2bcb31,676192165fb32c2e1fb7aee6,67d1fa2c96f754c4747da134,2025-03-12_18h19.02.693,Tarea de decisión léxica,2024.2.5,Win32,59.88023952,,,,,,,,,,,,,,,,,,,,,,,296.7214,297.9999,l,1,0.6089,,0.6089,1,298.0003,298.5,,,,,,138,MAS,NOWORD,DIS,150,pamo,,la,,298.5002,298.5005,0.141927083,0.444010417,0,0,0,,0,114,114,137,1,nene,,,,
,,,,,,5e9133f704391d46ee2bcb31,676192165fb32c2e1fb7aee6,67d1fa2c96f754c4747da134,2025-03-12_18h19.02.693,Tarea de decisión léxica,2024.2.5,Win32,59.88023952,,,,,,,,,,,,,,,,,,,,,,,298.5025,299.683,l,1,0.4999,,0.4999,1,299.6834,300.1819,,,,,,200,MAS,NOWORD,AGR,150,fano,,el,,300.1821,300.1824,0.141927083,0.444010417,0,0,0,,0,115,115,199,1,lazo,,,,
,,,,,,5e9133f704391d46ee2bcb31,676192165fb32c2e1fb7aee6,67d1fa2c96f754c4747da134,2025-03-12_18h19.02.693,Tarea de decisión léxica,2024.2.5,Win32,59.88023952,,,,,,,,,,,,,,,,,,,,,,,300.1842,301.2808,a,1,0.4196,,0.4196,1,301.2811,301.7801,,,,,,273,FEM,WORD,DIS,150,broma,,el,,301.7804,301.7807,0.141927083,0.444010417,0,0,0,,0,116,116,272,1,frosa,,,,
,,,,,,5e9133f704391d46ee2bcb31,676192165fb32c2e1fb7aee6,67d1fa2c96f754c4747da134,2025-03-12_18h19.02.693,Tarea de decisión léxica,2024.2.5,Win32,59.88023952,,,,,,,,,,,,,,,,,,,,,,,301.7833,303.0285,a,1,0.5657,,0.5657,1,303.0287,303.5286,,,,,,31,FEM,WORD,AGR,150,ropa,,la,,303.5328,303.5347,0.141927083,0.444010417,0,0,0,,0,117,117,30,1,bova,,,,
,,,,,,5e9133f704391d46ee2bcb31,676192165fb32c2e1fb7aee6,67d1fa2c96f754c4747da134,2025-03-12_18h19.02.693,Tarea de decisión léxica,2024.2.5,Win32,59.88023952,,,,,,,,,,,,,,,,,,,,,,,303.5368,305.0101,a,1,0.803,,0.803,1,305.0104,305.5088,,,,,,349,MAS,WORD,DIS,150,color,,la,,305.509,305.5093,0.141927083,0.444010417,0,0,0,,0,118,118,348,1,cosir,,,,
,,,,,,5e9133f704391d46ee2bcb31,676192165fb32c2e1fb7aee6,67d1fa2c96f754c4747da134,2025-03-12_18h19.02.693,Tarea de decisión léxica,2024.2.5,Win32,59.88023952,,,,,,,,,,,,,,,,,,,,,,,305.5113,306.9085,a,1,0.7176,,0.7176,1,306.9089,307.4082,,,,,,159,MAS,WORD,AGR,150,giro,,el,,307.4085,307.409,0.141927083,0.444010417,0,0,0,,0,119,119,158,1,bilo,,,,
,,,,,,5e9133f704391d46ee2bcb31,676192165fb32c2e1fb7aee6,67d1fa2c96f754c4747da134,2025-03-12_18h19.02.693,Tarea de decisión léxica,2024.2.5,Win32,59.88023952,,,,,,,,,,,,,,,,,,,,,,,307.4104,308.5235,a,1,0.4417,,0.4417,1,308.5236,309.0222,,,,,,49,FEM,WORD,DIS,150,edad,,el,,309.0223,309.0226,0.141927083,0.444010417,0,0,0,,0,120,120,48,1,ecat,,,,
,,,,,,5e9133f704391d46ee2bcb31,676192165fb32c2e1fb7aee6,67d1fa2c96f754c4747da134,2025-03-12_18h19.02.693,Tarea de decisión léxica,2024.2.5,Win32,59.88023952,,,,,,,,,,,,,,,,,,,,,,,309.0246,310.1552,l,1,0.458,,0.458,1,310.1555,310.6548,,,,,,104,FEM,NOWORD,AGR,150,rova,,la,,310.655,310.6553,0.141927083,0.444010417,0,0,0,,0,121,121,103,1,ruta,,,,
,,,,,,5e9133f704391d46ee2bcb31,676192165fb32c2e1fb7aee6,67d1fa2c96f754c4747da134,2025-03-12_18h19.02.693,Tarea de decisión léxica,2024.2.5,Win32,59.88023952,,,,,,,,,,,,,,,,,,,,,,,310.6568,311.8203,l,1,0.4844,,0.4844,1,311.8208,312.3195,,,,,,272,FEM,NOWORD,AGR,150,refal,,la,,312.3215,312.3223,0.141927083,0.444010417,0,0,0,,0,122,122,271,1,señal,,,,
,,,,,,5e9133f704391d46ee2bcb31,676192165fb32c2e1fb7aee6,67d1fa2c96f754c4747da134,2025-03-12_18h19.02.693,Tarea de decisión léxica,2024.2.5,Win32,59.88023952,,,,,,,,,,,,,,,,,,,,,,,312.3233,313.4846,a,1,0.491,,0.491,1,313.4849,313.9842,,,,,,195,FEM,WORD,AGR,150,tela,,la,,313.9844,313.9847,0.141927083,0.444010417,0,0,0,,0,123,123,194,1,sira,,,,
,,,,,,5e9133f704391d46ee2bcb31,676192165fb32c2e1fb7aee6,67d1fa2c96f754c4747da134,2025-03-12_18h19.02.693,Tarea de decisión léxica,2024.2.5,Win32,59.88023952,,,,,,,,,,,,,,,,,,,,,,,313.9865,315.0997,a,1,0.4347,,0.4347,1,315.1001,315.5997,,,,,,15,FEM,WORD,AGR,150,idea,,la,,315.5999,315.6001,0.141927083,0.444010417,0,0,0,,0,124,124,14,1,odea,,,,
,,,,,,5e9133f704391d46ee2bcb31,676192165fb32c2e1fb7aee6,67d1fa2c96f754c4747da134,2025-03-12_18h19.02.693,Tarea de decisión léxica,2024.2.5,Win32,59.88023952,,,,,,,,,,,,,,,,,,,,,,,315.6019,316.6817,l,1,0.4034,,0.4034,1,316.6822,317.1811,,,,,,352,MAS,NOWORD,AGR,150,duepo,,el,,317.1812,317.1816,0.141927083,0.444010417,0,0,0,,0,125,125,351,1,vuelo,,,,
,,,,,,5e9133f704391d46ee2bcb31,676192165fb32c2e1fb7aee6,67d1fa2c96f754c4747da134,2025-03-12_18h19.02.693,Tarea de decisión léxica,2024.2.5,Win32,59.88023952,,,,,,,,,,,,,,,,,,,,,,,317.1833,318.2133,a,1,0.3584,,0.3584,1,318.2136,318.7141,,,,,,19,MAS,WORD,AGR,150,niño,,el,,318.7143,318.7146,0.141927083,0.444010417,0,0,0,,0,126,126,18,1,himo,,,,
,,,,,,5e9133f704391d46ee2bcb31,676192165fb32c2e1fb7aee6,67d1fa2c96f754c4747da134,2025-03-12_18h19.02.693,Tarea de decisión léxica,2024.2.5,Win32,59.88023952,,,,,,,,,,,,,,,,,,,,,,,318.7174,320.0298,l,1,0.6344,,0.6344,1,320.0302,320.5274,,,,,,376,FEM,NOWORD,AGR,150,sasna,,la,,320.5297,320.5302,0.141927083,0.444010417,0,0,0,,0,127,127,375,1,salsa,,,,
,,,,,,5e9133f704391d46ee2bcb31,676192165fb32c2e1fb7aee6,67d1fa2c96f754c4747da134,2025-03-12_18h19.02.693,Tarea de decisión léxica,2024.2.5,Win32,59.88023952,,,,,,,,,,,,,,,,,,,,,,,320.5308,321.6762,a,1,0.4692,,0.4692,1,321.6762,322.1772,,,,,,395,FEM,WORD,AGR,150,caída,,la,,322.1774,322.178,0.141927083,0.444010417,0,0,0,,0,128,128,394,1,paeda,,,,
,,,,,,5e9133f704391d46ee2bcb31,676192165fb32c2e1fb7aee6,67d1fa2c96f754c4747da134,2025-03-12_18h19.02.693,Tarea de decisión léxica,2024.2.5,Win32,59.88023952,,,,,,,,,,,,,,,,,,,,,,,322.1796,323.4256,a,1,0.5666,,0.5666,1,323.4258,323.9245,,,,,,227,MAS,WORD,AGR,150,faro,,el,,323.9248,323.9251,0.141927083,0.444010417,0,0,0,,0,129,129,226,1,laro,,,,
,,,,,,5e9133f704391d46ee2bcb31,676192165fb32c2e1fb7aee6,67d1fa2c96f754c4747da134,2025-03-12_18h19.02.693,Tarea de decisión léxica,2024.2.5,Win32,59.88023952,,,,,,,,,,,,,,,,,,,,,,,323.9276,325.0249,l,1,0.4032,,0.4032,1,325.0252,325.5231,,,,,,146,MAS,NOWORD,DIS,150,nobo,,la,,325.5232,325.5236,0.141927083,0.444010417,0,0,0,,0,130,130,145,1,león,,,,
,,,,,,5e9133f704391d46ee2bcb31,676192165fb32c2e1fb7aee6,67d1fa2c96f754c4747da134,2025-03-12_18h19.02.693,Tarea de decisión léxica,2024.2.5,Win32,59.88023952,,,,,,,,,,,,,,,,,,,,,,,325.5256,326.6896,a,1,0.4828,,0.4828,1,326.6903,327.1888,,,,,,373,FEM,WORD,DIS,150,pizza,,el,,327.192,327.1935,0.141927083,0.444010417,0,0,0,,0,131,131,372,1,pogza,,,,
,,,,,,5e9133f704391d46ee2bcb31,676192165fb32c2e1fb7aee6,67d1fa2c96f754c4747da134,2025-03-12_18h19.02.693,Tarea de decisión léxica,2024.2.5,Win32,59.88023952,,,,,,,,,,,,,,,,,,,,,,,327.1947,328.4379,l,1,0.566,,0.566,1,328.4383,328.9359,,,,,,284,MAS,NOWORD,AGR,150,tuevo,,el,,328.936,328.9362,0.141927083,0.444010417,0,0,0,,0,132,132,283,1,sueño,,,,
,,,,,,5e9133f704391d46ee2bcb31,676192165fb32c2e1fb7aee6,67d1fa2c96f754c4747da134,2025-03-12_18h19.02.693,Tarea de decisión léxica,2024.2.5,Win32,59.88023952,,,,,,,,,,,,,,,,,,,,,,,328.9381,330.1519,l,1,0.543,,0.543,1,330.1522,330.6514,,,,,,122,MAS,NOWORD,DIS,150,bomo,,la,,330.6516,330.6519,0.141927083,0.444010417,0,0,0,,0,133,133,121,1,hoyo,,,,
,,,,,,5e9133f704391d46ee2bcb31,676192165fb32c2e1fb7aee6,67d1fa2c96f754c4747da134,2025-03-12_18h19.02.693,Tarea de decisión léxica,2024.2.5,Win32,59.88023952,,,,,,,,,,,,,,,,,,,,,,,330.6538,331.8004,a,1,0.4669,,0.4669,1,331.8006,332.2996,,,,,,379,MAS,WORD,AGR,150,turno,,el,,332.2998,332.3001,0.141927083,0.444010417,0,0,0,,0,134,134,378,1,tunso,,,,
,,,,,,5e9133f704391d46ee2bcb31,676192165fb32c2e1fb7aee6,67d1fa2c96f754c4747da134,2025-03-12_18h19.02.693,Tarea de decisión léxica,2024.2.5,Win32,59.88023952,,,,,,,,,,,,,,,,,,,,,,,332.3024,333.3329,l,1,0.3547,,0.3547,1,333.333,333.8317,,,,,,120,MAS,NOWORD,AGR,150,hooy,,el,,333.8319,333.8322,0.141927083,0.444010417,0,0,0,,0,135,135,119,1,pozo,,,,
,,,,,,5e9133f704391d46ee2bcb31,676192165fb32c2e1fb7aee6,67d1fa2c96f754c4747da134,2025-03-12_18h19.02.693,Tarea de decisión léxica,2024.2.5,Win32,59.88023952,,,,,,,,,,,,,,,,,,,,,,,333.8338,334.9633,a,1,0.4508,,0.4508,1,334.9636,335.4638,,,,,,187,MAS,WORD,AGR,150,mito,,el,,335.4661,335.4669,0.141927083,0.444010417,0,0,0,,0,136,136,186,1,suto,,,,
,,,,,,5e9133f704391d46ee2bcb31,676192165fb32c2e1fb7aee6,67d1fa2c96f754c4747da134,2025-03-12_18h19.02.693,Tarea de decisión léxica,2024.2.5,Win32,59.88023952,,,,,,,,,,,,,,,,,,,,,,,335.4677,336.5953,a,1,0.46,,0.46,1,336.5956,337.0965,,,,,,297,MAS,WORD,DIS,150,grupo,,la,,337.0966,337.0967,0.141927083,0.444010417,0,0,0,,0,137,137,296,1,brubo,,,,
,,,,,,5e9133f704391d46ee2bcb31,676192165fb32c2e1fb7aee6,67d1fa2c96f754c4747da134,2025-03-12_18h19.02.693,Tarea de decisión léxica,2024.2.5,Win32,59.88023952,,,,,,,,,,,,,,,,,,,,,,,337.0983,338.2275,a,1,0.4502,,0.4502,1,338.2277,338.7263,,,,,,365,FEM,WORD,DIS,150,ducha,,el,,338.7264,338.7267,0.141927083,0.444010417,0,0,0,,0,138,138,364,1,gulla,,,,
,,,,,,5e9133f704391d46ee2bcb31,676192165fb32c2e1fb7aee6,67d1fa2c96f754c4747da134,2025-03-12_18h19.02.693,Tarea de decisión léxica,2024.2.5,Win32,59.88023952,,,,,,,,,,,,,,,,,,,,,,,338.7291,339.6922,a,1,0.2898,,0.2898,1,339.6927,340.1925,,,,,,327,MAS,WORD,AGR,150,fondo,,el,,340.1926,340.1928,0.141927083,0.444010417,0,0,0,,0,139,139,326,1,lendo,,,,
,,,,,,5e9133f704391d46ee2bcb31,676192165fb32c2e1fb7aee6,67d1fa2c96f754c4747da134,2025-03-12_18h19.02.693,Tarea de decisión léxica,2024.2.5,Win32,59.88023952,,,,,,,,,,,,,,,,,,,,,,,340.1944,342.8388,,0,,,0.2898,-1,342.8427,343.339,,,,,,370,MAS,NOWORD,DIS,150,rioco,,la,,343.3393,343.3396,0.141927083,0.444010417,0,0,0,,0,140,140,369,1,ruido,,,,
,,,,,,5e9133f704391d46ee2bcb31,676192165fb32c2e1fb7aee6,67d1fa2c96f754c4747da134,2025-03-12_18h19.02.693,Tarea de decisión léxica,2024.2.5,Win32,59.88023952,,,,,,,,,,,,,,,,,,,,,,,343.3412,344.5871,l,1,0.5766,,0.5766,1,344.5894,345.0878,,,,,,350,MAS,NOWORD,DIS,150,cosir,,la,,345.0909,345.0922,0.141927083,0.444010417,0,0,0,,0,141,141,349,1,color,,,,
,,,,,,5e9133f704391d46ee2bcb31,676192165fb32c2e1fb7aee6,67d1fa2c96f754c4747da134,2025-03-12_18h19.02.693,Tarea de decisión léxica,2024.2.5,Win32,59.88023952,,,,,,,,,,,,,,,,,,,,,,,345.0938,346.5531,a,1,0.7837,,0.7837,1,346.5533,347.0525,,,,,,259,MAS,WORD,AGR,150,juego,,el,,347.0527,347.0529,0.141927083,0.444010417,0,0,0,,0,142,142,258,1,jaumo,,,,
,,,,,,5e9133f704391d46ee2bcb31,676192165fb32c2e1fb7aee6,67d1fa2c96f754c4747da134,2025-03-12_18h19.02.693,Tarea de decisión léxica,2024.2.5,Win32,59.88023952,,,,,,,,,,,,,,,,,,,,,,,347.0545,348.218,l,0,0.4684,,0.4684,0,348.2201,348.7174,,,,,,291,FEM,WORD,AGR,150,pista,,la,,348.7175,348.7179,0.141927083,0.444010417,0,0,0,,0,143,143,290,1,mesta,,,,
,,,,,,5e9133f704391d46ee2bcb31,676192165fb32c2e1fb7aee6,67d1fa2c96f754c4747da134,2025-03-12_18h19.02.693,Tarea de decisión léxica,2024.2.5,Win32,59.88023952,,,,,,,,,,,,,,,,,,,,,,,348.72,349.9,a,1,0.5092,,0.5092,1,349.9025,350.4003,,,,,,185,MAS,WORD,DIS,150,baúl,,la,,350.4003,350.4006,0.141927083,0.444010417,0,0,0,,0,144,144,184,1,raol,,,,
,,,,,,5e9133f704391d46ee2bcb31,676192165fb32c2e1fb7aee6,67d1fa2c96f754c4747da134,2025-03-12_18h19.02.693,Tarea de decisión léxica,2024.2.5,Win32,59.88023952,,,,,,,,,,,,,,,,,,,,,,,350.4037,351.5312,a,1,0.4511,,0.4511,1,351.5314,352.0299,,,,,,93,FEM,WORD,DIS,150,bola,,el,,352.0299,352.03,0.141927083,0.444010417,0,0,0,,0,145,145,92,1,rona,,,,
,,,,,,5e9133f704391d46ee2bcb31,676192165fb32c2e1fb7aee6,67d1fa2c96f754c4747da134,2025-03-12_18h19.02.693,Tarea de decisión léxica,2024.2.5,Win32,59.88023952,,,,,,,,,,,,,,,,,,,,,,,352.0329,353.0961,a,1,0.3839,,0.3839,1,353.0966,353.5954,,,,,,163,FEM,WORD,AGR,150,fama,,la,,353.5977,353.5986,0.141927083,0.444010417,0,0,0,,0,146,146,162,1,laga,,,,
,,,,,,5e9133f704391d46ee2bcb31,676192165fb32c2e1fb7aee6,67d1fa2c96f754c4747da134,2025-03-12_18h19.02.693,Tarea de decisión léxica,2024.2.5,Win32,59.88023952,,,,,,,,,,,,,,,,,,,,,,,353.5999,354.7782,l,1,0.5068,,0.5068,1,354.7785,355.2781,,,,,,452,FEM,NOWORD,AGR,150,clita,,la,,355.2783,355.2791,0.141927083,0.444010417,0,0,0,,0,147,147,451,1,fruta,,,,
,,,,,,5e9133f704391d46ee2bcb31,676192165fb32c2e1fb7aee6,67d1fa2c96f754c4747da134,2025-03-12_18h19.02.693,Tarea de decisión léxica,2024.2.5,Win32,59.88023952,,,,,,,,,,,,,,,,,,,,,,,355.2811,356.3932,a,1,0.4342,,0.4342,1,356.3935,356.8935,,,,,,71,FEM,WORD,AGR,150,isla,,la,,356.8937,356.894,0.141927083,0.444010417,0,0,0,,0,148,148,70,1,urla,,,,
,,,,,,5e9133f704391d46ee2bcb31,676192165fb32c2e1fb7aee6,67d1fa2c96f754c4747da134,2025-03-12_18h19.02.693,Tarea de decisión léxica,2024.2.5,Win32,59.88023952,,,,,,,,,,,,,,,,,,,,,,,356.8959,358.093,l,1,0.519,,0.519,1,358.0934,358.5913,,,,,,446,MAS,NOWORD,DIS,150,ascor,,la,,358.5914,358.5917,0.141927083,0.444010417,0,0,0,,0,149,149,445,1,actor,,,,
,,,,,,5e9133f704391d46ee2bcb31,676192165fb32c2e1fb7aee6,67d1fa2c96f754c4747da134,2025-03-12_18h19.02.693,Tarea de decisión léxica,2024.2.5,Win32,59.88023952,,,,,,,,,,,,,,,,,,,,,,,358.5939,359.7243,a,1,0.4505,,0.4505,1,359.7248,360.2233,,,,,,337,MAS,WORD,DIS,150,huevo,,la,,360.2235,360.2237,0.141927083,0.444010417,0,0,0,,0,150,150,336,1,nuejo,,,,
,,,,,,5e9133f704391d46ee2bcb31,676192165fb32c2e1fb7aee6,67d1fa2c96f754c4747da134,2025-03-12_18h19.02.693,Tarea de decisión léxica,2024.2.5,Win32,59.88023952,,,,,,,,,,,,,,,,,,,,,,,360.2255,361.3723,l,0,0.4651,,0.4651,0,361.374,361.8705,,,,,,451,FEM,WORD,AGR,150,fruta,,la,,361.873,361.8738,0.141927083,0.444010417,0,0,0,,0,151,151,450,1,clita,,,,
,,,,,,5e9133f704391d46ee2bcb31,676192165fb32c2e1fb7aee6,67d1fa2c96f754c4747da134,2025-03-12_18h19.02.693,Tarea de decisión léxica,2024.2.5,Win32,59.88023952,,,,,,,,,,,,,,,,,,,,,,,361.8746,363.0874,a,1,0.54,,0.54,1,363.0899,363.5866,,,,,,29,MAS,WORD,DIS,150,modo,,la,,363.5868,363.5871,0.141927083,0.444010417,0,0,0,,0,152,152,28,1,pono,,,,
,,,,,,5e9133f704391d46ee2bcb31,676192165fb32c2e1fb7aee6,67d1fa2c96f754c4747da134,2025-03-12_18h19.02.693,Tarea de decisión léxica,2024.2.5,Win32,59.88023952,,,,,,,,,,,,,,,,,,,,,,,363.5892,364.6406,a,1,0.3826,,0.3826,1,364.6408,365.1339,,,,,,43,FEM,WORD,AGR,150,pena,,la,,365.1341,365.1348,0.141927083,0.444010417,0,0,0,,0,153,153,42,1,meda,,,,
,,,,,,5e9133f704391d46ee2bcb31,676192165fb32c2e1fb7aee6,67d1fa2c96f754c4747da134,2025-03-12_18h19.02.693,Tarea de decisión léxica,2024.2.5,Win32,59.88023952,,,,,,,,,,,,,,,,,,,,,,,365.1372,366.3,l,1,0.4894,,0.4894,1,366.3003,366.8,,,,,,116,FEM,NOWORD,AGR,150,haca,,la,,366.8002,366.8006,0.141927083,0.444010417,0,0,0,,0,154,154,115,1,pata,,,,
,,,,,,5e9133f704391d46ee2bcb31,676192165fb32c2e1fb7aee6,67d1fa2c96f754c4747da134,2025-03-12_18h19.02.693,Tarea de decisión léxica,2024.2.5,Win32,59.88023952,,,,,,,,,,,,,,,,,,,,,,,366.8019,367.881,a,1,0.4011,,0.4011,1,367.8812,368.3819,,,,,,301,FEM,WORD,DIS,150,banda,,el,,368.3837,368.3846,0.141927083,0.444010417,0,0,0,,0,155,155,300,1,ranga,,,,
,,,,,,5e9133f704391d46ee2bcb31,676192165fb32c2e1fb7aee6,67d1fa2c96f754c4747da134,2025-03-12_18h19.02.693,Tarea de decisión léxica,2024.2.5,Win32,59.88023952,,,,,,,,,,,,,,,,,,,,,,,368.3855,369.5296,l,1,0.477,,0.477,1,369.5299,370.0293,,,,,,280,FEM,NOWORD,AGR,150,grina,,la,,370.0296,370.03,0.141927083,0.444010417,0,0,0,,0,156,156,279,1,prisa,,,,
,,,,,,5e9133f704391d46ee2bcb31,676192165fb32c2e1fb7aee6,67d1fa2c96f754c4747da134,2025-03-12_18h19.02.693,Tarea de decisión léxica,2024.2.5,Win32,59.88023952,,,,,,,,,,,,,,,,,,,,,,,370.0318,371.1783,l,1,0.471,,0.471,1,371.1787,371.6784,,,,,,242,MAS,NOWORD,DIS,150,mirdo,,la,,371.6786,371.6788,0.141927083,0.444010417,0,0,0,,0,157,157,241,1,mundo,,,,
,,,,,,5e9133f704391d46ee2bcb31,676192165fb32c2e1fb7aee6,67d1fa2c96f754c4747da134,2025-03-12_18h19.02.693,Tarea de decisión léxica,2024.2.5,Win32,59.88023952,,,,,,,,,,,,,,,,,,,,,,,371.6805,372.693,l,1,0.344,,0.344,1,372.6934,373.1938,,,,,,194,FEM,NOWORD,DIS,150,foda,,el,,373.1939,373.1942,0.141927083,0.444010417,0,0,0,,0,158,158,193,1,loca,,,,
,,,,,,5e9133f704391d46ee2bcb31,676192165fb32c2e1fb7aee6,67d1fa2c96f754c4747da134,2025-03-12_18h19.02.693,Tarea de decisión léxica,2024.2.5,Win32,59.88023952,,,,,,,,,,,,,,,,,,,,,,,373.1958,374.2928,a,1,0.4177,,0.4177,1,374.2931,374.7927,,,,,,257,FEM,WORD,DIS,150,amiga,,el,,374.793,374.7933,0.141927083,0.444010417,0,0,0,,0,159,159,256,1,asama,,,,
,,,,,,5e9133f704391d46ee2bcb31,676192165fb32c2e1fb7aee6,67d1fa2c96f754c4747da134,2025-03-12_18h19.02.693,Tarea de decisión léxica,2024.2.5,Win32,59.88023952,,,,,,,,,,,,,,,,,,,,,,,374.7971,375.9242,l,1,0.4521,,0.4521,1,375.9244,376.4233,,,,,,52,FEM,NOWORD,AGR,150,mava,,la,,376.4256,398.669,0.141927083,0.444010417,0,0,0,space,0,160,160,51,1,caja,22.214,,,
,,,,,,5e9133f704391d46ee2bcb31,676192165fb32c2e1fb7aee6,67d1fa2c96f754c4747da134,2025-03-12_18h19.02.693,Tarea de decisión léxica,2024.2.5,Win32,59.88023952,,,,,,,,,,,,,,,,,,,,,,,398.6713,399.9175,a,0,0.5671,,0.5671,0,399.9192,400.4172,,,,,,28,MAS,NOWORD,AGR,150,ravo,,el,,400.4173,400.4176,0.141927083,0.444010417,0,0,0,,0,161,161,27,1,baño,,,,
,,,,,,5e9133f704391d46ee2bcb31,676192165fb32c2e1fb7aee6,67d1fa2c96f754c4747da134,2025-03-12_18h19.02.693,Tarea de decisión léxica,2024.2.5,Win32,59.88023952,,,,,,,,,,,,,,,,,,,,,,,400.4191,401.5158,a,1,0.4228,,0.4228,1,401.5175,402.0154,,,,,,155,FEM,WORD,AGR,150,fuga,,la,,402.0156,402.0158,0.141927083,0.444010417,0,0,0,,0,162,162,154,1,luma,,,,
,,,,,,5e9133f704391d46ee2bcb31,676192165fb32c2e1fb7aee6,67d1fa2c96f754c4747da134,2025-03-12_18h19.02.693,Tarea de decisión léxica,2024.2.5,Win32,59.88023952,,,,,,,,,,,,,,,,,,,,,,,402.0175,403.1798,a,1,0.4915,,0.4915,1,403.18,403.6802,,,,,,3,FEM,WORD,AGR,150,vida,,la,,403.6804,403.6807,0.141927083,0.444010417,0,0,0,,0,163,163,2,1,dica,,,,
,,,,,,5e9133f704391d46ee2bcb31,676192165fb32c2e1fb7aee6,67d1fa2c96f754c4747da134,2025-03-12_18h19.02.693,Tarea de decisión léxica,2024.2.5,Win32,59.88023952,,,,,,,,,,,,,,,,,,,,,,,403.6829,404.7282,l,1,0.3744,,0.3744,1,404.7282,405.2292,,,,,,178,MAS,NOWORD,DIS,150,bito,,la,,405.2294,405.2298,0.141927083,0.444010417,0,0,0,,0,164,164,177,1,reto,,,,
,,,,,,5e9133f704391d46ee2bcb31,676192165fb32c2e1fb7aee6,67d1fa2c96f754c4747da134,2025-03-12_18h19.02.693,Tarea de decisión léxica,2024.2.5,Win32,59.88023952,,,,,,,,,,,,,,,,,,,,,,,405.2313,406.328,a,1,0.4142,,0.4142,1,406.3283,406.8274,,,,,,101,MAS,WORD,DIS,150,tono,,la,,406.8295,406.8304,0.141927083,0.444010417,0,0,0,,0,165,165,100,1,gito,,,,
,,,,,,5e9133f704391d46ee2bcb31,676192165fb32c2e1fb7aee6,67d1fa2c96f754c4747da134,2025-03-12_18h19.02.693,Tarea de decisión léxica,2024.2.5,Win32,59.88023952,,,,,,,,,,,,,,,,,,,,,,,406.8311,407.9266,a,1,0.4231,,0.4231,1,407.9269,408.4255,,,,,,91,FEM,WORD,AGR,150,taza,,la,,408.4258,408.426,0.141927083,0.444010417,0,0,0,,0,166,166,90,1,sava,,,,
,,,,,,5e9133f704391d46ee2bcb31,676192165fb32c2e1fb7aee6,67d1fa2c96f754c4747da134,2025-03-12_18h19.02.693,Tarea de decisión léxica,2024.2.5,Win32,59.88023952,,,,,,,,,,,,,,,,,,,,,,,408.4277,409.5248,l,1,0.4236,,0.4236,1,409.5251,410.0237,,,,,,110,MAS,NOWORD,DIS,150,suno,,la,,410.0239,410.0243,0.141927083,0.444010417,0,0,0,,0,167,167,109,1,rayo,,,,
,,,,,,5e9133f704391d46ee2bcb31,676192165fb32c2e1fb7aee6,67d1fa2c96f754c4747da134,2025-03-12_18h19.02.693,Tarea de decisión léxica,2024.2.5,Win32,59.88023952,,,,,,,,,,,,,,,,,,,,,,,410.0261,411.1726,l,1,0.474,,0.474,1,411.1728,411.6723,,,,,,308,MAS,NOWORD,AGR,150,holol,,el,,411.6725,411.6728,0.141927083,0.444010417,0,0,0,,0,168,168,307,1,hotel,,,,
,,,,,,5e9133f704391d46ee2bcb31,676192165fb32c2e1fb7aee6,67d1fa2c96f754c4747da134,2025-03-12_18h19.02.693,Tarea de decisión léxica,2024.2.5,Win32,59.88023952,,,,,,,,,,,,,,,,,,,,,,,411.6744,412.8041,a,1,0.4546,,0.4546,1,412.8044,413.3044,,,,,,359,MAS,WORD,AGR,150,calor,,el,,413.3045,413.3048,0.141927083,0.444010417,0,0,0,,0,169,169,358,1,cacer,,,,
,,,,,,5e9133f704391d46ee2bcb31,676192165fb32c2e1fb7aee6,67d1fa2c96f754c4747da134,2025-03-12_18h19.02.693,Tarea de decisión léxica,2024.2.5,Win32,59.88023952,,,,,,,,,,,,,,,,,,,,,,,413.3064,414.3693,a,1,0.3869,,0.3869,1,414.3695,414.8693,,,,,,411,MAS,WORD,AGR,150,pollo,,el,,414.8716,414.8724,0.141927083,0.444010417,0,0,0,,0,170,170,410,1,mobro,,,,
,,,,,,5e9133f704391d46ee2bcb31,676192165fb32c2e1fb7aee6,67d1fa2c96f754c4747da134,2025-03-12_18h19.02.693,Tarea de decisión léxica,2024.2.5,Win32,59.88023952,,,,,,,,,,,,,,,,,,,,,,,414.8733,415.9518,a,1,0.401,,0.401,1,415.9521,416.4521,,,,,,281,MAS,WORD,DIS,150,cielo,,la,,416.4523,416.4527,0.141927083,0.444010417,0,0,0,,0,171,171,280,1,cauro,,,,
,,,,,,5e9133f704391d46ee2bcb31,676192165fb32c2e1fb7aee6,67d1fa2c96f754c4747da134,2025-03-12_18h19.02.693,Tarea de decisión léxica,2024.2.5,Win32,59.88023952,,,,,,,,,,,,,,,,,,,,,,,416.4554,417.5178,a,1,0.3878,,0.3878,1,417.5181,418.017,,,,,,323,FEM,WORD,AGR,150,cinta,,la,,418.0171,418.0175,0.141927083,0.444010417,0,0,0,,0,172,172,322,1,certa,,,,
,,,,,,5e9133f704391d46ee2bcb31,676192165fb32c2e1fb7aee6,67d1fa2c96f754c4747da134,2025-03-12_18h19.02.693,Tarea de decisión léxica,2024.2.5,Win32,59.88023952,,,,,,,,,,,,,,,,,,,,,,,418.0191,419.0646,l,1,0.3703,,0.3703,1,419.0648,419.5643,,,,,,128,MAS,NOWORD,AGR,150,itio,,el,,419.5645,419.5648,0.141927083,0.444010417,0,0,0,,0,173,173,127,1,pico,,,,
,,,,,,5e9133f704391d46ee2bcb31,676192165fb32c2e1fb7aee6,67d1fa2c96f754c4747da134,2025-03-12_18h19.02.693,Tarea de decisión léxica,2024.2.5,Win32,59.88023952,,,,,,,,,,,,,,,,,,,,,,,419.5665,420.6804,l,1,0.4342,,0.4342,1,420.6806,421.1793,,,,,,318,FEM,NOWORD,DIS,150,plaad,,el,,421.1795,421.1798,0.141927083,0.444010417,0,0,0,,0,174,174,317,1,playa,,,,
,,,,,,5e9133f704391d46ee2bcb31,676192165fb32c2e1fb7aee6,67d1fa2c96f754c4747da134,2025-03-12_18h19.02.693,Tarea de decisión léxica,2024.2.5,Win32,59.88023952,,,,,,,,,,,,,,,,,,,,,,,421.1818,422.2126,l,1,0.3511,,0.3511,1,422.213,422.7123,,,,,,260,MAS,NOWORD,AGR,150,jaumo,,el,,422.7145,422.7155,0.141927083,0.444010417,0,0,0,,0,175,175,259,1,juego,,,,
,,,,,,5e9133f704391d46ee2bcb31,676192165fb32c2e1fb7aee6,67d1fa2c96f754c4747da134,2025-03-12_18h19.02.693,Tarea de decisión léxica,2024.2.5,Win32,59.88023952,,,,,,,,,,,,,,,,,,,,,,,422.7165,423.9277,l,1,0.5344,,0.5344,1,423.9279,424.4275,,,,,,276,MAS,NOWORD,AGR,150,musto,,el,,424.4278,424.4283,0.141927083,0.444010417,0,0,0,,0,176,176,275,1,punto,,,,
,,,,,,5e9133f704391d46ee2bcb31,676192165fb32c2e1fb7aee6,67d1fa2c96f754c4747da134,2025-03-12_18h19.02.693,Tarea de decisión léxica,2024.2.5,Win32,59.88023952,,,,,,,,,,,,,,,,,,,,,,,424.4299,425.5253,l,1,0.4245,,0.4245,1,425.5257,426.0248,,,,,,464,FEM,NOWORD,AGR,150,matla,,la,,426.0251,426.0253,0.141927083,0.444010417,0,0,0,,0,177,177,463,1,cabra,,,,
,,,,,,5e9133f704391d46ee2bcb31,676192165fb32c2e1fb7aee6,67d1fa2c96f754c4747da134,2025-03-12_18h19.02.693,Tarea de decisión léxica,2024.2.5,Win32,59.88023952,,,,,,,,,,,,,,,,,,,,,,,426.0271,426.9733,l,0,0.2755,,0.2755,0,426.9753,427.4732,,,,,,445,MAS,WORD,DIS,150,actor,,la,,427.4734,427.4737,0.141927083,0.444010417,0,0,0,,0,178,178,444,1,ascor,,,,
,,,,,,5e9133f704391d46ee2bcb31,676192165fb32c2e1fb7aee6,67d1fa2c96f754c4747da134,2025-03-12_18h19.02.693,Tarea de decisión léxica,2024.2.5,Win32,59.88023952,,,,,,,,,,,,,,,,,,,,,,,427.4756,428.7063,a,1,0.5559,,0.5559,1,428.7079,429.2055,,,,,,177,MAS,WORD,DIS,150,reto,,la,,429.2075,429.2083,0.141927083,0.444010417,0,0,0,,0,179,179,176,1,bito,,,,
,,,,,,5e9133f704391d46ee2bcb31,676192165fb32c2e1fb7aee6,67d1fa2c96f754c4747da134,2025-03-12_18h19.02.693,Tarea de decisión léxica,2024.2.5,Win32,59.88023952,,,,,,,,,,,,,,,,,,,,,,,429.2091,430.272,l,1,0.3952,,0.3952,1,430.272,430.77,,,,,,398,FEM,NOWORD,DIS,150,trigi,,el,,430.7703,430.7707,0.141927083,0.444010417,0,0,0,,0,180,180,397,1,tribu,,,,
,,,,,,5e9133f704391d46ee2bcb31,676192165fb32c2e1fb7aee6,67d1fa2c96f754c4747da134,2025-03-12_18h19.02.693,Tarea de decisión léxica,2024.2.5,Win32,59.88023952,,,,,,,,,,,,,,,,,,,,,,,430.7731,431.9021,a,1,0.4576,,0.4576,1,431.9025,432.4025,,,,,,313,MAS,WORD,DIS,150,novio,,la,,432.4026,432.4029,0.141927083,0.444010417,0,0,0,,0,181,181,312,1,govio,,,,
,,,,,,5e9133f704391d46ee2bcb31,676192165fb32c2e1fb7aee6,67d1fa2c96f754c4747da134,2025-03-12_18h19.02.693,Tarea de decisión léxica,2024.2.5,Win32,59.88023952,,,,,,,,,,,,,,,,,,,,,,,432.4045,433.4505,a,1,0.3704,,0.3704,1,433.4509,433.951,,,,,,27,MAS,WORD,AGR,150,baño,,el,,433.9511,433.9514,0.141927083,0.444010417,0,0,0,,0,182,182,26,1,ravo,,,,
,,,,,,5e9133f704391d46ee2bcb31,676192165fb32c2e1fb7aee6,67d1fa2c96f754c4747da134,2025-03-12_18h19.02.693,Tarea de decisión léxica,2024.2.5,Win32,59.88023952,,,,,,,,,,,,,,,,,,,,,,,433.9532,434.9996,a,1,0.3673,,0.3673,1,434.9999,435.4996,,,,,,415,FEM,WORD,AGR,150,jaula,,la,,435.4997,435.5,0.141927083,0.444010417,0,0,0,,0,183,183,414,1,juira,,,,
,,,,,,5e9133f704391d46ee2bcb31,676192165fb32c2e1fb7aee6,67d1fa2c96f754c4747da134,2025-03-12_18h19.02.693,Tarea de decisión léxica,2024.2.5,Win32,59.88023952,,,,,,,,,,,,,,,,,,,,,,,435.5016,436.5494,l,1,0.3712,,0.3712,1,436.5495,437.0485,,,,,,66,MAS,NOWORD,DIS,150,nios,,la,,437.0515,437.0532,0.141927083,0.444010417,0,0,0,,0,184,184,65,1,dios,,,,
,,,,,,5e9133f704391d46ee2bcb31,676192165fb32c2e1fb7aee6,67d1fa2c96f754c4747da134,2025-03-12_18h19.02.693,Tarea de decisión léxica,2024.2.5,Win32,59.88023952,,,,,,,,,,,,,,,,,,,,,,,437.055,438.2627,l,1,0.54,,0.54,1,438.2631,438.7668,,,,,,288,FEM,NOWORD,AGR,150,fosta,,la,,438.7669,438.7672,0.141927083,0.444010417,0,0,0,,0,185,185,287,1,lista,,,,
,,,,,,5e9133f704391d46ee2bcb31,676192165fb32c2e1fb7aee6,67d1fa2c96f754c4747da134,2025-03-12_18h19.02.693,Tarea de decisión léxica,2024.2.5,Win32,59.88023952,,,,,,,,,,,,,,,,,,,,,,,438.7713,439.912,a,1,0.4677,,0.4677,1,439.9124,440.4107,,,,,,361,FEM,WORD,DIS,150,torre,,el,,440.411,440.4112,0.141927083,0.444010417,0,0,0,,0,186,186,360,1,solle,,,,
,,,,,,5e9133f704391d46ee2bcb31,676192165fb32c2e1fb7aee6,67d1fa2c96f754c4747da134,2025-03-12_18h19.02.693,Tarea de decisión léxica,2024.2.5,Win32,59.88023952,,,,,,,,,,,,,,,,,,,,,,,440.413,441.5768,l,1,0.4887,,0.4887,1,441.577,442.0755,,,,,,36,MAS,NOWORD,AGR,150,meno,,el,,442.0758,442.0763,0.141927083,0.444010417,0,0,0,,0,187,187,35,1,pelo,,,,
,,,,,,5e9133f704391d46ee2bcb31,676192165fb32c2e1fb7aee6,67d1fa2c96f754c4747da134,2025-03-12_18h19.02.693,Tarea de decisión léxica,2024.2.5,Win32,59.88023952,,,,,,,,,,,,,,,,,,,,,,,442.0782,443.2086,l,1,0.4507,,0.4507,1,443.2089,443.7082,,,,,,172,MAS,NOWORD,AGR,150,niro,,el,,443.7083,443.7087,0.141927083,0.444010417,0,0,0,,0,188,188,171,1,hilo,,,,
,,,,,,5e9133f704391d46ee2bcb31,676192165fb32c2e1fb7aee6,67d1fa2c96f754c4747da134,2025-03-12_18h19.02.693,Tarea de decisión léxica,2024.2.5,Win32,59.88023952,,,,,,,,,,,,,,,,,,,,,,,443.7106,444.7735,l,1,0.3892,,0.3892,1,444.7737,445.2731,,,,,,166,FEM,NOWORD,DIS,150,dera,,el,,445.2752,445.276,0.141927083,0.444010417,0,0,0,,0,189,189,165,1,vela,,,,
,,,,,,5e9133f704391d46ee2bcb31,676192165fb32c2e1fb7aee6,67d1fa2c96f754c4747da134,2025-03-12_18h19.02.693,Tarea de decisión léxica,2024.2.5,Win32,59.88023952,,,,,,,,,,,,,,,,,,,,,,,445.2769,446.4888,a,1,0.5391,,0.5391,1,446.4891,446.9918,,,,,,115,FEM,WORD,AGR,150,pata,,la,,446.9919,446.992,0.141927083,0.444010417,0,0,0,,0,190,190,114,1,haca,,,,
,,,,,,5e9133f704391d46ee2bcb31,676192165fb32c2e1fb7aee6,67d1fa2c96f754c4747da134,2025-03-12_18h19.02.693,Tarea de decisión léxica,2024.2.5,Win32,59.88023952,,,,,,,,,,,,,,,,,,,,,,,446.9935,448.1876,a,1,0.5277,,0.5277,1,448.1877,448.6869,,,,,,135,MAS,WORD,AGR,150,tubo,,el,,448.6871,448.6879,0.141927083,0.444010417,0,0,0,,0,191,191,134,1,geso,,,,
,,,,,,5e9133f704391d46ee2bcb31,676192165fb32c2e1fb7aee6,67d1fa2c96f754c4747da134,2025-03-12_18h19.02.693,Tarea de decisión léxica,2024.2.5,Win32,59.88023952,,,,,,,,,,,,,,,,,,,,,,,448.6896,449.8355,l,1,0.4679,,0.4679,1,449.8357,450.3359,,,,,,4,FEM,NOWORD,AGR,150,dica,,la,,450.3362,450.3365,0.141927083,0.444010417,0,0,0,,0,192,192,3,1,vida,,,,
,,,,,,5e9133f704391d46ee2bcb31,676192165fb32c2e1fb7aee6,67d1fa2c96f754c4747da134,2025-03-12_18h19.02.693,Tarea de decisión léxica,2024.2.5,Win32,59.88023952,,,,,,,,,,,,,,,,,,,,,,,450.3392,451.4163,l,1,0.4038,,0.4038,1,451.4168,451.9165,,,,,,252,MAS,NOWORD,AGR,150,refor,,el,,451.9166,451.9173,0.141927083,0.444010417,0,0,0,,0,193,193,251,1,señor,,,,
,,,,,,5e9133f704391d46ee2bcb31,676192165fb32c2e1fb7aee6,67d1fa2c96f754c4747da134,2025-03-12_18h19.02.693,Tarea de decisión léxica,2024.2.5,Win32,59.88023952,,,,,,,,,,,,,,,,,,,,,,,451.9195,452.9149,l,1,0.3161,,0.3161,1,452.9152,453.4154,,,,,,362,FEM,NOWORD,DIS,150,solle,,el,,453.4182,453.419,0.141927083,0.444010417,0,0,0,,0,194,194,361,1,torre,,,,
,,,,,,5e9133f704391d46ee2bcb31,676192165fb32c2e1fb7aee6,67d1fa2c96f754c4747da134,2025-03-12_18h19.02.693,Tarea de decisión léxica,2024.2.5,Win32,59.88023952,,,,,,,,,,,,,,,,,,,,,,,453.4197,454.5144,l,1,0.4161,,0.4161,1,454.5146,455.013,,,,,,448,MAS,NOWORD,AGR,150,buaso,,el,,455.013,455.013,0.141927083,0.444010417,0,0,0,,0,195,195,447,1,bolso,,,,
,,,,,,5e9133f704391d46ee2bcb31,676192165fb32c2e1fb7aee6,67d1fa2c96f754c4747da134,2025-03-12_18h19.02.693,Tarea de decisión léxica,2024.2.5,Win32,59.88023952,,,,,,,,,,,,,,,,,,,,,,,455.0155,456.0284,l,0,0.3338,,0.3338,0,456.0313,456.5286,,,,,,287,FEM,WORD,AGR,150,lista,,la,,456.5287,456.5292,0.141927083,0.444010417,0,0,0,,0,196,196,286,1,fosta,,,,
,,,,,,5e9133f704391d46ee2bcb31,676192165fb32c2e1fb7aee6,67d1fa2c96f754c4747da134,2025-03-12_18h19.02.693,Tarea de decisión léxica,2024.2.5,Win32,59.88023952,,,,,,,,,,,,,,,,,,,,,,,456.5308,457.8608,l,1,0.6591,,0.6591,1,457.8623,458.3592,,,,,,114,FEM,NOWORD,DIS,150,tada,,el,,458.3592,458.3593,0.141927083,0.444010417,0,0,0,,0,197,197,113,1,miel,,,,
,,,,,,5e9133f704391d46ee2bcb31,676192165fb32c2e1fb7aee6,67d1fa2c96f754c4747da134,2025-03-12_18h19.02.693,Tarea de decisión léxica,2024.2.5,Win32,59.88023952,,,,,,,,,,,,,,,,,,,,,,,458.3615,459.4588,a,1,0.4172,,0.4172,1,459.4592,459.9588,,,,,,469,MAS,WORD,DIS,150,patio,,la,,459.959,459.9592,0.141927083,0.444010417,0,0,0,,0,198,198,468,1,matia,,,,
,,,,,,5e9133f704391d46ee2bcb31,676192165fb32c2e1fb7aee6,67d1fa2c96f754c4747da134,2025-03-12_18h19.02.693,Tarea de decisión léxica,2024.2.5,Win32,59.88023952,,,,,,,,,,,,,,,,,,,,,,,459.9611,461.3066,l,1,0.6679,,0.6679,1,461.3068,461.8073,,,,,,40,MAS,NOWORD,AGR,150,redo,,el,,461.8098,461.8108,0.141927083,0.444010417,0,0,0,,0,199,199,39,1,voto,,,,
,,,,,,5e9133f704391d46ee2bcb31,676192165fb32c2e1fb7aee6,67d1fa2c96f754c4747da134,2025-03-12_18h19.02.693,Tarea de decisión léxica,2024.2.5,Win32,59.88023952,,,,,,,,,,,,,,,,,,,,,,,461.8119,462.8722,a,1,0.3917,,0.3917,1,462.8724,463.3717,,,,,,419,MAS,WORD,AGR,150,truco,,el,,463.372,463.3722,0.141927083,0.444010417,0,0,0,,0,200,200,418,1,chudo,,,,
,,,,,,5e9133f704391d46ee2bcb31,676192165fb32c2e1fb7aee6,67d1fa2c96f754c4747da134,2025-03-12_18h19.02.693,Tarea de decisión léxica,2024.2.5,Win32,59.88023952,,,,,,,,,,,,,,,,,,,,,,,463.3741,464.4385,l,0,0.3817,,0.3817,0,464.4407,464.9378,,,,,,441,FEM,WORD,DIS,150,selva,,el,,464.9379,464.9382,0.141927083,0.444010417,0,0,0,,0,201,201,440,1,telza,,,,
,,,,,,5e9133f704391d46ee2bcb31,676192165fb32c2e1fb7aee6,67d1fa2c96f754c4747da134,2025-03-12_18h19.02.693,Tarea de decisión léxica,2024.2.5,Win32,59.88023952,,,,,,,,,,,,,,,,,,,,,,,464.9401,466.0869,a,1,0.4671,,0.4671,1,466.0888,466.5862,,,,,,81,FEM,WORD,DIS,150,dama,,el,,466.5864,466.5869,0.141927083,0.444010417,0,0,0,,0,202,202,80,1,vasa,,,,
,,,,,,5e9133f704391d46ee2bcb31,676192165fb32c2e1fb7aee6,67d1fa2c96f754c4747da134,2025-03-12_18h19.02.693,Tarea de decisión léxica,2024.2.5,Win32,59.88023952,,,,,,,,,,,,,,,,,,,,,,,466.5896,467.6347,a,1,0.3677,,0.3677,1,467.635,468.1363,,,,,,145,MAS,WORD,DIS,150,león,,la,,468.1382,468.1396,0.141927083,0.444010417,0,0,0,,0,203,203,144,1,nobo,,,,
,,,,,,5e9133f704391d46ee2bcb31,676192165fb32c2e1fb7aee6,67d1fa2c96f754c4747da134,2025-03-12_18h19.02.693,Tarea de decisión léxica,2024.2.5,Win32,59.88023952,,,,,,,,,,,,,,,,,,,,,,,468.1407,469.3336,a,1,0.5186,,0.5186,1,469.3339,469.8317,,,,,,105,FEM,WORD,DIS,150,sopa,,el,,469.8321,469.8326,0.141927083,0.444010417,0,0,0,,0,204,204,104,1,vina,,,,
,,,,,,5e9133f704391d46ee2bcb31,676192165fb32c2e1fb7aee6,67d1fa2c96f754c4747da134,2025-03-12_18h19.02.693,Tarea de decisión léxica,2024.2.5,Win32,59.88023952,,,,,,,,,,,,,,,,,,,,,,,469.8345,470.9147,a,1,0.4091,,0.4091,1,470.9153,471.4142,,,,,,443,MAS,WORD,AGR,150,salón,,el,,471.4144,471.4148,0.141927083,0.444010417,0,0,0,,0,205,205,442,1,taron,,,,
,,,,,,5e9133f704391d46ee2bcb31,676192165fb32c2e1fb7aee6,67d1fa2c96f754c4747da134,2025-03-12_18h19.02.693,Tarea de decisión léxica,2024.2.5,Win32,59.88023952,,,,,,,,,,,,,,,,,,,,,,,471.4165,472.4135,a,1,0.319,,0.319,1,472.4139,472.9133,,,,,,59,FEM,WORD,AGR,150,sala,,la,,472.9135,472.9138,0.141927083,0.444010417,0,0,0,,0,206,206,58,1,tafa,,,,
,,,,,,5e9133f704391d46ee2bcb31,676192165fb32c2e1fb7aee6,67d1fa2c96f754c4747da134,2025-03-12_18h19.02.693,Tarea de decisión léxica,2024.2.5,Win32,59.88023952,,,,,,,,,,,,,,,,,,,,,,,472.9165,473.9105,l,1,0.3254,,0.3254,1,473.9105,474.4103,,,,,,184,FEM,NOWORD,AGR,150,raad,,la,,474.4104,474.4108,0.141927083,0.444010417,0,0,0,,0,207,207,183,1,raya,,,,
,,,,,,5e9133f704391d46ee2bcb31,676192165fb32c2e1fb7aee6,67d1fa2c96f754c4747da134,2025-03-12_18h19.02.693,Tarea de decisión léxica,2024.2.5,Win32,59.88023952,,,,,,,,,,,,,,,,,,,,,,,474.4128,475.6767,a,1,0.5837,,0.5837,1,475.6773,476.1764,,,,,,207,MAS,WORD,AGR,150,kilo,,el,,476.1782,476.1792,0.141927083,0.444010417,0,0,0,,0,208,208,206,1,kedo,,,,
,,,,,,5e9133f704391d46ee2bcb31,676192165fb32c2e1fb7aee6,67d1fa2c96f754c4747da134,2025-03-12_18h19.02.693,Tarea de decisión léxica,2024.2.5,Win32,59.88023952,,,,,,,,,,,,,,,,,,,,,,,476.1803,477.2583,a,1,0.3992,,0.3992,1,477.2585,477.7572,,,,,,389,MAS,WORD,DIS,150,cerdo,,la,,477.7576,477.758,0.141927083,0.444010417,0,0,0,,0,209,209,388,1,cenco,,,,
,,,,,,5e9133f704391d46ee2bcb31,676192165fb32c2e1fb7aee6,67d1fa2c96f754c4747da134,2025-03-12_18h19.02.693,Tarea de decisión léxica,2024.2.5,Win32,59.88023952,,,,,,,,,,,,,,,,,,,,,,,477.7602,479.0561,l,1,0.6186,,0.6186,1,479.0566,479.5562,,,,,,72,FEM,NOWORD,AGR,150,urla,,la,,479.5565,479.5571,0.141927083,0.444010417,0,0,0,,0,210,210,71,1,isla,,,,
,,,,,,5e9133f704391d46ee2bcb31,676192165fb32c2e1fb7aee6,67d1fa2c96f754c4747da134,2025-03-12_18h19.02.693,Tarea de decisión léxica,2024.2.5,Win32,59.88023952,,,,,,,,,,,,,,,,,,,,,,,479.5594,480.7215,a,0,0.4963,,0.4963,0,480.7242,481.2208,,,,,,408,FEM,NOWORD,AGR,150,cauba,,la,,481.2211,481.222,0.141927083,0.444010417,0,0,0,,0,211,211,407,1,cueva,,,,
,,,,,,5e9133f704391d46ee2bcb31,676192165fb32c2e1fb7aee6,67d1fa2c96f754c4747da134,2025-03-12_18h19.02.693,Tarea de decisión léxica,2024.2.5,Win32,59.88023952,,,,,,,,,,,,,,,,,,,,,,,481.2242,482.3198,a,1,0.4164,,0.4164,1,482.3217,482.8192,,,,,,429,FEM,WORD,DIS,150,tarta,,el,,482.8195,482.8199,0.141927083,0.444010417,0,0,0,,0,212,212,428,1,tenta,,,,
,,,,,,5e9133f704391d46ee2bcb31,676192165fb32c2e1fb7aee6,67d1fa2c96f754c4747da134,2025-03-12_18h19.02.693,Tarea de decisión léxica,2024.2.5,Win32,59.88023952,,,,,,,,,,,,,,,,,,,,,,,482.822,484.0847,a,1,0.5677,,0.5677,1,484.0851,484.5847,,,,,,151,MAS,WORD,AGR,150,tomo,,el,,484.587,484.5882,0.141927083,0.444010417,0,0,0,,0,213,213,150,1,sogo,,,,
,,,,,,5e9133f704391d46ee2bcb31,676192165fb32c2e1fb7aee6,67d1fa2c96f754c4747da134,2025-03-12_18h19.02.693,Tarea de decisión léxica,2024.2.5,Win32,59.88023952,,,,,,,,,,,,,,,,,,,,,,,484.5894,485.6512,l,1,0.3947,,0.3947,1,485.6513,486.1506,,,,,,34,FEM,NOWORD,DIS,150,loda,,el,,486.1507,486.1512,0.141927083,0.444010417,0,0,0,,0,214,214,33,1,boca,,,,
,,,,,,5e9133f704391d46ee2bcb31,676192165fb32c2e1fb7aee6,67d1fa2c96f754c4747da134,2025-03-12_18h19.02.693,Tarea de decisión léxica,2024.2.5,Win32,59.88023952,,,,,,,,,,,,,,,,,,,,,,,486.1538,487.2315,l,1,0.4085,,0.4085,1,487.2319,487.7304,,,,,,474,FEM,NOWORD,DIS,150,felia,,el,,487.7304,487.7304,0.141927083,0.444010417,0,0,0,,0,215,215,473,1,feria,,,,
,,,,,,5e9133f704391d46ee2bcb31,676192165fb32c2e1fb7aee6,67d1fa2c96f754c4747da134,2025-03-12_18h19.02.693,Tarea de decisión léxica,2024.2.5,Win32,59.88023952,,,,,,,,,,,,,,,,,,,,,,,487.7325,488.9128,l,1,0.5011,,0.5011,1,488.9129,489.4121,,,,,,304,MAS,NOWORD,AGR,150,lanco,,el,,489.4122,489.4122,0.141927083,0.444010417,0,0,0,,0,216,216,303,1,barco,,,,
,,,,,,5e9133f704391d46ee2bcb31,676192165fb32c2e1fb7aee6,67d1fa2c96f754c4747da134,2025-03-12_18h19.02.693,Tarea de decisión léxica,2024.2.5,Win32,59.88023952,,,,,,,,,,,,,,,,,,,,,,,489.4147,490.4782,a,1,0.3838,,0.3838,1,490.4788,490.978,,,,,,87,MAS,WORD,AGR,150,vaso,,el,,490.9783,490.979,0.141927083,0.444010417,0,0,0,,0,217,217,86,1,damo,,,,
,,,,,,5e9133f704391d46ee2bcb31,676192165fb32c2e1fb7aee6,67d1fa2c96f754c4747da134,2025-03-12_18h19.02.693,Tarea de decisión léxica,2024.2.5,Win32,59.88023952,,,,,,,,,,,,,,,,,,,,,,,490.9807,492.0772,l,1,0.4209,,0.4209,1,492.0775,492.5763,,,,,,476,FEM,NOWORD,AGR,150,mucta,,la,,492.5797,492.5806,0.141927083,0.444010417,0,0,0,,0,218,218,475,1,manta,,,,
,,,,,,5e9133f704391d46ee2bcb31,676192165fb32c2e1fb7aee6,67d1fa2c96f754c4747da134,2025-03-12_18h19.02.693,Tarea de decisión léxica,2024.2.5,Win32,59.88023952,,,,,,,,,,,,,,,,,,,,,,,492.5815,493.6918,a,1,0.4422,,0.4422,1,493.6921,494.1916,,,,,,117,MAS,WORD,DIS,150,palo,,la,,494.1917,494.192,0.141927083,0.444010417,0,0,0,,0,219,219,116,1,movo,,,,
,,,,,,5e9133f704391d46ee2bcb31,676192165fb32c2e1fb7aee6,67d1fa2c96f754c4747da134,2025-03-12_18h19.02.693,Tarea de decisión léxica,2024.2.5,Win32,59.88023952,,,,,,,,,,,,,,,,,,,,,,,494.1936,495.2405,l,1,0.3758,,0.3758,1,495.2409,495.7402,,,,,,32,FEM,NOWORD,AGR,150,bova,,la,,495.7405,495.7407,0.141927083,0.444010417,0,0,0,,0,220,220,31,1,ropa,,,,
,,,,,,5e9133f704391d46ee2bcb31,676192165fb32c2e1fb7aee6,67d1fa2c96f754c4747da134,2025-03-12_18h19.02.693,Tarea de decisión léxica,2024.2.5,Win32,59.88023952,,,,,,,,,,,,,,,,,,,,,,,495.7426,496.8901,a,1,0.4695,,0.4695,1,496.8905,497.3884,,,,,,407,FEM,WORD,AGR,150,cueva,,la,,497.3886,497.3889,0.141927083,0.444010417,0,0,0,,0,221,221,406,1,cauba,,,,
,,,,,,5e9133f704391d46ee2bcb31,676192165fb32c2e1fb7aee6,67d1fa2c96f754c4747da134,2025-03-12_18h19.02.693,Tarea de decisión léxica,2024.2.5,Win32,59.88023952,,,,,,,,,,,,,,,,,,,,,,,497.3905,498.5037,a,1,0.4329,,0.4329,1,498.5039,499.0036,,,,,,427,FEM,WORD,AGR,150,oreja,,la,,499.0039,499.0041,0.141927083,0.444010417,0,0,0,,0,222,222,426,1,oseva,,,,
,,,,,,5e9133f704391d46ee2bcb31,676192165fb32c2e1fb7aee6,67d1fa2c96f754c4747da134,2025-03-12_18h19.02.693,Tarea de decisión léxica,2024.2.5,Win32,59.88023952,,,,,,,,,,,,,,,,,,,,,,,499.0058,500.1864,a,1,0.5013,,0.5013,1,500.1867,500.6857,,,,,,473,FEM,WORD,DIS,150,feria,,el,,500.6881,500.6891,0.141927083,0.444010417,0,0,0,,0,223,223,472,1,felia,,,,
,,,,,,5e9133f704391d46ee2bcb31,676192165fb32c2e1fb7aee6,67d1fa2c96f754c4747da134,2025-03-12_18h19.02.693,Tarea de decisión léxica,2024.2.5,Win32,59.88023952,,,,,,,,,,,,,,,,,,,,,,,500.6901,501.7835,l,1,0.4203,,0.4203,1,501.7835,502.2837,,,,,,230,MAS,NOWORD,DIS,150,ador,,la,,502.2839,502.2841,0.141927083,0.444010417,0,0,0,,0,224,224,229,1,amor,,,,
,,,,,,5e9133f704391d46ee2bcb31,676192165fb32c2e1fb7aee6,67d1fa2c96f754c4747da134,2025-03-12_18h19.02.693,Tarea de decisión léxica,2024.2.5,Win32,59.88023952,,,,,,,,,,,,,,,,,,,,,,,502.2857,503.4995,a,1,0.5388,,0.5388,1,503.4997,504,,,,,,383,FEM,WORD,AGR,150,frase,,la,,504.0003,504.0007,0.141927083,0.444010417,0,0,0,,0,225,225,382,1,brame,,,,
,,,,,,5e9133f704391d46ee2bcb31,676192165fb32c2e1fb7aee6,67d1fa2c96f754c4747da134,2025-03-12_18h19.02.693,Tarea de decisión léxica,2024.2.5,Win32,59.88023952,,,,,,,,,,,,,,,,,,,,,,,504.003,505.115,a,1,0.4329,,0.4329,1,505.1152,505.6149,,,,,,409,MAS,WORD,DIS,150,carro,,la,,505.6152,505.6157,0.141927083,0.444010417,0,0,0,,0,226,226,408,1,pafro,,,,
,,,,,,5e9133f704391d46ee2bcb31,676192165fb32c2e1fb7aee6,67d1fa2c96f754c4747da134,2025-03-12_18h19.02.693,Tarea de decisión léxica,2024.2.5,Win32,59.88023952,,,,,,,,,,,,,,,,,,,,,,,505.618,506.7968,l,1,0.5028,,0.5028,1,506.7971,507.2966,,,,,,354,FEM,NOWORD,DIS,150,cezca,,el,,507.2994,507.3005,0.141927083,0.444010417,0,0,0,,0,227,227,353,1,celda,,,,
,,,,,,5e9133f704391d46ee2bcb31,676192165fb32c2e1fb7aee6,67d1fa2c96f754c4747da134,2025-03-12_18h19.02.693,Tarea de decisión léxica,2024.2.5,Win32,59.88023952,,,,,,,,,,,,,,,,,,,,,,,507.3015,508.4285,a,1,0.4521,,0.4521,1,508.429,508.9275,,,,,,169,MAS,WORD,DIS,150,cubo,,la,,508.9277,508.928,0.141927083,0.444010417,0,0,0,,0,228,228,168,1,mibo,,,,
,,,,,,5e9133f704391d46ee2bcb31,676192165fb32c2e1fb7aee6,67d1fa2c96f754c4747da134,2025-03-12_18h19.02.693,Tarea de decisión léxica,2024.2.5,Win32,59.88023952,,,,,,,,,,,,,,,,,,,,,,,508.93,509.9939,l,1,0.3971,,0.3971,1,509.9942,510.4927,,,,,,236,FEM,NOWORD,AGR,150,tria,,la,,510.4928,510.4931,0.141927083,0.444010417,0,0,0,,0,229,229,235,1,grúa,,,,
,,,,,,5e9133f704391d46ee2bcb31,676192165fb32c2e1fb7aee6,67d1fa2c96f754c4747da134,2025-03-12_18h19.02.693,Tarea de decisión léxica,2024.2.5,Win32,59.88023952,,,,,,,,,,,,,,,,,,,,,,,510.4955,511.5917,a,1,0.4175,,0.4175,1,511.592,512.0919,,,,,,471,FEM,WORD,AGR,150,grasa,,la,,512.0924,512.0929,0.141927083,0.444010417,0,0,0,,0,230,230,470,1,prana,,,,
,,,,,,5e9133f704391d46ee2bcb31,676192165fb32c2e1fb7aee6,67d1fa2c96f754c4747da134,2025-03-12_18h19.02.693,Tarea de decisión léxica,2024.2.5,Win32,59.88023952,,,,,,,,,,,,,,,,,,,,,,,512.0953,513.1894,a,1,0.4212,,0.4212,1,513.1897,513.689,,,,,,17,FEM,WORD,DIS,150,mamá,,el,,513.6892,513.6895,0.141927083,0.444010417,0,0,0,,0,231,231,16,1,paba,,,,
,,,,,,5e9133f704391d46ee2bcb31,676192165fb32c2e1fb7aee6,67d1fa2c96f754c4747da134,2025-03-12_18h19.02.693,Tarea de decisión léxica,2024.2.5,Win32,59.88023952,,,,,,,,,,,,,,,,,,,,,,,513.6913,514.7554,l,1,0.3864,,0.3864,1,514.7557,515.254,,,,,,238,MAS,NOWORD,DIS,150,huco,,la,,515.2565,515.2573,0.141927083,0.444010417,0,0,0,,0,232,232,237,1,nudo,,,,
,,,,,,5e9133f704391d46ee2bcb31,676192165fb32c2e1fb7aee6,67d1fa2c96f754c4747da134,2025-03-12_18h19.02.693,Tarea de decisión léxica,2024.2.5,Win32,59.88023952,,,,,,,,,,,,,,,,,,,,,,,515.2581,516.4038,l,1,0.4757,,0.4757,1,516.4042,516.9035,,,,,,6,FEM,NOWORD,DIS,150,poga,,el,,516.9037,516.904,0.141927083,0.444010417,0,0,0,,0,233,233,5,1,cosa,,,,
,,,,,,5e9133f704391d46ee2bcb31,676192165fb32c2e1fb7aee6,67d1fa2c96f754c4747da134,2025-03-12_18h19.02.693,Tarea de decisión léxica,2024.2.5,Win32,59.88023952,,,,,,,,,,,,,,,,,,,,,,,516.9068,518.201,a,1,0.6265,,0.6265,1,518.2013,518.7009,,,,,,123,FEM,WORD,AGR,150,flor,,la,,518.7011,518.7013,0.141927083,0.444010417,0,0,0,,0,234,234,122,1,maba,,,,
,,,,,,5e9133f704391d46ee2bcb31,676192165fb32c2e1fb7aee6,67d1fa2c96f754c4747da134,2025-03-12_18h19.02.693,Tarea de decisión léxica,2024.2.5,Win32,59.88023952,,,,,,,,,,,,,,,,,,,,,,,518.7028,519.7845,a,1,0.4016,,0.4016,1,519.7848,520.2837,,,,,,243,MAS,WORD,AGR,150,amigo,,el,,520.2839,520.2842,0.141927083,0.444010417,0,0,0,,0,235,235,242,1,asamo,,,,
,,,,,,5e9133f704391d46ee2bcb31,676192165fb32c2e1fb7aee6,67d1fa2c96f754c4747da134,2025-03-12_18h19.02.693,Tarea de decisión léxica,2024.2.5,Win32,59.88023952,,,,,,,,,,,,,,,,,,,,,,,520.2865,521.3486,l,1,0.384,,0.384,1,521.349,521.8485,,,,,,462,FEM,NOWORD,DIS,150,pagra,,el,,521.8488,521.8492,0.141927083,0.444010417,0,0,0,,0,236,236,461,1,tabla,,,,
,,,,,,5e9133f704391d46ee2bcb31,676192165fb32c2e1fb7aee6,67d1fa2c96f754c4747da134,2025-03-12_18h19.02.693,Tarea de decisión léxica,2024.2.5,Win32,59.88023952,,,,,,,,,,,,,,,,,,,,,,,521.8512,522.9307,l,1,0.3943,,0.3943,1,522.931,523.4302,,,,,,294,MAS,NOWORD,DIS,150,cacso,,la,,523.4323,523.4334,0.141927083,0.444010417,0,0,0,,0,237,237,293,1,campo,,,,
,,,,,,5e9133f704391d46ee2bcb31,676192165fb32c2e1fb7aee6,67d1fa2c96f754c4747da134,2025-03-12_18h19.02.693,Tarea de decisión léxica,2024.2.5,Win32,59.88023952,,,,,,,,,,,,,,,,,,,,,,,523.4346,524.4304,l,1,0.3207,,0.3207,1,524.4307,524.9293,,,,,,68,FEM,NOWORD,AGR,150,gesa,,la,,524.9296,524.9299,0.141927083,0.444010417,0,0,0,,0,238,238,67,1,nena,,,,
,,,,,,5e9133f704391d46ee2bcb31,676192165fb32c2e1fb7aee6,67d1fa2c96f754c4747da134,2025-03-12_18h19.02.693,Tarea de decisión léxica,2024.2.5,Win32,59.88023952,,,,,,,,,,,,,,,,,,,,,,,524.9327,525.9604,a,0,0.3561,,0.3561,0,525.9625,526.4597,,,,,,10,MAS,NOWORD,DIS,150,sibo,,la,,526.4598,526.4602,0.141927083,0.444010417,0,0,0,,0,239,239,9,1,tipo,,,,
,,,,,,5e9133f704391d46ee2bcb31,676192165fb32c2e1fb7aee6,67d1fa2c96f754c4747da134,2025-03-12_18h19.02.693,Tarea de decisión léxica,2024.2.5,Win32,59.88023952,,,,,,,,,,,,,,,,,,,,,,,526.4626,527.7094,l,1,0.5669,,0.5669,1,527.711,528.2094,,,,,,14,FEM,NOWORD,DIS,150,nola,,el,,528.2096,528.21,0.141927083,0.444010417,0,0,0,,0,240,240,13,1,hora,,,,
,,,,,,5e9133f704391d46ee2bcb31,676192165fb32c2e1fb7aee6,67d1fa2c96f754c4747da134,2025-03-12_18h19.02.693,Tarea de decisión léxica,2024.2.5,Win32,59.88023952,,,,,,,,,,,,,,,,,,,,,,,528.2117,529.3078,l,0,0.4155,,0.4155,0,529.31,529.8065,,,,,,67,FEM,WORD,AGR,150,nena,,la,,529.8067,529.807,0.141927083,0.444010417,0,0,0,,0,241,241,66,1,gesa,,,,
,,,,,,5e9133f704391d46ee2bcb31,676192165fb32c2e1fb7aee6,67d1fa2c96f754c4747da134,2025-03-12_18h19.02.693,Tarea de decisión léxica,2024.2.5,Win32,59.88023952,,,,,,,,,,,,,,,,,,,,,,,529.8089,531.0394,l,1,0.5518,,0.5518,1,531.0414,531.5392,,,,,,218,MAS,NOWORD,DIS,150,budo,,la,,531.5416,531.543,0.141927083,0.444010417,0,0,0,,0,242,242,217,1,luto,,,,
,,,,,,5e9133f704391d46ee2bcb31,676192165fb32c2e1fb7aee6,67d1fa2c96f754c4747da134,2025-03-12_18h19.02.693,Tarea de decisión léxica,2024.2.5,Win32,59.88023952,,,,,,,,,,,,,,,,,,,,,,,531.5444,532.6364,l,1,0.4187,,0.4187,1,532.6365,533.1361,,,,,,142,FEM,NOWORD,DIS,150,sina,,el,,533.1364,533.137,0.141927083,0.444010417,0,0,0,,0,243,243,141,1,cruz,,,,
,,,,,,5e9133f704391d46ee2bcb31,676192165fb32c2e1fb7aee6,67d1fa2c96f754c4747da134,2025-03-12_18h19.02.693,Tarea de decisión léxica,2024.2.5,Win32,59.88023952,,,,,,,,,,,,,,,,,,,,,,,533.1398,534.2866,a,1,0.4664,,0.4664,1,534.2869,534.7859,,,,,,299,FEM,WORD,AGR,150,bolsa,,la,,534.7861,534.7863,0.141927083,0.444010417,0,0,0,,0,244,244,298,1,bosga,,,,
,,,,,,5e9133f704391d46ee2bcb31,676192165fb32c2e1fb7aee6,67d1fa2c96f754c4747da134,2025-03-12_18h19.02.693,Tarea de decisión léxica,2024.2.5,Win32,59.88023952,,,,,,,,,,,,,,,,,,,,,,,534.7881,535.8848,l,0,0.4254,,0.4254,0,535.8865,536.384,,,,,,53,FEM,WORD,DIS,150,boda,,el,,536.3842,536.3845,0.141927083,0.444010417,0,0,0,,0,245,245,52,1,rora,,,,
,,,,,,5e9133f704391d46ee2bcb31,676192165fb32c2e1fb7aee6,67d1fa2c96f754c4747da134,2025-03-12_18h19.02.693,Tarea de decisión léxica,2024.2.5,Win32,59.88023952,,,,,,,,,,,,,,,,,,,,,,,536.3862,537.8828,a,1,0.8249,,0.8249,1,537.8853,538.3825,,,,,,279,FEM,WORD,AGR,150,prisa,,la,,538.3827,538.3831,0.141927083,0.444010417,0,0,0,,0,246,246,278,1,grina,,,,
,,,,,,5e9133f704391d46ee2bcb31,676192165fb32c2e1fb7aee6,67d1fa2c96f754c4747da134,2025-03-12_18h19.02.693,Tarea de decisión léxica,2024.2.5,Win32,59.88023952,,,,,,,,,,,,,,,,,,,,,,,538.3855,539.7481,a,1,0.7047,,0.7047,1,539.7483,540.2473,,,,,,239,MAS,WORD,AGR,150,mozo,,el,,540.2495,540.2506,0.141927083,0.444010417,0,0,0,,0,247,247,238,1,poño,,,,
,,,,,,5e9133f704391d46ee2bcb31,676192165fb32c2e1fb7aee6,67d1fa2c96f754c4747da134,2025-03-12_18h19.02.693,Tarea de decisión léxica,2024.2.5,Win32,59.88023952,,,,,,,,,,,,,,,,,,,,,,,540.2517,541.3791,l,1,0.4561,,0.4561,1,541.3793,541.8783,,,,,,162,MAS,NOWORD,DIS,150,bopo,,la,,541.8785,541.879,0.141927083,0.444010417,0,0,0,,0,248,248,161,1,coro,,,,
,,,,,,5e9133f704391d46ee2bcb31,676192165fb32c2e1fb7aee6,67d1fa2c96f754c4747da134,2025-03-12_18h19.02.693,Tarea de decisión léxica,2024.2.5,Win32,59.88023952,,,,,,,,,,,,,,,,,,,,,,,541.8807,543.0601,l,1,0.4894,,0.4894,1,543.0604,543.5604,,,,,,168,FEM,NOWORD,AGR,150,zifa,,la,,543.5607,543.5611,0.141927083,0.444010417,0,0,0,,0,249,249,167,1,jefa,,,,
,,,,,,5e9133f704391d46ee2bcb31,676192165fb32c2e1fb7aee6,67d1fa2c96f754c4747da134,2025-03-12_18h19.02.693,Tarea de decisión léxica,2024.2.5,Win32,59.88023952,,,,,,,,,,,,,,,,,,,,,,,543.5627,544.6461,a,1,0.4131,,0.4131,1,544.6463,545.1427,,,,,,317,FEM,WORD,DIS,150,playa,,el,,545.143,545.1433,0.141927083,0.444010417,0,0,0,,0,250,250,316,1,plaad,,,,
,,,,,,5e9133f704391d46ee2bcb31,676192165fb32c2e1fb7aee6,67d1fa2c96f754c4747da134,2025-03-12_18h19.02.693,Tarea de decisión léxica,2024.2.5,Win32,59.88023952,,,,,,,,,,,,,,,,,,,,,,,545.1452,546.2399,l,1,0.4263,,0.4263,1,546.2399,546.7401,,,,,,392,MAS,NOWORD,AGR,150,dievo,,el,,546.7428,546.7436,0.141927083,0.444010417,0,0,0,,0,251,251,391,1,dueño,,,,
,,,,,,5e9133f704391d46ee2bcb31,676192165fb32c2e1fb7aee6,67d1fa2c96f754c4747da134,2025-03-12_18h19.02.693,Tarea de decisión léxica,2024.2.5,Win32,59.88023952,,,,,,,,,,,,,,,,,,,,,,,546.7445,547.9062,l,1,0.4834,,0.4834,1,547.9068,548.4061,,,,,,456,MAS,NOWORD,AGR,150,riaso,,el,,548.4063,548.4066,0.141927083,0.444010417,0,0,0,,0,252,252,455,1,reino,,,,
,,,,,,5e9133f704391d46ee2bcb31,676192165fb32c2e1fb7aee6,67d1fa2c96f754c4747da134,2025-03-12_18h19.02.693,Tarea de decisión léxica,2024.2.5,Win32,59.88023952,,,,,,,,,,,,,,,,,,,,,,,548.4089,549.5884,l,1,0.5011,,0.5011,1,549.5887,550.0875,,,,,,46,FEM,NOWORD,DIS,150,pema,,el,,550.0877,550.088,0.141927083,0.444010417,0,0,0,,0,253,253,45,1,mesa,,,,
,,,,,,5e9133f704391d46ee2bcb31,676192165fb32c2e1fb7aee6,67d1fa2c96f754c4747da134,2025-03-12_18h19.02.693,Tarea de decisión léxica,2024.2.5,Win32,59.88023952,,,,,,,,,,,,,,,,,,,,,,,550.0896,551.2364,a,1,0.4676,,0.4676,1,551.2367,551.7363,,,,,,9,MAS,WORD,DIS,150,tipo,,la,,551.7365,551.7371,0.141927083,0.444010417,0,0,0,,0,254,254,8,1,sibo,,,,
,,,,,,5e9133f704391d46ee2bcb31,676192165fb32c2e1fb7aee6,67d1fa2c96f754c4747da134,2025-03-12_18h19.02.693,Tarea de decisión léxica,2024.2.5,Win32,59.88023952,,,,,,,,,,,,,,,,,,,,,,,551.7387,552.8186,a,0,0.4009,,0.4009,0,552.8211,553.3177,,,,,,450,FEM,NOWORD,DIS,150,crusa,,el,,553.3179,553.3182,0.141927083,0.444010417,0,0,0,,0,255,255,449,1,pluma,,,,
,,,,,,5e9133f704391d46ee2bcb31,676192165fb32c2e1fb7aee6,67d1fa2c96f754c4747da134,2025-03-12_18h19.02.693,Tarea de decisión léxica,2024.2.5,Win32,59.88023952,,,,,,,,,,,,,,,,,,,,,,,553.3203,554.4333,a,1,0.4333,,0.4333,1,554.4354,554.932,,,,,,211,FEM,WORD,AGR,150,joya,,la,,554.9341,554.935,0.141927083,0.444010417,0,0,0,,0,256,256,210,1,joad,,,,
,,,,,,5e9133f704391d46ee2bcb31,676192165fb32c2e1fb7aee6,67d1fa2c96f754c4747da134,2025-03-12_18h19.02.693,Tarea de decisión léxica,2024.2.5,Win32,59.88023952,,,,,,,,,,,,,,,,,,,,,,,554.9359,556.1485,l,1,0.5353,,0.5353,1,556.1488,556.6478,,,,,,310,FEM,NOWORD,DIS,150,tirra,,el,,556.648,556.6483,0.141927083,0.444010417,0,0,0,,0,257,257,309,1,silla,,,,
,,,,,,5e9133f704391d46ee2bcb31,676192165fb32c2e1fb7aee6,67d1fa2c96f754c4747da134,2025-03-12_18h19.02.693,Tarea de decisión léxica,2024.2.5,Win32,59.88023952,,,,,,,,,,,,,,,,,,,,,,,556.6499,557.8133,a,1,0.4841,,0.4841,1,557.8139,558.3129,,,,,,435,MAS,WORD,AGR,150,ritmo,,el,,558.3131,558.3134,0.141927083,0.444010417,0,0,0,,0,258,258,434,1,ricno,,,,
,,,,,,5e9133f704391d46ee2bcb31,676192165fb32c2e1fb7aee6,67d1fa2c96f754c4747da134,2025-03-12_18h19.02.693,Tarea de decisión léxica,2024.2.5,Win32,59.88023952,,,,,,,,,,,,,,,,,,,,,,,558.3149,559.4618,l,1,0.4673,,0.4673,1,559.4622,559.9607,,,,,,262,MAS,NOWORD,DIS,150,titio,,la,,559.9609,559.9612,0.141927083,0.444010417,0,0,0,,0,259,259,261,1,sitio,,,,
,,,,,,5e9133f704391d46ee2bcb31,676192165fb32c2e1fb7aee6,67d1fa2c96f754c4747da134,2025-03-12_18h19.02.693,Tarea de decisión léxica,2024.2.5,Win32,59.88023952,,,,,,,,,,,,,,,,,,,,,,,559.9626,561.0433,a,1,0.4103,,0.4103,1,561.0436,561.5419,,,,,,7,MAS,WORD,AGR,150,hijo,,el,,561.542,561.5421,0.141927083,0.444010417,0,0,0,,0,260,260,6,1,nivo,,,,
,,,,,,5e9133f704391d46ee2bcb31,676192165fb32c2e1fb7aee6,67d1fa2c96f754c4747da134,2025-03-12_18h19.02.693,Tarea de decisión léxica,2024.2.5,Win32,59.88023952,,,,,,,,,,,,,,,,,,,,,,,561.5443,562.7415,l,1,0.5279,,0.5279,1,562.7418,563.2407,,,,,,470,MAS,NOWORD,DIS,150,matia,,la,,563.2437,563.2445,0.141927083,0.444010417,0,0,0,,0,261,261,469,1,patio,,,,
,,,,,,5e9133f704391d46ee2bcb31,676192165fb32c2e1fb7aee6,67d1fa2c96f754c4747da134,2025-03-12_18h19.02.693,Tarea de decisión léxica,2024.2.5,Win32,59.88023952,,,,,,,,,,,,,,,,,,,,,,,563.2453,564.3947,a,1,0.48,,0.48,1,564.3948,564.8903,,,,,,13,FEM,WORD,DIS,150,hora,,el,,564.8905,564.891,0.141927083,0.444010417,0,0,0,,0,262,262,12,1,nola,,,,
,,,,,,5e9133f704391d46ee2bcb31,676192165fb32c2e1fb7aee6,67d1fa2c96f754c4747da134,2025-03-12_18h19.02.693,Tarea de decisión léxica,2024.2.5,Win32,59.88023952,,,,,,,,,,,,,,,,,,,,,,,564.8927,566.2385,l,1,0.6669,,0.6669,1,566.239,566.738,,,,,,248,FEM,NOWORD,AGR,150,trida,,la,,566.7383,566.7388,0.141927083,0.444010417,0,0,0,,0,263,263,247,1,chica,,,,
,,,,,,5e9133f704391d46ee2bcb31,676192165fb32c2e1fb7aee6,67d1fa2c96f754c4747da134,2025-03-12_18h19.02.693,Tarea de decisión léxica,2024.2.5,Win32,59.88023952,,,,,,,,,,,,,,,,,,,,,,,566.7405,567.9197,a,0,0.5004,,0.5004,0,567.9217,568.4191,,,,,,404,FEM,NOWORD,AGR,150,grisa,,la,,568.4194,568.4197,0.141927083,0.444010417,0,0,0,,0,264,264,403,1,prima,,,,
