counterbalancing_condition,consent_prescreening.block_1/declare_consent,consent_prescreening.block_1/age_years,consent_prescreening.block_1/gender,consent_prescreening.block_1/language_disorder,consent_prescreening.block_1/first_language,PROLIFIC_PID,STUDY_ID,SESSION_ID,date,expName,psychopyVersion,OS,frameRate,check_prescreening_answers.started,check_prescreening_answers.stopped,Instructions.started,Instructions.stopped,instr_done_keyboard.keys,instr_done_touch.x,instr_done_touch.y,instr_done_touch.leftButton,instr_done_touch.midButton,instr_done_touch.rightButton,instr_done_touch.clicked_name,instruction_pages.thisRepN,instruction_pages.thisTrialN,instruction_pages.thisN,instruction_pages.thisIndex,instruction_pages.ran,pageN,phase,instruct_text,has_image,instruct_image,instr_done_keyboard.rt,instr_done_keyboard.duration,presentTrial.started,presentTrial.stopped,response.keys,response.corr,response.rt,response.duration,rt,corr,feedback.started,feedback.stopped,practice_trials.thisRepN,practice_trials.thisTrialN,practice_trials.thisN,practice_trials.thisIndex,practice_trials.ran,TrialID,Gender,StimulusType,Condition,PrimeDuration,Prime,len,Flanker,corrAns,Break.started,Break.stopped,break_done_touch.x,break_done_touch.y,break_done_touch.leftButton,break_done_touch.midButton,break_done_touch.rightButton,break_done_keyboard.keys,experiment_trials.thisRepN,experiment_trials.thisTrialN,experiment_trials.thisN,experiment_trials.thisIndex,experiment_trials.ran,PairedWith,break_done_keyboard.rt,break_done_keyboard.duration,End.started,End.stopped
0,"[""over_18"",""comfortable"",""read_info"",""consent_given""]",23,M,"[""none""]","[""spanish""]",5e95d4f551598d01d6d455af,676192165fb32c2e1fb7aee6,67d09182b1dd8ba3e7443e1e,2025-03-11_16h48.20.732,Tarea de decisión léxica,2024.2.5,Win32,165.0165017,,,,,,,,,,,,,,,,,,,,,,,,,,,,,,,,,,,,,,,,,,,,,,,,,,,,,,,,,,,,,,,,,
,,,,,,5e95d4f551598d01d6d455af,676192165fb32c2e1fb7aee6,67d09182b1dd8ba3e7443e1e,2025-03-11_16h48.20.732,Tarea de decisión léxica,2024.2.5,Win32,165.0165017,63.068,63.068,,,,,,,,,,,,,,,,,,,,,,,,,,,,,,,,,,,,,,,,,,,,,,,,,,,,,,,,,,,,,,,
,,,,,,5e95d4f551598d01d6d455af,676192165fb32c2e1fb7aee6,67d09182b1dd8ba3e7443e1e,2025-03-11_16h48.20.732,Tarea de decisión léxica,2024.2.5,Win32,165.0165017,,,63.08,146.946,,-0.034259259,-0.428703704,1,0,0,instr_done_button,0,0,0,0,1,1,instructions,"INSTRUCCIONES
Va a realizar una prueba de decisión léxica. Desde el comienzo de la prueba mire siempre al centro de la pantalla. Se presentará una serie de cadenas de letras, una a la vez, en la pantalla. Su tarea consiste en determinar si cada cadena de letras constituye una palabra real en español o una no-palabra (una secuencia de letras que no constituye una palabra real). 

Pulse la tecla ESPACIO para continuar.",0,keyboardresponseWN.png,,,,,,,,,,,,,,,,,,,,,,,,,,,,,,,,,,,,,,,,,,,,
,,,,,,5e95d4f551598d01d6d455af,676192165fb32c2e1fb7aee6,67d09182b1dd8ba3e7443e1e,2025-03-11_16h48.20.732,Tarea de decisión léxica,2024.2.5,Win32,165.0165017,,,146.949,232.296,,-0.048148148,-0.384259259,1,0,0,instr_done_button,0,1,1,1,1,2,instructions,"El procedimiento es el siguiente: Aparecerán dos barras verticales posicionadas en el centro de la pantalla, separadas por un pequeño espacio.Por favor, enfoque su atención en el espacio entre las barras. Esto preparará sus ojos para la siguiente cadena de letras, que aparecerá entre las dos barras durante un instante.

Pulse la tecla ESPACIO para continuar.",0,keyboardresponseNW.png,,,,,,,,,,,,,,,,,,,,,,,,,,,,,,,,,,,,,,,,,,,,
,,,,,,5e95d4f551598d01d6d455af,676192165fb32c2e1fb7aee6,67d09182b1dd8ba3e7443e1e,2025-03-11_16h48.20.732,Tarea de decisión léxica,2024.2.5,Win32,165.0165017,,,232.301,241.719,space,0.253703704,-0.077777778,0,0,0,,0,2,2,2,1,3,instructions,"En el teclado de su dispositivo, pulse la tecla ""A"" si la cadena de letras es una palabra real en español (por ejemplo: ""mano"") y la tecla ""L"" si la cadena de letras es una no-palabra (por ejemplo: ""minu"").
Pulse la tecla ESPACIO para continuar.",1,keyboardresponseWN.png,9.366,,,,,,,,,,,,,,,,,,,,,,,,,,,,,,,,,,,,,,,,,,,
,,,,,,5e95d4f551598d01d6d455af,676192165fb32c2e1fb7aee6,67d09182b1dd8ba3e7443e1e,2025-03-11_16h48.20.732,Tarea de decisión léxica,2024.2.5,Win32,165.0165017,,,241.72,252.815,space,0.253703704,-0.077777778,0,0,0,,0,3,3,3,1,4,instructions,"Es muy importante que responda con la mayor rapidez y precisión posibles. Si no responde dentro de 2 segundos, aparecerá el mensaje ""Muy lento"" y el experimento pasará a la siguiente palabra. Inmediatamente después de su respuesta se indicará si fue correcta o no. Los primeros 15 intentos serán de práctica y habrá dos descansos durante la prueba.

Pulse la tecla ESPACIO  para iniciar la parte de práctica.",0,keyboardresponseWN.png,11.071,,,,,,,,,,,,,,,,,,,,,,,,,,,,,,,,,,,,,,,,,,,
,,,,,,5e95d4f551598d01d6d455af,676192165fb32c2e1fb7aee6,67d09182b1dd8ba3e7443e1e,2025-03-11_16h48.20.732,Tarea de decisión léxica,2024.2.5,Win32,165.0165017,,,,,,,,,,,,,,,,,,,,,,,,252.831,255.009,a,1,1.523,,1.523,1,255.01,255.506,0,0,0,7,1,1008,MAS,WORD,DIS,150,frío,4,la,l,,,,,,,,,,,,,,,,,,
,,,,,,5e95d4f551598d01d6d455af,676192165fb32c2e1fb7aee6,67d09182b1dd8ba3e7443e1e,2025-03-11_16h48.20.732,Tarea de decisión léxica,2024.2.5,Win32,165.0165017,,,,,,,,,,,,,,,,,,,,,,,,255.507,257.336,l,1,1.172,,1.172,1,257.336,257.833,0,1,1,4,1,1005,MAS,NOWORD,DIS,150,nobad,5,la,a,,,,,,,,,,,,,,,,,,
,,,,,,5e95d4f551598d01d6d455af,676192165fb32c2e1fb7aee6,67d09182b1dd8ba3e7443e1e,2025-03-11_16h48.20.732,Tarea de decisión léxica,2024.2.5,Win32,165.0165017,,,,,,,,,,,,,,,,,,,,,,,,257.834,259.628,l,1,1.135,,1.135,1,259.629,260.124,0,2,2,3,1,1004,FEM,NOWORD,AGR,150,bireo,5,la,a,,,,,,,,,,,,,,,,,,
,,,,,,5e95d4f551598d01d6d455af,676192165fb32c2e1fb7aee6,67d09182b1dd8ba3e7443e1e,2025-03-11_16h48.20.732,Tarea de decisión léxica,2024.2.5,Win32,165.0165017,,,,,,,,,,,,,,,,,,,,,,,,260.126,261.536,l,1,0.753,,0.753,1,261.536,262.034,0,3,3,1,1,1002,FEM,NOWORD,DIS,150,mabo,4,el,a,,,,,,,,,,,,,,,,,,
,,,,,,5e95d4f551598d01d6d455af,676192165fb32c2e1fb7aee6,67d09182b1dd8ba3e7443e1e,2025-03-11_16h48.20.732,Tarea de decisión léxica,2024.2.5,Win32,165.0165017,,,,,,,,,,,,,,,,,,,,,,,,262.035,263.275,a,1,0.583,,0.583,1,263.276,263.773,0,4,4,8,1,1009,FEM,WORD,AGR,150,viejo,5,la,l,,,,,,,,,,,,,,,,,,
,,,,,,5e95d4f551598d01d6d455af,676192165fb32c2e1fb7aee6,67d09182b1dd8ba3e7443e1e,2025-03-11_16h48.20.732,Tarea de decisión léxica,2024.2.5,Win32,165.0165017,,,,,,,,,,,,,,,,,,,,,,,,263.773,265.227,l,1,0.796,,0.796,1,265.227,265.724,0,5,5,0,1,1001,FEM,NOWORD,AGR,150,croz,4,la,a,,,,,,,,,,,,,,,,,,
,,,,,,5e95d4f551598d01d6d455af,676192165fb32c2e1fb7aee6,67d09182b1dd8ba3e7443e1e,2025-03-11_16h48.20.732,Tarea de decisión léxica,2024.2.5,Win32,165.0165017,,,,,,,,,,,,,,,,,,,,,,,,265.726,266.857,a,1,0.477,,0.477,1,266.857,267.354,0,6,6,6,1,1007,MAS,WORD,DIS,150,masa,4,la,l,,,,,,,,,,,,,,,,,,
,,,,,,5e95d4f551598d01d6d455af,676192165fb32c2e1fb7aee6,67d09182b1dd8ba3e7443e1e,2025-03-11_16h48.20.732,Tarea de decisión léxica,2024.2.5,Win32,165.0165017,,,,,,,,,,,,,,,,,,,,,,,,267.356,268.524,a,1,0.509,,0.509,1,268.524,269.021,0,7,7,5,1,1006,FEM,WORD,AGR,150,cara,4,la,l,,,,,,,,,,,,,,,,,,
,,,,,,5e95d4f551598d01d6d455af,676192165fb32c2e1fb7aee6,67d09182b1dd8ba3e7443e1e,2025-03-11_16h48.20.732,Tarea de decisión léxica,2024.2.5,Win32,165.0165017,,,,,,,,,,,,,,,,,,,,,,,,269.021,270.221,l,1,0.539,,0.539,1,270.221,270.718,0,8,8,2,1,1003,FEM,NOWORD,DIS,150,muvor,5,el,a,,,,,,,,,,,,,,,,,,
,,,,,,5e95d4f551598d01d6d455af,676192165fb32c2e1fb7aee6,67d09182b1dd8ba3e7443e1e,2025-03-11_16h48.20.732,Tarea de decisión léxica,2024.2.5,Win32,165.0165017,,,,,,,,,,,,,,,,,,,,,,,,270.719,272.173,a,1,0.795,,0.795,1,272.174,272.669,0,9,9,9,1,1010,MAS,WORD,DIS,150,video,5,la,l,,,,,,,,,,,,,,,,,,
,,,,,,5e95d4f551598d01d6d455af,676192165fb32c2e1fb7aee6,67d09182b1dd8ba3e7443e1e,2025-03-11_16h48.20.732,Tarea de decisión léxica,2024.2.5,Win32,165.0165017,,,282.119,291.014,space,0.253703704,-0.077777778,0,0,0,,,,,,,,,,,,8.877,,291.057,292.197,a,1,0.483,,0.483,1,292.198,292.693,,,,,,237,MAS,WORD,AGR,150,nudo,,el,,292.693,292.697,0.253703704,-0.077777778,0,0,0,,0,0,0,236,1,huco,,,,
,,,,,,5e95d4f551598d01d6d455af,676192165fb32c2e1fb7aee6,67d09182b1dd8ba3e7443e1e,2025-03-11_16h48.20.732,Tarea de decisión léxica,2024.2.5,Win32,165.0165017,,,,,,,,,,,,,,,,,,,,,,,,292.698,293.735,l,1,0.376,,0.376,1,293.735,294.232,,,,,,478,MAS,NOWORD,DIS,150,hocon,,la,,294.232,294.232,0.253703704,-0.077777778,0,0,0,,0,1,1,477,1,botón,,,,
,,,,,,5e95d4f551598d01d6d455af,676192165fb32c2e1fb7aee6,67d09182b1dd8ba3e7443e1e,2025-03-11_16h48.20.732,Tarea de decisión léxica,2024.2.5,Win32,165.0165017,,,,,,,,,,,,,,,,,,,,,,,,294.234,295.263,a,1,0.371,,0.371,1,295.263,295.759,,,,,,467,MAS,WORD,AGR,150,piano,,el,,295.76,295.761,0.253703704,-0.077777778,0,0,0,,0,2,2,466,1,peiso,,,,
,,,,,,5e95d4f551598d01d6d455af,676192165fb32c2e1fb7aee6,67d09182b1dd8ba3e7443e1e,2025-03-11_16h48.20.732,Tarea de decisión léxica,2024.2.5,Win32,165.0165017,,,,,,,,,,,,,,,,,,,,,,,,295.762,296.766,a,1,0.348,,0.348,1,296.766,297.263,,,,,,287,FEM,WORD,DIS,150,lista,,el,,297.263,297.263,0.253703704,-0.077777778,0,0,0,,0,3,3,286,1,fosta,,,,
,,,,,,5e95d4f551598d01d6d455af,676192165fb32c2e1fb7aee6,67d09182b1dd8ba3e7443e1e,2025-03-11_16h48.20.732,Tarea de decisión léxica,2024.2.5,Win32,165.0165017,,,,,,,,,,,,,,,,,,,,,,,,297.264,298.293,a,0,0.374,,0.374,0,298.294,298.79,,,,,,206,FEM,NOWORD,DIS,150,bara,,el,,298.79,298.79,0.253703704,-0.077777778,0,0,0,,0,4,4,205,1,rana,,,,
,,,,,,5e95d4f551598d01d6d455af,676192165fb32c2e1fb7aee6,67d09182b1dd8ba3e7443e1e,2025-03-11_16h48.20.732,Tarea de decisión léxica,2024.2.5,Win32,165.0165017,,,,,,,,,,,,,,,,,,,,,,,,298.791,299.905,a,1,0.453,,0.453,1,299.905,300.402,,,,,,309,FEM,WORD,AGR,150,silla,,la,,300.402,300.402,0.253703704,-0.077777778,0,0,0,,0,5,5,308,1,tirra,,,,
,,,,,,5e95d4f551598d01d6d455af,676192165fb32c2e1fb7aee6,67d09182b1dd8ba3e7443e1e,2025-03-11_16h48.20.732,Tarea de decisión léxica,2024.2.5,Win32,165.0165017,,,,,,,,,,,,,,,,,,,,,,,,300.403,301.602,a,1,0.54,,0.54,1,301.602,302.098,,,,,,459,MAS,WORD,DIS,150,grado,,la,,302.098,302.099,0.253703704,-0.077777778,0,0,0,,0,6,6,458,1,fraco,,,,
,,,,,,5e95d4f551598d01d6d455af,676192165fb32c2e1fb7aee6,67d09182b1dd8ba3e7443e1e,2025-03-11_16h48.20.732,Tarea de decisión léxica,2024.2.5,Win32,165.0165017,,,,,,,,,,,,,,,,,,,,,,,,302.099,303.25,l,1,0.491,,0.491,1,303.25,303.747,,,,,,268,MAS,NOWORD,AGR,150,figro,,el,,303.747,303.749,0.253703704,-0.077777778,0,0,0,,0,7,7,267,1,libro,,,,
,,,,,,5e95d4f551598d01d6d455af,676192165fb32c2e1fb7aee6,67d09182b1dd8ba3e7443e1e,2025-03-11_16h48.20.732,Tarea de decisión léxica,2024.2.5,Win32,165.0165017,,,,,,,,,,,,,,,,,,,,,,,,303.749,304.935,l,1,0.529,,0.529,1,304.936,305.438,,,,,,322,MAS,NOWORD,DIS,150,rarco,,la,,305.438,305.438,0.253703704,-0.077777778,0,0,0,,0,8,8,321,1,banco,,,,
,,,,,,5e95d4f551598d01d6d455af,676192165fb32c2e1fb7aee6,67d09182b1dd8ba3e7443e1e,2025-03-11_16h48.20.732,Tarea de decisión léxica,2024.2.5,Win32,165.0165017,,,,,,,,,,,,,,,,,,,,,,,,305.438,306.608,l,1,0.51,,0.51,1,306.608,307.105,,,,,,324,FEM,NOWORD,AGR,150,certa,,la,,307.105,307.105,0.253703704,-0.077777778,0,0,0,,0,9,9,323,1,cinta,,,,
,,,,,,5e95d4f551598d01d6d455af,676192165fb32c2e1fb7aee6,67d09182b1dd8ba3e7443e1e,2025-03-11_16h48.20.732,Tarea de decisión léxica,2024.2.5,Win32,165.0165017,,,,,,,,,,,,,,,,,,,,,,,,307.106,308.28,a,1,0.515,,0.515,1,308.28,308.777,,,,,,213,FEM,WORD,AGR,150,rama,,la,,308.777,308.777,0.253703704,-0.077777778,0,0,0,,0,10,10,212,1,bana,,,,
,,,,,,5e95d4f551598d01d6d455af,676192165fb32c2e1fb7aee6,67d09182b1dd8ba3e7443e1e,2025-03-11_16h48.20.732,Tarea de decisión léxica,2024.2.5,Win32,165.0165017,,,,,,,,,,,,,,,,,,,,,,,,308.779,309.857,a,1,0.42,,0.42,1,309.857,310.353,,,,,,11,MAS,WORD,AGR,150,lado,,el,,310.353,310.355,0.253703704,-0.077777778,0,0,0,,0,11,11,10,1,bapo,,,,
,,,,,,5e95d4f551598d01d6d455af,676192165fb32c2e1fb7aee6,67d09182b1dd8ba3e7443e1e,2025-03-11_16h48.20.732,Tarea de decisión léxica,2024.2.5,Win32,165.0165017,,,,,,,,,,,,,,,,,,,,,,,,310.355,311.499,l,1,0.486,,0.486,1,311.499,311.996,,,,,,272,FEM,NOWORD,AGR,150,refal,,la,,311.996,311.996,0.253703704,-0.077777778,0,0,0,,0,12,12,271,1,señal,,,,
,,,,,,5e95d4f551598d01d6d455af,676192165fb32c2e1fb7aee6,67d09182b1dd8ba3e7443e1e,2025-03-11_16h48.20.732,Tarea de decisión léxica,2024.2.5,Win32,165.0165017,,,,,,,,,,,,,,,,,,,,,,,,311.996,313.25,l,1,0.594,,0.594,1,313.25,313.747,,,,,,330,MAS,NOWORD,DIS,150,nueno,,la,,313.747,313.747,0.253703704,-0.077777778,0,0,0,,0,13,13,329,1,hueso,,,,
,,,,,,5e95d4f551598d01d6d455af,676192165fb32c2e1fb7aee6,67d09182b1dd8ba3e7443e1e,2025-03-11_16h48.20.732,Tarea de decisión léxica,2024.2.5,Win32,165.0165017,,,,,,,,,,,,,,,,,,,,,,,,313.747,314.82,l,1,0.413,,0.413,1,314.82,315.317,,,,,,22,MAS,NOWORD,DIS,150,blan,,la,,315.317,315.317,0.253703704,-0.077777778,0,0,0,,0,14,14,21,1,plan,,,,
,,,,,,5e95d4f551598d01d6d455af,676192165fb32c2e1fb7aee6,67d09182b1dd8ba3e7443e1e,2025-03-11_16h48.20.732,Tarea de decisión léxica,2024.2.5,Win32,165.0165017,,,,,,,,,,,,,,,,,,,,,,,,315.318,316.383,a,1,0.41,,0.41,1,316.383,316.881,,,,,,421,MAS,WORD,DIS,150,primo,,la,,316.881,316.881,0.253703704,-0.077777778,0,0,0,,0,15,15,420,1,griso,,,,
,,,,,,5e95d4f551598d01d6d455af,676192165fb32c2e1fb7aee6,67d09182b1dd8ba3e7443e1e,2025-03-11_16h48.20.732,Tarea de decisión léxica,2024.2.5,Win32,165.0165017,,,,,,,,,,,,,,,,,,,,,,,,316.881,317.996,a,1,0.456,,0.456,1,317.996,318.493,,,,,,241,MAS,WORD,AGR,150,mundo,,el,,318.493,318.494,0.253703704,-0.077777778,0,0,0,,0,16,16,240,1,mirdo,,,,
,,,,,,5e95d4f551598d01d6d455af,676192165fb32c2e1fb7aee6,67d09182b1dd8ba3e7443e1e,2025-03-11_16h48.20.732,Tarea de decisión léxica,2024.2.5,Win32,165.0165017,,,,,,,,,,,,,,,,,,,,,,,,318.494,319.619,l,0,0.467,,0.467,0,319.62,320.117,,,,,,463,FEM,WORD,DIS,150,cabra,,el,,320.117,320.117,0.253703704,-0.077777778,0,0,0,,0,17,17,462,1,matla,,,,
,,,,,,5e95d4f551598d01d6d455af,676192165fb32c2e1fb7aee6,67d09182b1dd8ba3e7443e1e,2025-03-11_16h48.20.732,Tarea de decisión léxica,2024.2.5,Win32,165.0165017,,,,,,,,,,,,,,,,,,,,,,,,320.117,321.317,l,1,0.538,,0.538,1,321.317,321.813,,,,,,286,MAS,NOWORD,DIS,150,echor,,la,,321.813,321.813,0.253703704,-0.077777778,0,0,0,,0,18,18,285,1,error,,,,
,,,,,,5e95d4f551598d01d6d455af,676192165fb32c2e1fb7aee6,67d09182b1dd8ba3e7443e1e,2025-03-11_16h48.20.732,Tarea de decisión léxica,2024.2.5,Win32,165.0165017,,,,,,,,,,,,,,,,,,,,,,,,321.814,323.189,l,1,0.716,,0.716,1,323.19,323.686,,,,,,462,FEM,NOWORD,DIS,150,pagra,,el,,323.686,323.686,0.253703704,-0.077777778,0,0,0,,0,19,19,461,1,tabla,,,,
,,,,,,5e95d4f551598d01d6d455af,676192165fb32c2e1fb7aee6,67d09182b1dd8ba3e7443e1e,2025-03-11_16h48.20.732,Tarea de decisión léxica,2024.2.5,Win32,165.0165017,,,,,,,,,,,,,,,,,,,,,,,,323.688,324.892,l,1,0.546,,0.546,1,324.892,325.389,,,,,,24,FEM,NOWORD,AGR,150,giva,,la,,325.389,325.389,0.253703704,-0.077777778,0,0,0,,0,20,20,23,1,hija,,,,
,,,,,,5e95d4f551598d01d6d455af,676192165fb32c2e1fb7aee6,67d09182b1dd8ba3e7443e1e,2025-03-11_16h48.20.732,Tarea de decisión léxica,2024.2.5,Win32,165.0165017,,,,,,,,,,,,,,,,,,,,,,,,325.39,326.669,l,1,0.617,,0.617,1,326.669,327.165,,,,,,340,MAS,NOWORD,AGR,150,plajo,,el,,327.165,327.167,0.253703704,-0.077777778,0,0,0,,0,21,21,339,1,brazo,,,,
,,,,,,5e95d4f551598d01d6d455af,676192165fb32c2e1fb7aee6,67d09182b1dd8ba3e7443e1e,2025-03-11_16h48.20.732,Tarea de decisión léxica,2024.2.5,Win32,165.0165017,,,,,,,,,,,,,,,,,,,,,,,,327.168,328.401,l,1,0.578,,0.578,1,328.402,328.898,,,,,,418,FEM,NOWORD,DIS,150,banja,,el,,328.898,328.899,0.253703704,-0.077777778,0,0,0,,0,22,22,417,1,barba,,,,
,,,,,,5e95d4f551598d01d6d455af,676192165fb32c2e1fb7aee6,67d09182b1dd8ba3e7443e1e,2025-03-11_16h48.20.732,Tarea de decisión léxica,2024.2.5,Win32,165.0165017,,,,,,,,,,,,,,,,,,,,,,,,328.899,329.916,a,1,0.357,,0.357,1,329.917,330.413,,,,,,449,FEM,WORD,DIS,150,pluma,,el,,330.414,330.414,0.253703704,-0.077777778,0,0,0,,0,23,23,448,1,crusa,,,,
,,,,,,5e95d4f551598d01d6d455af,676192165fb32c2e1fb7aee6,67d09182b1dd8ba3e7443e1e,2025-03-11_16h48.20.732,Tarea de decisión léxica,2024.2.5,Win32,165.0165017,,,,,,,,,,,,,,,,,,,,,,,,330.415,331.559,a,1,0.485,,0.485,1,331.559,332.056,,,,,,437,FEM,WORD,AGR,150,plaza,,la,,332.056,332.056,0.253703704,-0.077777778,0,0,0,,0,24,24,436,1,glava,,,,
,,,,,,5e95d4f551598d01d6d455af,676192165fb32c2e1fb7aee6,67d09182b1dd8ba3e7443e1e,2025-03-11_16h48.20.732,Tarea de decisión léxica,2024.2.5,Win32,165.0165017,,,,,,,,,,,,,,,,,,,,,,,,332.057,333.189,a,1,0.472,,0.472,1,333.189,333.686,,,,,,173,FEM,WORD,DIS,150,rosa,,el,,333.686,333.686,0.253703704,-0.077777778,0,0,0,,0,25,25,172,1,boma,,,,
,,,,,,5e95d4f551598d01d6d455af,676192165fb32c2e1fb7aee6,67d09182b1dd8ba3e7443e1e,2025-03-11_16h48.20.732,Tarea de decisión léxica,2024.2.5,Win32,165.0165017,,,,,,,,,,,,,,,,,,,,,,,,333.687,334.813,a,1,0.467,,0.467,1,334.813,335.31,,,,,,217,MAS,WORD,AGR,150,luto,,el,,335.311,335.312,0.253703704,-0.077777778,0,0,0,,0,26,26,216,1,budo,,,,
,,,,,,5e95d4f551598d01d6d455af,676192165fb32c2e1fb7aee6,67d09182b1dd8ba3e7443e1e,2025-03-11_16h48.20.732,Tarea de decisión léxica,2024.2.5,Win32,165.0165017,,,,,,,,,,,,,,,,,,,,,,,,335.313,336.359,a,1,0.39,,0.39,1,336.359,336.856,,,,,,461,FEM,WORD,AGR,150,tabla,,la,,336.856,336.856,0.253703704,-0.077777778,0,0,0,,0,27,27,460,1,pagra,,,,
,,,,,,5e95d4f551598d01d6d455af,676192165fb32c2e1fb7aee6,67d09182b1dd8ba3e7443e1e,2025-03-11_16h48.20.732,Tarea de decisión léxica,2024.2.5,Win32,165.0165017,,,,,,,,,,,,,,,,,,,,,,,,336.857,337.867,a,1,0.353,,0.353,1,337.868,338.365,,,,,,291,FEM,WORD,DIS,150,pista,,el,,338.365,338.365,0.253703704,-0.077777778,0,0,0,,0,28,28,290,1,mesta,,,,
,,,,,,5e95d4f551598d01d6d455af,676192165fb32c2e1fb7aee6,67d09182b1dd8ba3e7443e1e,2025-03-11_16h48.20.732,Tarea de decisión léxica,2024.2.5,Win32,165.0165017,,,,,,,,,,,,,,,,,,,,,,,,338.366,339.546,a,1,0.524,,0.524,1,339.546,340.043,,,,,,211,FEM,WORD,DIS,150,joya,,el,,340.043,340.043,0.253703704,-0.077777778,0,0,0,,0,29,29,210,1,joad,,,,
,,,,,,5e95d4f551598d01d6d455af,676192165fb32c2e1fb7aee6,67d09182b1dd8ba3e7443e1e,2025-03-11_16h48.20.732,Tarea de decisión léxica,2024.2.5,Win32,165.0165017,,,,,,,,,,,,,,,,,,,,,,,,340.044,341.243,l,1,0.541,,0.541,1,341.243,341.741,,,,,,28,MAS,NOWORD,AGR,150,ravo,,el,,341.741,341.741,0.253703704,-0.077777778,0,0,0,,0,30,30,27,1,baño,,,,
,,,,,,5e95d4f551598d01d6d455af,676192165fb32c2e1fb7aee6,67d09182b1dd8ba3e7443e1e,2025-03-11_16h48.20.732,Tarea de decisión léxica,2024.2.5,Win32,165.0165017,,,,,,,,,,,,,,,,,,,,,,,,341.742,343.086,l,1,0.686,,0.686,1,343.086,343.583,,,,,,86,MAS,NOWORD,DIS,150,babo,,la,,343.583,343.584,0.253703704,-0.077777778,0,0,0,,0,31,31,85,1,lago,,,,
,,,,,,5e95d4f551598d01d6d455af,676192165fb32c2e1fb7aee6,67d09182b1dd8ba3e7443e1e,2025-03-11_16h48.20.732,Tarea de decisión léxica,2024.2.5,Win32,165.0165017,,,,,,,,,,,,,,,,,,,,,,,,343.585,344.843,a,0,0.603,,0.603,0,344.844,345.34,,,,,,64,FEM,NOWORD,AGR,150,funa,,la,,345.34,345.34,0.253703704,-0.077777778,0,0,0,,0,32,32,63,1,luna,,,,
,,,,,,5e95d4f551598d01d6d455af,676192165fb32c2e1fb7aee6,67d09182b1dd8ba3e7443e1e,2025-03-11_16h48.20.732,Tarea de decisión léxica,2024.2.5,Win32,165.0165017,,,,,,,,,,,,,,,,,,,,,,,,345.34,346.395,a,0,0.397,,0.397,0,346.395,346.892,,,,,,336,FEM,NOWORD,AGR,150,pesta,,la,,346.892,346.892,0.253703704,-0.077777778,0,0,0,,0,33,33,335,1,costa,,,,
,,,,,,5e95d4f551598d01d6d455af,676192165fb32c2e1fb7aee6,67d09182b1dd8ba3e7443e1e,2025-03-11_16h48.20.732,Tarea de decisión léxica,2024.2.5,Win32,165.0165017,,,,,,,,,,,,,,,,,,,,,,,,346.892,348.383,l,1,0.831,,0.831,1,348.383,348.879,,,,,,372,FEM,NOWORD,AGR,150,mosta,,la,,348.88,348.88,0.253703704,-0.077777778,0,0,0,,0,34,34,371,1,pasta,,,,
,,,,,,5e95d4f551598d01d6d455af,676192165fb32c2e1fb7aee6,67d09182b1dd8ba3e7443e1e,2025-03-11_16h48.20.732,Tarea de decisión léxica,2024.2.5,Win32,165.0165017,,,,,,,,,,,,,,,,,,,,,,,,348.88,350.449,l,1,0.91,,0.91,1,350.449,350.946,,,,,,34,FEM,NOWORD,DIS,150,loda,,el,,350.947,350.947,0.253703704,-0.077777778,0,0,0,,0,35,35,33,1,boca,,,,
,,,,,,5e95d4f551598d01d6d455af,676192165fb32c2e1fb7aee6,67d09182b1dd8ba3e7443e1e,2025-03-11_16h48.20.732,Tarea de decisión léxica,2024.2.5,Win32,165.0165017,,,,,,,,,,,,,,,,,,,,,,,,350.948,352.158,l,1,0.552,,0.552,1,352.159,352.655,,,,,,378,MAS,NOWORD,DIS,150,gaulo,,la,,352.655,352.656,0.253703704,-0.077777778,0,0,0,,0,36,36,377,1,hielo,,,,
,,,,,,5e95d4f551598d01d6d455af,676192165fb32c2e1fb7aee6,67d09182b1dd8ba3e7443e1e,2025-03-11_16h48.20.732,Tarea de decisión léxica,2024.2.5,Win32,165.0165017,,,,,,,,,,,,,,,,,,,,,,,,352.656,353.862,a,1,0.548,,0.548,1,353.862,354.358,,,,,,383,FEM,WORD,DIS,150,frase,,el,,354.358,354.358,0.253703704,-0.077777778,0,0,0,,0,37,37,382,1,brame,,,,
,,,,,,5e95d4f551598d01d6d455af,676192165fb32c2e1fb7aee6,67d09182b1dd8ba3e7443e1e,2025-03-11_16h48.20.732,Tarea de decisión léxica,2024.2.5,Win32,165.0165017,,,,,,,,,,,,,,,,,,,,,,,,354.359,355.473,a,1,0.455,,0.455,1,355.473,355.97,,,,,,91,FEM,WORD,DIS,150,taza,,el,,355.97,355.971,0.253703704,-0.077777778,0,0,0,,0,38,38,90,1,sava,,,,
,,,,,,5e95d4f551598d01d6d455af,676192165fb32c2e1fb7aee6,67d09182b1dd8ba3e7443e1e,2025-03-11_16h48.20.732,Tarea de decisión léxica,2024.2.5,Win32,165.0165017,,,,,,,,,,,,,,,,,,,,,,,,355.971,357.036,a,1,0.409,,0.409,1,357.037,357.534,,,,,,321,MAS,WORD,DIS,150,banco,,la,,357.534,357.534,0.253703704,-0.077777778,0,0,0,,0,39,39,320,1,rarco,,,,
,,,,,,5e95d4f551598d01d6d455af,676192165fb32c2e1fb7aee6,67d09182b1dd8ba3e7443e1e,2025-03-11_16h48.20.732,Tarea de decisión léxica,2024.2.5,Win32,165.0165017,,,,,,,,,,,,,,,,,,,,,,,,357.534,358.837,l,1,0.646,,0.646,1,358.837,359.334,,,,,,402,MAS,NOWORD,DIS,150,pirvo,,la,,359.336,359.339,0.253703704,-0.077777778,0,0,0,,0,40,40,401,1,polvo,,,,
,,,,,,5e95d4f551598d01d6d455af,676192165fb32c2e1fb7aee6,67d09182b1dd8ba3e7443e1e,2025-03-11_16h48.20.732,Tarea de decisión léxica,2024.2.5,Win32,165.0165017,,,,,,,,,,,,,,,,,,,,,,,,359.341,360.576,l,1,0.577,,0.577,1,360.577,361.073,,,,,,456,MAS,NOWORD,AGR,150,riaso,,el,,361.073,361.074,0.253703704,-0.077777778,0,0,0,,0,41,41,455,1,reino,,,,
,,,,,,5e95d4f551598d01d6d455af,676192165fb32c2e1fb7aee6,67d09182b1dd8ba3e7443e1e,2025-03-11_16h48.20.732,Tarea de decisión léxica,2024.2.5,Win32,165.0165017,,,,,,,,,,,,,,,,,,,,,,,,361.074,362.31,l,1,0.578,,0.578,1,362.31,362.806,,,,,,438,FEM,NOWORD,DIS,150,glava,,el,,362.806,362.806,0.253703704,-0.077777778,0,0,0,,0,42,42,437,1,plaza,,,,
,,,,,,5e95d4f551598d01d6d455af,676192165fb32c2e1fb7aee6,67d09182b1dd8ba3e7443e1e,2025-03-11_16h48.20.732,Tarea de decisión léxica,2024.2.5,Win32,165.0165017,,,,,,,,,,,,,,,,,,,,,,,,362.807,363.976,l,1,0.51,,0.51,1,363.976,364.473,,,,,,380,MAS,NOWORD,AGR,150,tunso,,el,,364.473,364.473,0.253703704,-0.077777778,0,0,0,,0,43,43,379,1,turno,,,,
,,,,,,5e95d4f551598d01d6d455af,676192165fb32c2e1fb7aee6,67d09182b1dd8ba3e7443e1e,2025-03-11_16h48.20.732,Tarea de decisión léxica,2024.2.5,Win32,165.0165017,,,,,,,,,,,,,,,,,,,,,,,,364.474,365.673,l,1,0.54,,0.54,1,365.673,366.17,,,,,,260,MAS,NOWORD,AGR,150,jaumo,,el,,366.17,366.17,0.253703704,-0.077777778,0,0,0,,0,44,44,259,1,juego,,,,
,,,,,,5e95d4f551598d01d6d455af,676192165fb32c2e1fb7aee6,67d09182b1dd8ba3e7443e1e,2025-03-11_16h48.20.732,Tarea de decisión léxica,2024.2.5,Win32,165.0165017,,,,,,,,,,,,,,,,,,,,,,,,366.171,367.121,a,1,0.289,,0.289,1,367.121,367.618,,,,,,261,MAS,WORD,AGR,150,sitio,,el,,367.619,367.62,0.253703704,-0.077777778,0,0,0,,0,45,45,260,1,titio,,,,
,,,,,,5e95d4f551598d01d6d455af,676192165fb32c2e1fb7aee6,67d09182b1dd8ba3e7443e1e,2025-03-11_16h48.20.732,Tarea de decisión léxica,2024.2.5,Win32,165.0165017,,,,,,,,,,,,,,,,,,,,,,,,367.621,368.545,a,1,0.267,,0.267,1,368.546,369.042,,,,,,121,MAS,WORD,AGR,150,hoyo,,el,,369.042,369.043,0.253703704,-0.077777778,0,0,0,,0,46,46,120,1,bomo,,,,
,,,,,,5e95d4f551598d01d6d455af,676192165fb32c2e1fb7aee6,67d09182b1dd8ba3e7443e1e,2025-03-11_16h48.20.732,Tarea de decisión léxica,2024.2.5,Win32,165.0165017,,,,,,,,,,,,,,,,,,,,,,,,369.043,369.921,a,0,0.219,,0.219,0,369.922,370.418,,,,,,470,MAS,NOWORD,DIS,150,matia,,la,,370.418,370.418,0.253703704,-0.077777778,0,0,0,,0,47,47,469,1,patio,,,,
,,,,,,5e95d4f551598d01d6d455af,676192165fb32c2e1fb7aee6,67d09182b1dd8ba3e7443e1e,2025-03-11_16h48.20.732,Tarea de decisión léxica,2024.2.5,Win32,165.0165017,,,,,,,,,,,,,,,,,,,,,,,,370.419,371.473,a,1,0.397,,0.397,1,371.474,371.97,,,,,,385,FEM,WORD,AGR,150,letra,,la,,371.97,371.97,0.253703704,-0.077777778,0,0,0,,0,48,48,384,1,febra,,,,
,,,,,,5e95d4f551598d01d6d455af,676192165fb32c2e1fb7aee6,67d09182b1dd8ba3e7443e1e,2025-03-11_16h48.20.732,Tarea de decisión léxica,2024.2.5,Win32,165.0165017,,,,,,,,,,,,,,,,,,,,,,,,371.97,373.146,a,1,0.516,,0.516,1,373.146,373.643,,,,,,313,MAS,WORD,DIS,150,novio,,la,,373.643,373.643,0.253703704,-0.077777778,0,0,0,,0,49,49,312,1,govio,,,,
,,,,,,5e95d4f551598d01d6d455af,676192165fb32c2e1fb7aee6,67d09182b1dd8ba3e7443e1e,2025-03-11_16h48.20.732,Tarea de decisión léxica,2024.2.5,Win32,165.0165017,,,,,,,,,,,,,,,,,,,,,,,,373.644,374.745,a,1,0.444,,0.444,1,374.745,375.243,,,,,,233,FEM,WORD,AGR,150,lana,,la,,375.243,375.244,0.253703704,-0.077777778,0,0,0,,0,50,50,232,1,fasa,,,,
,,,,,,5e95d4f551598d01d6d455af,676192165fb32c2e1fb7aee6,67d09182b1dd8ba3e7443e1e,2025-03-11_16h48.20.732,Tarea de decisión léxica,2024.2.5,Win32,165.0165017,,,,,,,,,,,,,,,,,,,,,,,,375.244,376.267,a,1,0.364,,0.364,1,376.267,376.763,,,,,,229,MAS,WORD,DIS,150,amor,,la,,376.764,376.764,0.253703704,-0.077777778,0,0,0,,0,51,51,228,1,ador,,,,
,,,,,,5e95d4f551598d01d6d455af,676192165fb32c2e1fb7aee6,67d09182b1dd8ba3e7443e1e,2025-03-11_16h48.20.732,Tarea de decisión léxica,2024.2.5,Win32,165.0165017,,,,,,,,,,,,,,,,,,,,,,,,376.764,377.867,a,0,0.443,,0.443,0,377.868,378.364,,,,,,214,FEM,NOWORD,DIS,150,bana,,el,,378.364,378.364,0.253703704,-0.077777778,0,0,0,,0,52,52,213,1,rama,,,,
,,,,,,5e95d4f551598d01d6d455af,676192165fb32c2e1fb7aee6,67d09182b1dd8ba3e7443e1e,2025-03-11_16h48.20.732,Tarea de decisión léxica,2024.2.5,Win32,165.0165017,,,,,,,,,,,,,,,,,,,,,,,,378.364,379.515,a,1,0.491,,0.491,1,379.516,380.012,,,,,,401,MAS,WORD,DIS,150,polvo,,la,,380.012,380.012,0.253703704,-0.077777778,0,0,0,,0,53,53,400,1,pirvo,,,,
,,,,,,5e95d4f551598d01d6d455af,676192165fb32c2e1fb7aee6,67d09182b1dd8ba3e7443e1e,2025-03-11_16h48.20.732,Tarea de decisión léxica,2024.2.5,Win32,165.0165017,,,,,,,,,,,,,,,,,,,,,,,,380.014,381.2,l,1,0.53,,0.53,1,381.201,381.696,,,,,,190,MAS,NOWORD,DIS,150,muvo,,la,,381.696,381.696,0.253703704,-0.077777778,0,0,0,,0,54,54,189,1,puño,,,,
,,,,,,5e95d4f551598d01d6d455af,676192165fb32c2e1fb7aee6,67d09182b1dd8ba3e7443e1e,2025-03-11_16h48.20.732,Tarea de decisión léxica,2024.2.5,Win32,165.0165017,,,,,,,,,,,,,,,,,,,,,,,,381.697,382.885,l,1,0.527,,0.527,1,382.885,383.382,,,,,,296,MAS,NOWORD,AGR,150,goler,,el,,383.382,383.383,0.253703704,-0.077777778,0,0,0,,0,55,55,295,1,dolor,,,,
,,,,,,5e95d4f551598d01d6d455af,676192165fb32c2e1fb7aee6,67d09182b1dd8ba3e7443e1e,2025-03-11_16h48.20.732,Tarea de decisión léxica,2024.2.5,Win32,165.0165017,,,,,,,,,,,,,,,,,,,,,,,,383.384,384.515,l,1,0.473,,0.473,1,384.515,385.012,,,,,,158,MAS,NOWORD,DIS,150,hico,,la,,385.012,385.012,0.253703704,-0.077777778,0,0,0,,0,56,56,157,1,nido,,,,
,,,,,,5e95d4f551598d01d6d455af,676192165fb32c2e1fb7aee6,67d09182b1dd8ba3e7443e1e,2025-03-11_16h48.20.732,Tarea de decisión léxica,2024.2.5,Win32,165.0165017,,,,,,,,,,,,,,,,,,,,,,,,385.013,386.139,a,1,0.467,,0.467,1,386.139,386.636,,,,,,155,FEM,WORD,DIS,150,fuga,,el,,386.636,386.636,0.253703704,-0.077777778,0,0,0,,0,57,57,154,1,luma,,,,
,,,,,,5e95d4f551598d01d6d455af,676192165fb32c2e1fb7aee6,67d09182b1dd8ba3e7443e1e,2025-03-11_16h48.20.732,Tarea de decisión léxica,2024.2.5,Win32,165.0165017,,,,,,,,,,,,,,,,,,,,,,,,386.637,387.818,l,1,0.523,,0.523,1,387.818,388.315,,,,,,124,FEM,NOWORD,AGR,150,maba,,la,,388.315,388.315,0.253703704,-0.077777778,0,0,0,,0,58,58,123,1,flor,,,,
,,,,,,5e95d4f551598d01d6d455af,676192165fb32c2e1fb7aee6,67d09182b1dd8ba3e7443e1e,2025-03-11_16h48.20.732,Tarea de decisión léxica,2024.2.5,Win32,165.0165017,,,,,,,,,,,,,,,,,,,,,,,,388.316,389.636,l,1,0.661,,0.661,1,389.636,390.133,,,,,,274,FEM,NOWORD,DIS,150,frosa,,el,,390.134,390.134,0.253703704,-0.077777778,0,0,0,,0,59,59,273,1,broma,,,,
,,,,,,5e95d4f551598d01d6d455af,676192165fb32c2e1fb7aee6,67d09182b1dd8ba3e7443e1e,2025-03-11_16h48.20.732,Tarea de decisión léxica,2024.2.5,Win32,165.0165017,,,,,,,,,,,,,,,,,,,,,,,,390.135,391.267,a,1,0.475,,0.475,1,391.267,391.763,,,,,,149,MAS,WORD,DIS,150,cabo,,la,,391.763,391.764,0.253703704,-0.077777778,0,0,0,,0,60,60,148,1,pafo,,,,
,,,,,,5e95d4f551598d01d6d455af,676192165fb32c2e1fb7aee6,67d09182b1dd8ba3e7443e1e,2025-03-11_16h48.20.732,Tarea de decisión léxica,2024.2.5,Win32,165.0165017,,,,,,,,,,,,,,,,,,,,,,,,391.764,392.885,l,1,0.462,,0.462,1,392.886,393.382,,,,,,120,MAS,NOWORD,AGR,150,hooy,,el,,393.382,393.382,0.253703704,-0.077777778,0,0,0,,0,61,61,119,1,pozo,,,,
,,,,,,5e95d4f551598d01d6d455af,676192165fb32c2e1fb7aee6,67d09182b1dd8ba3e7443e1e,2025-03-11_16h48.20.732,Tarea de decisión léxica,2024.2.5,Win32,165.0165017,,,,,,,,,,,,,,,,,,,,,,,,393.385,394.46,l,1,0.42,,0.42,1,394.46,394.957,,,,,,394,FEM,NOWORD,DIS,150,ashea,,el,,394.957,394.957,0.253703704,-0.077777778,0,0,0,,0,62,62,393,1,aldea,,,,
,,,,,,5e95d4f551598d01d6d455af,676192165fb32c2e1fb7aee6,67d09182b1dd8ba3e7443e1e,2025-03-11_16h48.20.732,Tarea de decisión léxica,2024.2.5,Win32,165.0165017,,,,,,,,,,,,,,,,,,,,,,,,394.958,396.267,l,1,0.652,,0.652,1,396.267,396.763,,,,,,228,MAS,NOWORD,AGR,150,laro,,el,,396.763,396.763,0.253703704,-0.077777778,0,0,0,,0,63,63,227,1,faro,,,,
,,,,,,5e95d4f551598d01d6d455af,676192165fb32c2e1fb7aee6,67d09182b1dd8ba3e7443e1e,2025-03-11_16h48.20.732,Tarea de decisión léxica,2024.2.5,Win32,165.0165017,,,,,,,,,,,,,,,,,,,,,,,,396.765,397.866,a,1,0.445,,0.445,1,397.866,398.363,,,,,,193,FEM,WORD,AGR,150,loca,,la,,398.364,398.365,0.253703704,-0.077777778,0,0,0,,0,64,64,192,1,foda,,,,
,,,,,,5e95d4f551598d01d6d455af,676192165fb32c2e1fb7aee6,67d09182b1dd8ba3e7443e1e,2025-03-11_16h48.20.732,Tarea de decisión léxica,2024.2.5,Win32,165.0165017,,,,,,,,,,,,,,,,,,,,,,,,398.366,399.484,l,1,0.462,,0.462,1,399.484,399.981,,,,,,280,FEM,NOWORD,AGR,150,grina,,la,,399.981,399.981,0.253703704,-0.077777778,0,0,0,,0,65,65,279,1,prisa,,,,
,,,,,,5e95d4f551598d01d6d455af,676192165fb32c2e1fb7aee6,67d09182b1dd8ba3e7443e1e,2025-03-11_16h48.20.732,Tarea de decisión léxica,2024.2.5,Win32,165.0165017,,,,,,,,,,,,,,,,,,,,,,,,399.982,401.26,l,1,0.62,,0.62,1,401.26,401.757,,,,,,188,MAS,NOWORD,AGR,150,suto,,el,,401.757,401.757,0.253703704,-0.077777778,0,0,0,,0,66,66,187,1,mito,,,,
,,,,,,5e95d4f551598d01d6d455af,676192165fb32c2e1fb7aee6,67d09182b1dd8ba3e7443e1e,2025-03-11_16h48.20.732,Tarea de decisión léxica,2024.2.5,Win32,165.0165017,,,,,,,,,,,,,,,,,,,,,,,,401.758,402.763,a,1,0.348,,0.348,1,402.763,403.26,,,,,,177,MAS,WORD,DIS,150,reto,,la,,403.26,403.26,0.253703704,-0.077777778,0,0,0,,0,67,67,176,1,bito,,,,
,,,,,,5e95d4f551598d01d6d455af,676192165fb32c2e1fb7aee6,67d09182b1dd8ba3e7443e1e,2025-03-11_16h48.20.732,Tarea de decisión léxica,2024.2.5,Win32,165.0165017,,,,,,,,,,,,,,,,,,,,,,,,403.261,404.43,a,1,0.511,,0.511,1,404.43,404.927,,,,,,323,FEM,WORD,DIS,150,cinta,,el,,404.927,404.927,0.253703704,-0.077777778,0,0,0,,0,68,68,322,1,certa,,,,
,,,,,,5e95d4f551598d01d6d455af,676192165fb32c2e1fb7aee6,67d09182b1dd8ba3e7443e1e,2025-03-11_16h48.20.732,Tarea de decisión léxica,2024.2.5,Win32,165.0165017,,,,,,,,,,,,,,,,,,,,,,,,404.928,405.999,l,1,0.413,,0.413,1,406,406.497,,,,,,422,MAS,NOWORD,DIS,150,griso,,la,,406.497,406.498,0.253703704,-0.077777778,0,0,0,,0,69,69,421,1,primo,,,,
,,,,,,5e95d4f551598d01d6d455af,676192165fb32c2e1fb7aee6,67d09182b1dd8ba3e7443e1e,2025-03-11_16h48.20.732,Tarea de decisión léxica,2024.2.5,Win32,165.0165017,,,,,,,,,,,,,,,,,,,,,,,,406.499,407.606,l,1,0.45,,0.45,1,407.606,408.102,,,,,,276,MAS,NOWORD,AGR,150,musto,,el,,408.102,408.103,0.253703704,-0.077777778,0,0,0,,0,70,70,275,1,punto,,,,
,,,,,,5e95d4f551598d01d6d455af,676192165fb32c2e1fb7aee6,67d09182b1dd8ba3e7443e1e,2025-03-11_16h48.20.732,Tarea de decisión léxica,2024.2.5,Win32,165.0165017,,,,,,,,,,,,,,,,,,,,,,,,408.103,409.284,l,1,0.524,,0.524,1,409.285,409.781,,,,,,386,FEM,NOWORD,DIS,150,febra,,el,,409.781,409.781,0.253703704,-0.077777778,0,0,0,,0,71,71,385,1,letra,,,,
,,,,,,5e95d4f551598d01d6d455af,676192165fb32c2e1fb7aee6,67d09182b1dd8ba3e7443e1e,2025-03-11_16h48.20.732,Tarea de decisión léxica,2024.2.5,Win32,165.0165017,,,,,,,,,,,,,,,,,,,,,,,,409.782,410.902,l,1,0.461,,0.461,1,410.903,411.399,,,,,,82,FEM,NOWORD,DIS,150,vasa,,el,,411.399,411.399,0.253703704,-0.077777778,0,0,0,,0,72,72,81,1,dama,,,,
,,,,,,5e95d4f551598d01d6d455af,676192165fb32c2e1fb7aee6,67d09182b1dd8ba3e7443e1e,2025-03-11_16h48.20.732,Tarea de decisión léxica,2024.2.5,Win32,165.0165017,,,,,,,,,,,,,,,,,,,,,,,,411.4,412.581,l,1,0.523,,0.523,1,412.581,413.078,,,,,,30,MAS,NOWORD,DIS,150,pono,,la,,413.078,413.078,0.253703704,-0.077777778,0,0,0,,0,73,73,29,1,modo,,,,
,,,,,,5e95d4f551598d01d6d455af,676192165fb32c2e1fb7aee6,67d09182b1dd8ba3e7443e1e,2025-03-11_16h48.20.732,Tarea de decisión léxica,2024.2.5,Win32,165.0165017,,,,,,,,,,,,,,,,,,,,,,,,413.078,414.217,a,1,0.478,,0.478,1,414.217,414.714,,,,,,409,MAS,WORD,AGR,150,carro,,el,,414.714,414.715,0.253703704,-0.077777778,0,0,0,,0,74,74,408,1,pafro,,,,
,,,,,,5e95d4f551598d01d6d455af,676192165fb32c2e1fb7aee6,67d09182b1dd8ba3e7443e1e,2025-03-11_16h48.20.732,Tarea de decisión léxica,2024.2.5,Win32,165.0165017,,,,,,,,,,,,,,,,,,,,,,,,414.716,415.653,a,1,0.281,,0.281,1,415.653,416.15,,,,,,85,MAS,WORD,DIS,150,lago,,la,,416.15,416.15,0.253703704,-0.077777778,0,0,0,,0,75,75,84,1,babo,,,,
,,,,,,5e95d4f551598d01d6d455af,676192165fb32c2e1fb7aee6,67d09182b1dd8ba3e7443e1e,2025-03-11_16h48.20.732,Tarea de decisión léxica,2024.2.5,Win32,165.0165017,,,,,,,,,,,,,,,,,,,,,,,,416.151,417.199,a,1,0.389,,0.389,1,417.199,417.696,,,,,,377,MAS,WORD,DIS,150,hielo,,la,,417.696,417.696,0.253703704,-0.077777778,0,0,0,,0,76,76,376,1,gaulo,,,,
,,,,,,5e95d4f551598d01d6d455af,676192165fb32c2e1fb7aee6,67d09182b1dd8ba3e7443e1e,2025-03-11_16h48.20.732,Tarea de decisión léxica,2024.2.5,Win32,165.0165017,,,,,,,,,,,,,,,,,,,,,,,,417.697,418.745,a,0,0.388,,0.388,0,418.745,419.241,,,,,,130,MAS,NOWORD,DIS,150,pima,,la,,419.241,419.241,0.253703704,-0.077777778,0,0,0,,0,77,77,129,1,oído,,,,
,,,,,,5e95d4f551598d01d6d455af,676192165fb32c2e1fb7aee6,67d09182b1dd8ba3e7443e1e,2025-03-11_16h48.20.732,Tarea de decisión léxica,2024.2.5,Win32,165.0165017,,,,,,,,,,,,,,,,,,,,,,,,419.242,420.581,l,1,0.682,,0.682,1,420.581,421.078,,,,,,148,FEM,NOWORD,AGR,150,pama,,la,,421.078,421.078,0.253703704,-0.077777778,0,0,0,,0,78,78,147,1,hoja,,,,
,,,,,,5e95d4f551598d01d6d455af,676192165fb32c2e1fb7aee6,67d09182b1dd8ba3e7443e1e,2025-03-11_16h48.20.732,Tarea de decisión léxica,2024.2.5,Win32,165.0165017,,,,,,,,,,,,,,,,,,,,,,,,421.078,422.368,l,1,0.63,,0.63,1,422.369,422.866,,,,,,180,MAS,NOWORD,AGR,150,sono,,el,,422.866,422.866,0.253703704,-0.077777778,0,0,0,,0,79,79,179,1,toro,,,,
,,,,,,5e95d4f551598d01d6d455af,676192165fb32c2e1fb7aee6,67d09182b1dd8ba3e7443e1e,2025-03-11_16h48.20.732,Tarea de decisión léxica,2024.2.5,Win32,165.0165017,,,,,,,,,,,,,,,,,,,,,,,,422.867,424.054,l,1,0.53,,0.53,1,424.054,424.55,,,,,,352,MAS,NOWORD,AGR,150,duepo,,el,,424.55,424.55,0.253703704,-0.077777778,0,0,0,,0,80,80,351,1,vuelo,,,,
,,,,,,5e95d4f551598d01d6d455af,676192165fb32c2e1fb7aee6,67d09182b1dd8ba3e7443e1e,2025-03-11_16h48.20.732,Tarea de decisión léxica,2024.2.5,Win32,165.0165017,,,,,,,,,,,,,,,,,,,,,,,,424.551,425.714,a,1,0.504,,0.504,1,425.714,426.212,,,,,,433,MAS,WORD,AGR,150,disco,,el,,426.212,426.212,0.253703704,-0.077777778,0,0,0,,0,81,81,432,1,durco,,,,
,,,,,,5e95d4f551598d01d6d455af,676192165fb32c2e1fb7aee6,67d09182b1dd8ba3e7443e1e,2025-03-11_16h48.20.732,Tarea de decisión léxica,2024.2.5,Win32,165.0165017,,,,,,,,,,,,,,,,,,,,,,,,426.215,427.387,l,1,0.515,,0.515,1,427.387,427.884,,,,,,298,MAS,NOWORD,DIS,150,brubo,,la,,427.884,427.884,0.253703704,-0.077777778,0,0,0,,0,82,82,297,1,grupo,,,,
,,,,,,5e95d4f551598d01d6d455af,676192165fb32c2e1fb7aee6,67d09182b1dd8ba3e7443e1e,2025-03-11_16h48.20.732,Tarea de decisión léxica,2024.2.5,Win32,165.0165017,,,,,,,,,,,,,,,,,,,,,,,,427.885,428.944,a,0,0.402,,0.402,0,428.945,429.441,,,,,,440,FEM,NOWORD,AGR,150,prema,,la,,429.442,429.444,0.253703704,-0.077777778,0,0,0,,0,83,83,439,1,presa,,,,
,,,,,,5e95d4f551598d01d6d455af,676192165fb32c2e1fb7aee6,67d09182b1dd8ba3e7443e1e,2025-03-11_16h48.20.732,Tarea de decisión léxica,2024.2.5,Win32,165.0165017,,,,,,,,,,,,,,,,,,,,,,,,429.444,430.714,a,0,0.613,,0.613,0,430.714,431.211,,,,,,256,MAS,NOWORD,AGR,150,mauco,,el,,431.211,431.211,0.253703704,-0.077777778,0,0,0,,0,84,84,255,1,miedo,,,,
,,,,,,5e95d4f551598d01d6d455af,676192165fb32c2e1fb7aee6,67d09182b1dd8ba3e7443e1e,2025-03-11_16h48.20.732,Tarea de decisión léxica,2024.2.5,Win32,165.0165017,,,,,,,,,,,,,,,,,,,,,,,,431.212,432.351,a,1,0.482,,0.482,1,432.351,432.847,,,,,,367,MAS,WORD,DIS,150,reloj,,la,,432.848,432.848,0.253703704,-0.077777778,0,0,0,,0,85,85,366,1,rerob,,,,
,,,,,,5e95d4f551598d01d6d455af,676192165fb32c2e1fb7aee6,67d09182b1dd8ba3e7443e1e,2025-03-11_16h48.20.732,Tarea de decisión léxica,2024.2.5,Win32,165.0165017,,,,,,,,,,,,,,,,,,,,,,,,432.848,433.963,a,1,0.455,,0.455,1,433.963,434.459,,,,,,89,MAS,WORD,DIS,150,humo,,la,,434.459,434.459,0.253703704,-0.077777778,0,0,0,,0,86,86,88,1,guso,,,,
,,,,,,5e95d4f551598d01d6d455af,676192165fb32c2e1fb7aee6,67d09182b1dd8ba3e7443e1e,2025-03-11_16h48.20.732,Tarea de decisión léxica,2024.2.5,Win32,165.0165017,,,,,,,,,,,,,,,,,,,,,,,,434.46,435.574,l,1,0.458,,0.458,1,435.575,436.071,,,,,,18,FEM,NOWORD,DIS,150,paba,,el,,436.071,436.071,0.253703704,-0.077777778,0,0,0,,0,87,87,17,1,mamá,,,,
,,,,,,5e95d4f551598d01d6d455af,676192165fb32c2e1fb7aee6,67d09182b1dd8ba3e7443e1e,2025-03-11_16h48.20.732,Tarea de decisión léxica,2024.2.5,Win32,165.0165017,,,,,,,,,,,,,,,,,,,,,,,,436.072,437.199,l,1,0.471,,0.471,1,437.199,437.696,,,,,,16,FEM,NOWORD,AGR,150,odea,,la,,437.696,437.697,0.253703704,-0.077777778,0,0,0,,0,88,88,15,1,idea,,,,
,,,,,,5e95d4f551598d01d6d455af,676192165fb32c2e1fb7aee6,67d09182b1dd8ba3e7443e1e,2025-03-11_16h48.20.732,Tarea de decisión léxica,2024.2.5,Win32,165.0165017,,,,,,,,,,,,,,,,,,,,,,,,437.698,438.738,l,1,0.383,,0.383,1,438.738,439.235,,,,,,374,FEM,NOWORD,DIS,150,pogza,,el,,439.235,439.235,0.253703704,-0.077777778,0,0,0,,0,89,89,373,1,pizza,,,,
,,,,,,5e95d4f551598d01d6d455af,676192165fb32c2e1fb7aee6,67d09182b1dd8ba3e7443e1e,2025-03-11_16h48.20.732,Tarea de decisión léxica,2024.2.5,Win32,165.0165017,,,,,,,,,,,,,,,,,,,,,,,,439.236,440.362,l,0,0.466,,0.466,0,440.363,440.859,,,,,,51,FEM,WORD,AGR,150,caja,,la,,440.859,440.859,0.253703704,-0.077777778,0,0,0,,0,90,90,50,1,mava,,,,
,,,,,,5e95d4f551598d01d6d455af,676192165fb32c2e1fb7aee6,67d09182b1dd8ba3e7443e1e,2025-03-11_16h48.20.732,Tarea de decisión léxica,2024.2.5,Win32,165.0165017,,,,,,,,,,,,,,,,,,,,,,,,440.86,442.404,a,0,0.885,,0.885,0,442.404,442.901,,,,,,270,MAS,NOWORD,DIS,150,mello,,la,,442.901,442.902,0.253703704,-0.077777778,0,0,0,,0,91,91,269,1,perro,,,,
,,,,,,5e95d4f551598d01d6d455af,676192165fb32c2e1fb7aee6,67d09182b1dd8ba3e7443e1e,2025-03-11_16h48.20.732,Tarea de decisión léxica,2024.2.5,Win32,165.0165017,,,,,,,,,,,,,,,,,,,,,,,,442.902,444.041,a,1,0.481,,0.481,1,444.042,444.537,,,,,,247,FEM,WORD,DIS,150,chica,,el,,444.537,444.537,0.253703704,-0.077777778,0,0,0,,0,92,92,246,1,trida,,,,
,,,,,,5e95d4f551598d01d6d455af,676192165fb32c2e1fb7aee6,67d09182b1dd8ba3e7443e1e,2025-03-11_16h48.20.732,Tarea de decisión léxica,2024.2.5,Win32,165.0165017,,,,,,,,,,,,,,,,,,,,,,,,444.538,445.708,l,1,0.51,,0.51,1,445.708,446.205,,,,,,306,MAS,NOWORD,DIS,150,adiol,,la,,446.205,446.205,0.253703704,-0.077777778,0,0,0,,0,93,93,305,1,avión,,,,
,,,,,,5e95d4f551598d01d6d455af,676192165fb32c2e1fb7aee6,67d09182b1dd8ba3e7443e1e,2025-03-11_16h48.20.732,Tarea de decisión léxica,2024.2.5,Win32,165.0165017,,,,,,,,,,,,,,,,,,,,,,,,446.206,447.532,a,1,0.667,,0.667,1,447.532,448.029,,,,,,429,FEM,WORD,DIS,150,tarta,,el,,448.029,448.029,0.253703704,-0.077777778,0,0,0,,0,94,94,428,1,tenta,,,,
,,,,,,5e95d4f551598d01d6d455af,676192165fb32c2e1fb7aee6,67d09182b1dd8ba3e7443e1e,2025-03-11_16h48.20.732,Tarea de decisión léxica,2024.2.5,Win32,165.0165017,,,,,,,,,,,,,,,,,,,,,,,,448.029,449.15,a,1,0.461,,0.461,1,449.15,449.647,,,,,,221,FEM,WORD,DIS,150,mula,,el,,449.647,449.647,0.253703704,-0.077777778,0,0,0,,0,95,95,220,1,puca,,,,
,,,,,,5e95d4f551598d01d6d455af,676192165fb32c2e1fb7aee6,67d09182b1dd8ba3e7443e1e,2025-03-11_16h48.20.732,Tarea de decisión léxica,2024.2.5,Win32,165.0165017,,,,,,,,,,,,,,,,,,,,,,,,449.648,450.738,a,1,0.432,,0.432,1,450.738,451.234,,,,,,419,MAS,WORD,AGR,150,truco,,el,,451.234,451.234,0.253703704,-0.077777778,0,0,0,,0,96,96,418,1,chudo,,,,
,,,,,,5e95d4f551598d01d6d455af,676192165fb32c2e1fb7aee6,67d09182b1dd8ba3e7443e1e,2025-03-11_16h48.20.732,Tarea de decisión léxica,2024.2.5,Win32,165.0165017,,,,,,,,,,,,,,,,,,,,,,,,451.235,452.228,l,1,0.334,,0.334,1,452.229,452.726,,,,,,308,MAS,NOWORD,AGR,150,holol,,el,,452.726,452.726,0.253703704,-0.077777778,0,0,0,,0,97,97,307,1,hotel,,,,
,,,,,,5e95d4f551598d01d6d455af,676192165fb32c2e1fb7aee6,67d09182b1dd8ba3e7443e1e,2025-03-11_16h48.20.732,Tarea de decisión léxica,2024.2.5,Win32,165.0165017,,,,,,,,,,,,,,,,,,,,,,,,452.727,453.75,a,1,0.364,,0.364,1,453.75,454.247,,,,,,425,FEM,WORD,DIS,150,viuda,,el,,454.248,454.249,0.253703704,-0.077777778,0,0,0,,0,98,98,424,1,virca,,,,
,,,,,,5e95d4f551598d01d6d455af,676192165fb32c2e1fb7aee6,67d09182b1dd8ba3e7443e1e,2025-03-11_16h48.20.732,Tarea de decisión léxica,2024.2.5,Win32,165.0165017,,,,,,,,,,,,,,,,,,,,,,,,454.249,455.313,a,1,0.409,,0.409,1,455.313,455.81,,,,,,79,FEM,WORD,AGR,150,piel,,la,,455.811,455.811,0.253703704,-0.077777778,0,0,0,,0,99,99,78,1,ciel,,,,
,,,,,,5e95d4f551598d01d6d455af,676192165fb32c2e1fb7aee6,67d09182b1dd8ba3e7443e1e,2025-03-11_16h48.20.732,Tarea de decisión léxica,2024.2.5,Win32,165.0165017,,,,,,,,,,,,,,,,,,,,,,,,455.811,456.937,a,1,0.469,,0.469,1,456.937,457.435,,,,,,83,FEM,WORD,AGR,150,bala,,la,,457.435,457.435,0.253703704,-0.077777778,0,0,0,,0,100,100,82,1,taga,,,,
,,,,,,5e95d4f551598d01d6d455af,676192165fb32c2e1fb7aee6,67d09182b1dd8ba3e7443e1e,2025-03-11_16h48.20.732,Tarea de decisión léxica,2024.2.5,Win32,165.0165017,,,,,,,,,,,,,,,,,,,,,,,,457.436,458.422,a,1,0.326,,0.326,1,458.423,458.919,,,,,,259,MAS,WORD,DIS,150,juego,,la,,458.919,458.919,0.253703704,-0.077777778,0,0,0,,0,101,101,258,1,jaumo,,,,
,,,,,,5e95d4f551598d01d6d455af,676192165fb32c2e1fb7aee6,67d09182b1dd8ba3e7443e1e,2025-03-11_16h48.20.732,Tarea de decisión léxica,2024.2.5,Win32,165.0165017,,,,,,,,,,,,,,,,,,,,,,,,458.92,459.963,l,1,0.386,,0.386,1,459.963,460.459,,,,,,10,MAS,NOWORD,DIS,150,sibo,,la,,460.459,460.459,0.253703704,-0.077777778,0,0,0,,0,102,102,9,1,tipo,,,,
,,,,,,5e95d4f551598d01d6d455af,676192165fb32c2e1fb7aee6,67d09182b1dd8ba3e7443e1e,2025-03-11_16h48.20.732,Tarea de decisión léxica,2024.2.5,Win32,165.0165017,,,,,,,,,,,,,,,,,,,,,,,,460.462,461.459,a,1,0.342,,0.342,1,461.459,461.956,,,,,,451,FEM,WORD,AGR,150,fruta,,la,,461.956,461.957,0.253703704,-0.077777778,0,0,0,,0,103,103,450,1,clita,,,,
,,,,,,5e95d4f551598d01d6d455af,676192165fb32c2e1fb7aee6,67d09182b1dd8ba3e7443e1e,2025-03-11_16h48.20.732,Tarea de decisión léxica,2024.2.5,Win32,165.0165017,,,,,,,,,,,,,,,,,,,,,,,,461.958,463.458,a,1,0.845,,0.845,1,463.459,463.956,,,,,,169,MAS,WORD,DIS,150,cubo,,la,,463.956,463.956,0.253703704,-0.077777778,0,0,0,,0,104,104,168,1,mibo,,,,
,,,,,,5e95d4f551598d01d6d455af,676192165fb32c2e1fb7aee6,67d09182b1dd8ba3e7443e1e,2025-03-11_16h48.20.732,Tarea de decisión léxica,2024.2.5,Win32,165.0165017,,,,,,,,,,,,,,,,,,,,,,,,463.957,465.144,a,1,0.528,,0.528,1,465.144,465.64,,,,,,319,MAS,WORD,AGR,150,suelo,,el,,465.64,465.64,0.253703704,-0.077777778,0,0,0,,0,105,105,318,1,tuero,,,,
,,,,,,5e95d4f551598d01d6d455af,676192165fb32c2e1fb7aee6,67d09182b1dd8ba3e7443e1e,2025-03-11_16h48.20.732,Tarea de decisión léxica,2024.2.5,Win32,165.0165017,,,,,,,,,,,,,,,,,,,,,,,,465.641,466.628,l,1,0.328,,0.328,1,466.628,467.125,,,,,,44,FEM,NOWORD,AGR,150,meda,,la,,467.125,467.125,0.253703704,-0.077777778,0,0,0,,0,106,106,43,1,pena,,,,
,,,,,,5e95d4f551598d01d6d455af,676192165fb32c2e1fb7aee6,67d09182b1dd8ba3e7443e1e,2025-03-11_16h48.20.732,Tarea de decisión léxica,2024.2.5,Win32,165.0165017,,,,,,,,,,,,,,,,,,,,,,,,467.126,468.253,l,1,0.47,,0.47,1,468.253,468.749,,,,,,318,FEM,NOWORD,DIS,150,plaad,,el,,468.75,468.751,0.253703704,-0.077777778,0,0,0,,0,107,107,317,1,playa,,,,
,,,,,,5e95d4f551598d01d6d455af,676192165fb32c2e1fb7aee6,67d09182b1dd8ba3e7443e1e,2025-03-11_16h48.20.732,Tarea de decisión léxica,2024.2.5,Win32,165.0165017,,,,,,,,,,,,,,,,,,,,,,,,468.751,469.64,a,1,0.229,,0.229,1,469.64,470.137,,,,,,205,FEM,WORD,AGR,150,rana,,la,,470.137,470.137,0.253703704,-0.077777778,0,0,0,,0,108,108,204,1,bara,,,,
,,,,,,5e95d4f551598d01d6d455af,676192165fb32c2e1fb7aee6,67d09182b1dd8ba3e7443e1e,2025-03-11_16h48.20.732,Tarea de decisión léxica,2024.2.5,Win32,165.0165017,,,,,,,,,,,,,,,,,,,,,,,,470.138,471.18,l,0,0.385,,0.385,0,471.18,471.677,,,,,,113,FEM,WORD,AGR,150,miel,,la,,471.677,471.677,0.253703704,-0.077777778,0,0,0,,0,109,109,112,1,tada,,,,
,,,,,,5e95d4f551598d01d6d455af,676192165fb32c2e1fb7aee6,67d09182b1dd8ba3e7443e1e,2025-03-11_16h48.20.732,Tarea de decisión léxica,2024.2.5,Win32,165.0165017,,,,,,,,,,,,,,,,,,,,,,,,471.677,472.743,a,1,0.407,,0.407,1,472.745,473.24,,,,,,131,FEM,WORD,DIS,150,mina,,el,,473.24,473.24,0.253703704,-0.077777778,0,0,0,,0,110,110,130,1,fada,,,,
,,,,,,5e95d4f551598d01d6d455af,676192165fb32c2e1fb7aee6,67d09182b1dd8ba3e7443e1e,2025-03-11_16h48.20.732,Tarea de decisión léxica,2024.2.5,Win32,165.0165017,,,,,,,,,,,,,,,,,,,,,,,,473.241,474.404,l,1,0.507,,0.507,1,474.404,474.901,,,,,,258,FEM,NOWORD,DIS,150,asama,,el,,474.901,474.901,0.253703704,-0.077777778,0,0,0,,0,111,111,257,1,amiga,,,,
,,,,,,5e95d4f551598d01d6d455af,676192165fb32c2e1fb7aee6,67d09182b1dd8ba3e7443e1e,2025-03-11_16h48.20.732,Tarea de decisión léxica,2024.2.5,Win32,165.0165017,,,,,,,,,,,,,,,,,,,,,,,,474.902,476.07,l,0,0.51,,0.51,0,476.072,476.567,,,,,,123,FEM,WORD,AGR,150,flor,,la,,476.567,476.568,0.253703704,-0.077777778,0,0,0,,0,112,112,122,1,maba,,,,
,,,,,,5e95d4f551598d01d6d455af,676192165fb32c2e1fb7aee6,67d09182b1dd8ba3e7443e1e,2025-03-11_16h48.20.732,Tarea de decisión léxica,2024.2.5,Win32,165.0165017,,,,,,,,,,,,,,,,,,,,,,,,476.569,477.677,l,1,0.452,,0.452,1,477.677,478.173,,,,,,238,MAS,NOWORD,DIS,150,huco,,la,,478.173,478.173,0.253703704,-0.077777778,0,0,0,,0,113,113,237,1,nudo,,,,
,,,,,,5e95d4f551598d01d6d455af,676192165fb32c2e1fb7aee6,67d09182b1dd8ba3e7443e1e,2025-03-11_16h48.20.732,Tarea de decisión léxica,2024.2.5,Win32,165.0165017,,,,,,,,,,,,,,,,,,,,,,,,478.174,479.191,a,1,0.356,,0.356,1,479.191,479.689,,,,,,269,MAS,WORD,AGR,150,perro,,el,,479.689,479.689,0.253703704,-0.077777778,0,0,0,,0,114,114,268,1,mello,,,,
,,,,,,5e95d4f551598d01d6d455af,676192165fb32c2e1fb7aee6,67d09182b1dd8ba3e7443e1e,2025-03-11_16h48.20.732,Tarea de decisión léxica,2024.2.5,Win32,165.0165017,,,,,,,,,,,,,,,,,,,,,,,,479.69,480.834,l,0,0.486,,0.486,0,480.835,481.331,,,,,,99,MAS,WORD,DIS,150,lobo,,la,,481.331,481.331,0.253703704,-0.077777778,0,0,0,,0,115,115,98,1,soro,,,,
,,,,,,5e95d4f551598d01d6d455af,676192165fb32c2e1fb7aee6,67d09182b1dd8ba3e7443e1e,2025-03-11_16h48.20.732,Tarea de decisión léxica,2024.2.5,Win32,165.0165017,,,,,,,,,,,,,,,,,,,,,,,,481.332,482.482,l,1,0.492,,0.492,1,482.482,482.979,,,,,,466,FEM,NOWORD,DIS,150,asuba,,el,,482.98,482.98,0.253703704,-0.077777778,0,0,0,,0,116,116,465,1,aguja,,,,
,,,,,,5e95d4f551598d01d6d455af,676192165fb32c2e1fb7aee6,67d09182b1dd8ba3e7443e1e,2025-03-11_16h48.20.732,Tarea de decisión léxica,2024.2.5,Win32,165.0165017,,,,,,,,,,,,,,,,,,,,,,,,482.98,484.331,l,1,0.692,,0.692,1,484.331,484.828,,,,,,292,FEM,NOWORD,AGR,150,mesta,,la,,484.828,484.829,0.253703704,-0.077777778,0,0,0,,0,117,117,291,1,pista,,,,
,,,,,,5e95d4f551598d01d6d455af,676192165fb32c2e1fb7aee6,67d09182b1dd8ba3e7443e1e,2025-03-11_16h48.20.732,Tarea de decisión léxica,2024.2.5,Win32,165.0165017,,,,,,,,,,,,,,,,,,,,,,,,484.83,485.858,a,1,0.37,,0.37,1,485.859,486.355,,,,,,77,MAS,WORD,AGR,150,loco,,el,,486.355,486.355,0.253703704,-0.077777778,0,0,0,,0,118,118,76,1,fodo,,,,
,,,,,,5e95d4f551598d01d6d455af,676192165fb32c2e1fb7aee6,67d09182b1dd8ba3e7443e1e,2025-03-11_16h48.20.732,Tarea de decisión léxica,2024.2.5,Win32,165.0165017,,,,,,,,,,,,,,,,,,,,,,,,486.356,487.421,a,1,0.41,,0.41,1,487.421,487.919,,,,,,395,FEM,WORD,DIS,150,caída,,el,,487.919,487.919,0.253703704,-0.077777778,0,0,0,,0,119,119,394,1,paeda,,,,
,,,,,,5e95d4f551598d01d6d455af,676192165fb32c2e1fb7aee6,67d09182b1dd8ba3e7443e1e,2025-03-11_16h48.20.732,Tarea de decisión léxica,2024.2.5,Win32,165.0165017,,,,,,,,,,,,,,,,,,,,,,,,487.92,488.907,a,1,0.329,,0.329,1,488.907,489.403,,,,,,357,FEM,WORD,AGR,150,bruja,,la,,489.403,489.404,0.253703704,-0.077777778,0,0,0,,0,120,120,356,1,gruba,,,,
,,,,,,5e95d4f551598d01d6d455af,676192165fb32c2e1fb7aee6,67d09182b1dd8ba3e7443e1e,2025-03-11_16h48.20.732,Tarea de decisión léxica,2024.2.5,Win32,165.0165017,,,,,,,,,,,,,,,,,,,,,,,,489.404,490.494,l,1,0.433,,0.433,1,490.494,490.992,,,,,,392,MAS,NOWORD,AGR,150,dievo,,el,,490.992,490.992,0.253703704,-0.077777778,0,0,0,,0,121,121,391,1,dueño,,,,
,,,,,,5e95d4f551598d01d6d455af,676192165fb32c2e1fb7aee6,67d09182b1dd8ba3e7443e1e,2025-03-11_16h48.20.732,Tarea de decisión léxica,2024.2.5,Win32,165.0165017,,,,,,,,,,,,,,,,,,,,,,,,490.993,492.027,a,0,0.376,,0.376,0,492.029,492.525,,,,,,56,MAS,NOWORD,AGR,150,jado,,el,,492.526,492.527,0.253703704,-0.077777778,0,0,0,,0,122,122,55,1,gato,,,,
,,,,,,5e95d4f551598d01d6d455af,676192165fb32c2e1fb7aee6,67d09182b1dd8ba3e7443e1e,2025-03-11_16h48.20.732,Tarea de decisión léxica,2024.2.5,Win32,165.0165017,,,,,,,,,,,,,,,,,,,,,,,,492.527,493.531,a,1,0.345,,0.345,1,493.532,494.028,,,,,,391,MAS,WORD,DIS,150,dueño,,la,,494.028,494.028,0.253703704,-0.077777778,0,0,0,,0,123,123,390,1,dievo,,,,
,,,,,,5e95d4f551598d01d6d455af,676192165fb32c2e1fb7aee6,67d09182b1dd8ba3e7443e1e,2025-03-11_16h48.20.732,Tarea de decisión léxica,2024.2.5,Win32,165.0165017,,,,,,,,,,,,,,,,,,,,,,,,494.03,495.186,a,1,0.498,,0.498,1,495.186,495.682,,,,,,243,MAS,WORD,DIS,150,amigo,,la,,495.682,495.682,0.253703704,-0.077777778,0,0,0,,0,124,124,242,1,asamo,,,,
,,,,,,5e95d4f551598d01d6d455af,676192165fb32c2e1fb7aee6,67d09182b1dd8ba3e7443e1e,2025-03-11_16h48.20.732,Tarea de decisión léxica,2024.2.5,Win32,165.0165017,,,,,,,,,,,,,,,,,,,,,,,,495.682,497.003,l,1,0.663,,0.663,1,497.004,497.5,,,,,,164,FEM,NOWORD,AGR,150,laga,,la,,497.5,497.5,0.253703704,-0.077777778,0,0,0,,0,125,125,163,1,fama,,,,
,,,,,,5e95d4f551598d01d6d455af,676192165fb32c2e1fb7aee6,67d09182b1dd8ba3e7443e1e,2025-03-11_16h48.20.732,Tarea de decisión léxica,2024.2.5,Win32,165.0165017,,,,,,,,,,,,,,,,,,,,,,,,497.501,498.657,a,1,0.496,,0.496,1,498.657,499.155,,,,,,179,MAS,WORD,AGR,150,toro,,el,,499.155,499.155,0.253703704,-0.077777778,0,0,0,,0,126,126,178,1,sono,,,,
,,,,,,5e95d4f551598d01d6d455af,676192165fb32c2e1fb7aee6,67d09182b1dd8ba3e7443e1e,2025-03-11_16h48.20.732,Tarea de decisión léxica,2024.2.5,Win32,165.0165017,,,,,,,,,,,,,,,,,,,,,,,,499.156,500.73,l,1,0.917,,0.917,1,500.73,501.228,,,,,,474,FEM,NOWORD,DIS,150,felia,,el,,501.228,501.23,0.253703704,-0.077777778,0,0,0,,0,127,127,473,1,feria,,,,
,,,,,,5e95d4f551598d01d6d455af,676192165fb32c2e1fb7aee6,67d09182b1dd8ba3e7443e1e,2025-03-11_16h48.20.732,Tarea de decisión léxica,2024.2.5,Win32,165.0165017,,,,,,,,,,,,,,,,,,,,,,,,501.23,502.355,l,1,0.467,,0.467,1,502.355,502.852,,,,,,98,MAS,NOWORD,DIS,150,fopo,,la,,502.852,502.852,0.253703704,-0.077777778,0,0,0,,0,128,128,97,1,mono,,,,
,,,,,,5e95d4f551598d01d6d455af,676192165fb32c2e1fb7aee6,67d09182b1dd8ba3e7443e1e,2025-03-11_16h48.20.732,Tarea de decisión léxica,2024.2.5,Win32,165.0165017,,,,,,,,,,,,,,,,,,,,,,,,502.852,504.324,a,0,0.812,,0.812,0,504.325,504.822,,,,,,282,MAS,NOWORD,DIS,150,cauro,,la,,504.822,504.822,0.253703704,-0.077777778,0,0,0,,0,129,129,281,1,cielo,,,,
,,,,,,5e95d4f551598d01d6d455af,676192165fb32c2e1fb7aee6,67d09182b1dd8ba3e7443e1e,2025-03-11_16h48.20.732,Tarea de decisión léxica,2024.2.5,Win32,165.0165017,,,,,,,,,,,,,,,,,,,,,,,,504.822,506.058,l,1,0.578,,0.578,1,506.058,506.554,,,,,,434,MAS,NOWORD,DIS,150,durco,,la,,506.554,506.555,0.253703704,-0.077777778,0,0,0,,0,130,130,433,1,disco,,,,
,,,,,,5e95d4f551598d01d6d455af,676192165fb32c2e1fb7aee6,67d09182b1dd8ba3e7443e1e,2025-03-11_16h48.20.732,Tarea de decisión léxica,2024.2.5,Win32,165.0165017,,,,,,,,,,,,,,,,,,,,,,,,506.555,507.924,a,1,0.709,,0.709,1,507.924,508.421,,,,,,227,MAS,WORD,AGR,150,faro,,el,,508.421,508.422,0.253703704,-0.077777778,0,0,0,,0,131,131,226,1,laro,,,,
,,,,,,5e95d4f551598d01d6d455af,676192165fb32c2e1fb7aee6,67d09182b1dd8ba3e7443e1e,2025-03-11_16h48.20.732,Tarea de decisión léxica,2024.2.5,Win32,165.0165017,,,,,,,,,,,,,,,,,,,,,,,,508.423,509.597,a,1,0.515,,0.515,1,509.597,510.094,,,,,,297,MAS,WORD,AGR,150,grupo,,el,,510.094,510.094,0.253703704,-0.077777778,0,0,0,,0,132,132,296,1,brubo,,,,
,,,,,,5e95d4f551598d01d6d455af,676192165fb32c2e1fb7aee6,67d09182b1dd8ba3e7443e1e,2025-03-11_16h48.20.732,Tarea de decisión léxica,2024.2.5,Win32,165.0165017,,,,,,,,,,,,,,,,,,,,,,,,510.095,511.203,a,1,0.449,,0.449,1,511.203,511.7,,,,,,109,MAS,WORD,AGR,150,rayo,,el,,511.7,511.7,0.253703704,-0.077777778,0,0,0,,0,133,133,108,1,suno,,,,
,,,,,,5e95d4f551598d01d6d455af,676192165fb32c2e1fb7aee6,67d09182b1dd8ba3e7443e1e,2025-03-11_16h48.20.732,Tarea de decisión léxica,2024.2.5,Win32,165.0165017,,,,,,,,,,,,,,,,,,,,,,,,511.701,512.846,a,0,0.485,,0.485,0,512.846,513.342,,,,,,344,FEM,NOWORD,AGR,150,trada,,la,,513.342,513.343,0.253703704,-0.077777778,0,0,0,,0,134,134,343,1,plata,,,,
,,,,,,5e95d4f551598d01d6d455af,676192165fb32c2e1fb7aee6,67d09182b1dd8ba3e7443e1e,2025-03-11_16h48.20.732,Tarea de decisión léxica,2024.2.5,Win32,165.0165017,,,,,,,,,,,,,,,,,,,,,,,,513.343,514.682,l,1,0.682,,0.682,1,514.683,515.178,,,,,,46,FEM,NOWORD,DIS,150,pema,,el,,515.178,515.178,0.253703704,-0.077777778,0,0,0,,0,135,135,45,1,mesa,,,,
,,,,,,5e95d4f551598d01d6d455af,676192165fb32c2e1fb7aee6,67d09182b1dd8ba3e7443e1e,2025-03-11_16h48.20.732,Tarea de decisión léxica,2024.2.5,Win32,165.0165017,,,,,,,,,,,,,,,,,,,,,,,,515.18,516.566,l,1,0.729,,0.729,1,516.567,517.063,,,,,,360,MAS,NOWORD,AGR,150,cacer,,el,,517.064,517.065,0.253703704,-0.077777778,0,0,0,,0,136,136,359,1,calor,,,,
,,,,,,5e95d4f551598d01d6d455af,676192165fb32c2e1fb7aee6,67d09182b1dd8ba3e7443e1e,2025-03-11_16h48.20.732,Tarea de decisión léxica,2024.2.5,Win32,165.0165017,,,,,,,,,,,,,,,,,,,,,,,,517.065,518.166,a,1,0.443,,0.443,1,518.166,518.664,,,,,,355,FEM,WORD,DIS,150,regla,,el,,518.664,518.664,0.253703704,-0.077777778,0,0,0,,0,137,137,354,1,bepla,,,,
,,,,,,5e95d4f551598d01d6d455af,676192165fb32c2e1fb7aee6,67d09182b1dd8ba3e7443e1e,2025-03-11_16h48.20.732,Tarea de decisión léxica,2024.2.5,Win32,165.0165017,,,,,,,,,,,,,,,,,,,,,,,,518.664,519.851,a,1,0.529,,0.529,1,519.851,520.349,,,,,,185,MAS,WORD,DIS,150,baúl,,la,,520.349,520.349,0.253703704,-0.077777778,0,0,0,,0,138,138,184,1,raol,,,,
,,,,,,5e95d4f551598d01d6d455af,676192165fb32c2e1fb7aee6,67d09182b1dd8ba3e7443e1e,2025-03-11_16h48.20.732,Tarea de decisión léxica,2024.2.5,Win32,165.0165017,,,,,,,,,,,,,,,,,,,,,,,,520.349,521.42,a,1,0.412,,0.412,1,521.42,521.918,,,,,,305,MAS,WORD,AGR,150,avión,,el,,521.918,521.918,0.253703704,-0.077777778,0,0,0,,0,139,139,304,1,adiol,,,,
,,,,,,5e95d4f551598d01d6d455af,676192165fb32c2e1fb7aee6,67d09182b1dd8ba3e7443e1e,2025-03-11_16h48.20.732,Tarea de decisión léxica,2024.2.5,Win32,165.0165017,,,,,,,,,,,,,,,,,,,,,,,,521.919,523.051,l,1,0.475,,0.475,1,523.051,523.548,,,,,,432,MAS,NOWORD,AGR,150,tetor,,el,,523.548,523.548,0.253703704,-0.077777778,0,0,0,,0,140,140,431,1,motor,,,,
,,,,,,5e95d4f551598d01d6d455af,676192165fb32c2e1fb7aee6,67d09182b1dd8ba3e7443e1e,2025-03-11_16h48.20.732,Tarea de decisión léxica,2024.2.5,Win32,165.0165017,,,,,,,,,,,,,,,,,,,,,,,,523.549,524.839,l,1,0.631,,0.631,1,524.839,525.336,,,,,,400,MAS,NOWORD,AGR,150,serro,,el,,525.336,525.337,0.253703704,-0.077777778,0,0,0,,0,141,141,399,1,techo,,,,
,,,,,,5e95d4f551598d01d6d455af,676192165fb32c2e1fb7aee6,67d09182b1dd8ba3e7443e1e,2025-03-11_16h48.20.732,Tarea de decisión léxica,2024.2.5,Win32,165.0165017,,,,,,,,,,,,,,,,,,,,,,,,525.337,526.513,l,1,0.516,,0.516,1,526.514,527.009,,,,,,170,MAS,NOWORD,DIS,150,mibo,,la,,527.009,527.009,0.253703704,-0.077777778,0,0,0,,0,142,142,169,1,cubo,,,,
,,,,,,5e95d4f551598d01d6d455af,676192165fb32c2e1fb7aee6,67d09182b1dd8ba3e7443e1e,2025-03-11_16h48.20.732,Tarea de decisión léxica,2024.2.5,Win32,165.0165017,,,,,,,,,,,,,,,,,,,,,,,,527.011,528.317,l,1,0.649,,0.649,1,528.317,528.814,,,,,,76,MAS,NOWORD,AGR,150,ocer,,el,,528.814,528.815,0.253703704,-0.077777778,0,0,0,,0,143,143,75,1,olor,,,,
,,,,,,5e95d4f551598d01d6d455af,676192165fb32c2e1fb7aee6,67d09182b1dd8ba3e7443e1e,2025-03-11_16h48.20.732,Tarea de decisión léxica,2024.2.5,Win32,165.0165017,,,,,,,,,,,,,,,,,,,,,,,,528.816,529.79,a,1,0.316,,0.316,1,529.79,530.288,,,,,,317,FEM,WORD,AGR,150,playa,,la,,530.288,530.288,0.253703704,-0.077777778,0,0,0,,0,144,144,316,1,plaad,,,,
,,,,,,5e95d4f551598d01d6d455af,676192165fb32c2e1fb7aee6,67d09182b1dd8ba3e7443e1e,2025-03-11_16h48.20.732,Tarea de decisión léxica,2024.2.5,Win32,165.0165017,,,,,,,,,,,,,,,,,,,,,,,,530.289,531.36,l,1,0.414,,0.414,1,531.36,531.857,,,,,,232,FEM,NOWORD,AGR,150,heta,,la,,531.857,531.857,0.253703704,-0.077777778,0,0,0,,0,145,145,231,1,bota,,,,
,,,,,,5e95d4f551598d01d6d455af,676192165fb32c2e1fb7aee6,67d09182b1dd8ba3e7443e1e,2025-03-11_16h48.20.732,Tarea de decisión léxica,2024.2.5,Win32,165.0165017,,,,,,,,,,,,,,,,,,,,,,,,531.858,532.881,a,1,0.364,,0.364,1,532.881,533.378,,,,,,119,MAS,WORD,DIS,150,pozo,,la,,533.379,533.38,0.253703704,-0.077777778,0,0,0,,0,146,146,118,1,hooy,,,,
,,,,,,5e95d4f551598d01d6d455af,676192165fb32c2e1fb7aee6,67d09182b1dd8ba3e7443e1e,2025-03-11_16h48.20.732,Tarea de decisión léxica,2024.2.5,Win32,165.0165017,,,,,,,,,,,,,,,,,,,,,,,,533.381,534.456,l,1,0.418,,0.418,1,534.457,534.954,,,,,,248,FEM,NOWORD,AGR,150,trida,,la,,534.954,534.954,0.253703704,-0.077777778,0,0,0,,0,147,147,247,1,chica,,,,
,,,,,,5e95d4f551598d01d6d455af,676192165fb32c2e1fb7aee6,67d09182b1dd8ba3e7443e1e,2025-03-11_16h48.20.732,Tarea de decisión léxica,2024.2.5,Win32,165.0165017,,,,,,,,,,,,,,,,,,,,,,,,534.955,536.057,l,1,0.442,,0.442,1,536.058,536.554,,,,,,266,FEM,NOWORD,DIS,150,pitat,,el,,536.554,536.554,0.253703704,-0.077777778,0,0,0,,0,148,148,265,1,mitad,,,,
,,,,,,5e95d4f551598d01d6d455af,676192165fb32c2e1fb7aee6,67d09182b1dd8ba3e7443e1e,2025-03-11_16h48.20.732,Tarea de decisión léxica,2024.2.5,Win32,165.0165017,,,,,,,,,,,,,,,,,,,,,,,,536.555,537.645,a,1,0.434,,0.434,1,537.645,538.142,,,,,,55,MAS,WORD,DIS,150,gato,,la,,538.142,538.142,0.253703704,-0.077777778,0,0,0,,0,149,149,54,1,jado,,,,
,,,,,,5e95d4f551598d01d6d455af,676192165fb32c2e1fb7aee6,67d09182b1dd8ba3e7443e1e,2025-03-11_16h48.20.732,Tarea de decisión léxica,2024.2.5,Win32,165.0165017,,,,,,,,,,,,,,,,,,,,,,,,538.143,539.269,a,1,0.468,,0.468,1,539.269,539.765,,,,,,285,MAS,WORD,DIS,150,error,,la,,539.766,539.766,0.253703704,-0.077777778,0,0,0,,0,150,150,284,1,echor,,,,
,,,,,,5e95d4f551598d01d6d455af,676192165fb32c2e1fb7aee6,67d09182b1dd8ba3e7443e1e,2025-03-11_16h48.20.732,Tarea de decisión léxica,2024.2.5,Win32,165.0165017,,,,,,,,,,,,,,,,,,,,,,,,539.766,540.917,l,1,0.493,,0.493,1,540.917,541.414,,,,,,106,FEM,NOWORD,DIS,150,vina,,el,,541.415,541.417,0.253703704,-0.077777778,0,0,0,,0,151,151,105,1,sopa,,,,
,,,,,,5e95d4f551598d01d6d455af,676192165fb32c2e1fb7aee6,67d09182b1dd8ba3e7443e1e,2025-03-11_16h48.20.732,Tarea de decisión léxica,2024.2.5,Win32,165.0165017,,,,,,,,,,,,,,,,,,,,,,,,541.417,542.469,l,1,0.397,,0.397,1,542.469,542.966,,,,,,420,MAS,NOWORD,AGR,150,chudo,,el,,542.966,542.966,0.253703704,-0.077777778,0,0,0,,0,152,152,419,1,truco,,,,
,,,,,,5e95d4f551598d01d6d455af,676192165fb32c2e1fb7aee6,67d09182b1dd8ba3e7443e1e,2025-03-11_16h48.20.732,Tarea de decisión léxica,2024.2.5,Win32,165.0165017,,,,,,,,,,,,,,,,,,,,,,,,542.966,544.081,l,1,0.455,,0.455,1,544.081,544.578,,,,,,468,MAS,NOWORD,AGR,150,peiso,,el,,544.578,544.578,0.253703704,-0.077777778,0,0,0,,0,153,153,467,1,piano,,,,
,,,,,,5e95d4f551598d01d6d455af,676192165fb32c2e1fb7aee6,67d09182b1dd8ba3e7443e1e,2025-03-11_16h48.20.732,Tarea de decisión léxica,2024.2.5,Win32,165.0165017,,,,,,,,,,,,,,,,,,,,,,,,544.579,545.663,l,0,0.426,,0.426,0,545.663,546.16,,,,,,347,FEM,WORD,DIS,150,pieza,,el,,546.16,546.16,0.253703704,-0.077777778,0,0,0,,0,154,154,346,1,mueza,,,,
,,,,,,5e95d4f551598d01d6d455af,676192165fb32c2e1fb7aee6,67d09182b1dd8ba3e7443e1e,2025-03-11_16h48.20.732,Tarea de decisión léxica,2024.2.5,Win32,165.0165017,,,,,,,,,,,,,,,,,,,,,,,,546.161,547.341,l,1,0.525,,0.525,1,547.342,547.838,,,,,,218,MAS,NOWORD,DIS,150,budo,,la,,547.838,547.839,0.253703704,-0.077777778,0,0,0,,0,155,155,217,1,luto,,,,
,,,,,,5e95d4f551598d01d6d455af,676192165fb32c2e1fb7aee6,67d09182b1dd8ba3e7443e1e,2025-03-11_16h48.20.732,Tarea de decisión léxica,2024.2.5,Win32,165.0165017,,,,,,,,,,,,,,,,,,,,,,,,547.84,549.105,a,1,0.607,,0.607,1,549.105,549.602,,,,,,441,FEM,WORD,AGR,150,selva,,la,,549.602,549.602,0.253703704,-0.077777778,0,0,0,,0,156,156,440,1,telza,,,,
,,,,,,5e95d4f551598d01d6d455af,676192165fb32c2e1fb7aee6,67d09182b1dd8ba3e7443e1e,2025-03-11_16h48.20.732,Tarea de decisión léxica,2024.2.5,Win32,165.0165017,,,,,,,,,,,,,,,,,,,,,,,,549.603,550.729,a,1,0.469,,0.469,1,550.729,551.226,,,,,,191,FEM,WORD,DIS,150,pila,,el,,551.226,551.226,0.253703704,-0.077777778,0,0,0,,0,157,157,190,1,bila,,,,
,,,,,,5e95d4f551598d01d6d455af,676192165fb32c2e1fb7aee6,67d09182b1dd8ba3e7443e1e,2025-03-11_16h48.20.732,Tarea de decisión léxica,2024.2.5,Win32,165.0165017,,,,,,,,,,,,,,,,,,,,,,,,551.227,552.426,a,1,0.54,,0.54,1,552.427,552.923,,,,,,315,FEM,WORD,DIS,150,reina,,el,,552.923,552.923,0.253703704,-0.077777778,0,0,0,,0,158,158,314,1,riosa,,,,
,,,,,,5e95d4f551598d01d6d455af,676192165fb32c2e1fb7aee6,67d09182b1dd8ba3e7443e1e,2025-03-11_16h48.20.732,Tarea de decisión léxica,2024.2.5,Win32,165.0165017,,,,,,,,,,,,,,,,,,,,,,,,552.924,554.147,a,0,0.564,,0.564,0,554.147,554.644,,,,,,304,MAS,NOWORD,AGR,150,lanco,,el,,554.644,554.644,0.253703704,-0.077777778,0,0,0,,0,159,159,303,1,barco,,,,
,,,,,,5e95d4f551598d01d6d455af,676192165fb32c2e1fb7aee6,67d09182b1dd8ba3e7443e1e,2025-03-11_16h48.20.732,Tarea de decisión léxica,2024.2.5,Win32,165.0165017,,,,,,,,,,,,,,,,,,,,,,,,554.645,555.862,l,1,0.561,,0.561,1,555.863,556.36,,,,,,140,MAS,NOWORD,AGR,150,nila,,el,,556.36,630.467,0.278703704,-0.083333333,0,0,0,space,0,160,160,139,1,mago,74.078,,,
,,,,,,5e95d4f551598d01d6d455af,676192165fb32c2e1fb7aee6,67d09182b1dd8ba3e7443e1e,2025-03-11_16h48.20.732,Tarea de decisión léxica,2024.2.5,Win32,165.0165017,,,,,,,,,,,,,,,,,,,,,,,,630.47,631.757,l,0,0.629,,0.629,0,631.758,632.255,,,,,,25,FEM,WORD,DIS,150,cama,,el,,632.255,632.255,0.278703704,-0.083333333,0,0,0,,0,161,161,24,1,paza,,,,
,,,,,,5e95d4f551598d01d6d455af,676192165fb32c2e1fb7aee6,67d09182b1dd8ba3e7443e1e,2025-03-11_16h48.20.732,Tarea de decisión léxica,2024.2.5,Win32,165.0165017,,,,,,,,,,,,,,,,,,,,,,,,632.255,633.406,l,1,0.492,,0.492,1,633.407,633.903,,,,,,448,MAS,NOWORD,AGR,150,buaso,,el,,633.903,633.903,0.278703704,-0.083333333,0,0,0,,0,162,162,447,1,bolso,,,,
,,,,,,5e95d4f551598d01d6d455af,676192165fb32c2e1fb7aee6,67d09182b1dd8ba3e7443e1e,2025-03-11_16h48.20.732,Tarea de decisión léxica,2024.2.5,Win32,165.0165017,,,,,,,,,,,,,,,,,,,,,,,,633.904,634.945,a,1,0.384,,0.384,1,634.945,635.442,,,,,,295,MAS,WORD,DIS,150,dolor,,la,,635.442,635.442,0.278703704,-0.083333333,0,0,0,,0,163,163,294,1,goler,,,,
,,,,,,5e95d4f551598d01d6d455af,676192165fb32c2e1fb7aee6,67d09182b1dd8ba3e7443e1e,2025-03-11_16h48.20.732,Tarea de decisión léxica,2024.2.5,Win32,165.0165017,,,,,,,,,,,,,,,,,,,,,,,,635.443,636.461,a,1,0.358,,0.358,1,636.461,636.958,,,,,,267,MAS,WORD,DIS,150,libro,,la,,636.958,636.958,0.278703704,-0.083333333,0,0,0,,0,164,164,266,1,figro,,,,
,,,,,,5e95d4f551598d01d6d455af,676192165fb32c2e1fb7aee6,67d09182b1dd8ba3e7443e1e,2025-03-11_16h48.20.732,Tarea de decisión léxica,2024.2.5,Win32,165.0165017,,,,,,,,,,,,,,,,,,,,,,,,636.959,637.982,l,1,0.364,,0.364,1,637.982,638.478,,,,,,326,FEM,NOWORD,DIS,150,mabia,,el,,638.479,638.48,0.278703704,-0.083333333,0,0,0,,0,165,165,325,1,magia,,,,
,,,,,,5e95d4f551598d01d6d455af,676192165fb32c2e1fb7aee6,67d09182b1dd8ba3e7443e1e,2025-03-11_16h48.20.732,Tarea de decisión léxica,2024.2.5,Win32,165.0165017,,,,,,,,,,,,,,,,,,,,,,,,638.48,639.563,a,1,0.425,,0.425,1,639.564,640.061,,,,,,325,FEM,WORD,AGR,150,magia,,la,,640.061,640.061,0.278703704,-0.083333333,0,0,0,,0,166,166,324,1,mabia,,,,
,,,,,,5e95d4f551598d01d6d455af,676192165fb32c2e1fb7aee6,67d09182b1dd8ba3e7443e1e,2025-03-11_16h48.20.732,Tarea de decisión léxica,2024.2.5,Win32,165.0165017,,,,,,,,,,,,,,,,,,,,,,,,640.061,641.188,a,1,0.468,,0.468,1,641.188,641.685,,,,,,29,MAS,WORD,AGR,150,modo,,el,,641.685,641.685,0.278703704,-0.083333333,0,0,0,,0,167,167,28,1,pono,,,,
,,,,,,5e95d4f551598d01d6d455af,676192165fb32c2e1fb7aee6,67d09182b1dd8ba3e7443e1e,2025-03-11_16h48.20.732,Tarea de decisión léxica,2024.2.5,Win32,165.0165017,,,,,,,,,,,,,,,,,,,,,,,,641.686,642.654,l,0,0.31,,0.31,0,642.655,643.151,,,,,,405,FEM,WORD,AGR,150,barra,,la,,643.151,643.151,0.278703704,-0.083333333,0,0,0,,0,168,168,404,1,rarra,,,,
,,,,,,5e95d4f551598d01d6d455af,676192165fb32c2e1fb7aee6,67d09182b1dd8ba3e7443e1e,2025-03-11_16h48.20.732,Tarea de decisión léxica,2024.2.5,Win32,165.0165017,,,,,,,,,,,,,,,,,,,,,,,,643.152,644.333,l,1,0.522,,0.522,1,644.334,644.83,,,,,,454,FEM,NOWORD,DIS,150,pafia,,el,,644.83,644.83,0.278703704,-0.083333333,0,0,0,,0,169,169,453,1,mafia,,,,
,,,,,,5e95d4f551598d01d6d455af,676192165fb32c2e1fb7aee6,67d09182b1dd8ba3e7443e1e,2025-03-11_16h48.20.732,Tarea de decisión léxica,2024.2.5,Win32,165.0165017,,,,,,,,,,,,,,,,,,,,,,,,644.831,645.884,l,1,0.395,,0.395,1,645.884,646.381,,,,,,122,MAS,NOWORD,DIS,150,bomo,,la,,646.382,646.383,0.278703704,-0.083333333,0,0,0,,0,170,170,121,1,hoyo,,,,
,,,,,,5e95d4f551598d01d6d455af,676192165fb32c2e1fb7aee6,67d09182b1dd8ba3e7443e1e,2025-03-11_16h48.20.732,Tarea de decisión léxica,2024.2.5,Win32,165.0165017,,,,,,,,,,,,,,,,,,,,,,,,646.384,647.636,l,1,0.596,,0.596,1,647.637,648.133,,,,,,254,MAS,NOWORD,DIS,150,trido,,la,,648.133,648.133,0.278703704,-0.083333333,0,0,0,,0,171,171,253,1,chico,,,,
,,,,,,5e95d4f551598d01d6d455af,676192165fb32c2e1fb7aee6,67d09182b1dd8ba3e7443e1e,2025-03-11_16h48.20.732,Tarea de decisión léxica,2024.2.5,Win32,165.0165017,,,,,,,,,,,,,,,,,,,,,,,,648.134,649.079,a,1,0.285,,0.285,1,649.079,649.575,,,,,,393,FEM,WORD,AGR,150,aldea,,la,,649.575,649.575,0.278703704,-0.083333333,0,0,0,,0,172,172,392,1,ashea,,,,
,,,,,,5e95d4f551598d01d6d455af,676192165fb32c2e1fb7aee6,67d09182b1dd8ba3e7443e1e,2025-03-11_16h48.20.732,Tarea de decisión léxica,2024.2.5,Win32,165.0165017,,,,,,,,,,,,,,,,,,,,,,,,649.576,650.575,a,1,0.338,,0.338,1,650.575,651.072,,,,,,127,MAS,WORD,AGR,150,pico,,el,,651.072,651.072,0.278703704,-0.083333333,0,0,0,,0,173,173,126,1,itio,,,,
,,,,,,5e95d4f551598d01d6d455af,676192165fb32c2e1fb7aee6,67d09182b1dd8ba3e7443e1e,2025-03-11_16h48.20.732,Tarea de decisión léxica,2024.2.5,Win32,165.0165017,,,,,,,,,,,,,,,,,,,,,,,,651.073,652.448,a,1,0.715,,0.715,1,652.449,652.945,,,,,,225,MAS,WORD,DIS,150,lodo,,la,,652.945,652.945,0.278703704,-0.083333333,0,0,0,,0,174,174,224,1,boco,,,,
,,,,,,5e95d4f551598d01d6d455af,676192165fb32c2e1fb7aee6,67d09182b1dd8ba3e7443e1e,2025-03-11_16h48.20.732,Tarea de decisión léxica,2024.2.5,Win32,165.0165017,,,,,,,,,,,,,,,,,,,,,,,,652.945,653.981,l,1,0.378,,0.378,1,653.981,654.478,,,,,,338,MAS,NOWORD,DIS,150,nuejo,,la,,654.479,654.48,0.278703704,-0.083333333,0,0,0,,0,175,175,337,1,huevo,,,,
,,,,,,5e95d4f551598d01d6d455af,676192165fb32c2e1fb7aee6,67d09182b1dd8ba3e7443e1e,2025-03-11_16h48.20.732,Tarea de decisión léxica,2024.2.5,Win32,165.0165017,,,,,,,,,,,,,,,,,,,,,,,,654.48,655.485,l,0,0.348,,0.348,0,655.485,655.982,,,,,,95,FEM,WORD,DIS,151,moda,,el,,655.982,655.982,0.278703704,-0.083333333,0,0,0,,0,176,176,94,1,neda,,,,
,,,,,,5e95d4f551598d01d6d455af,676192165fb32c2e1fb7aee6,67d09182b1dd8ba3e7443e1e,2025-03-11_16h48.20.732,Tarea de decisión léxica,2024.2.5,Win32,165.0165017,,,,,,,,,,,,,,,,,,,,,,,,655.983,657.145,l,1,0.503,,0.503,1,657.146,657.641,,,,,,168,FEM,NOWORD,AGR,150,zifa,,la,,657.642,657.642,0.278703704,-0.083333333,0,0,0,,0,177,177,167,1,jefa,,,,
,,,,,,5e95d4f551598d01d6d455af,676192165fb32c2e1fb7aee6,67d09182b1dd8ba3e7443e1e,2025-03-11_16h48.20.732,Tarea de decisión léxica,2024.2.5,Win32,165.0165017,,,,,,,,,,,,,,,,,,,,,,,,657.643,658.769,l,1,0.466,,0.466,1,658.769,659.266,,,,,,350,MAS,NOWORD,DIS,150,cosir,,la,,659.266,659.266,0.278703704,-0.083333333,0,0,0,,0,178,178,349,1,color,,,,
,,,,,,5e95d4f551598d01d6d455af,676192165fb32c2e1fb7aee6,67d09182b1dd8ba3e7443e1e,2025-03-11_16h48.20.732,Tarea de decisión léxica,2024.2.5,Win32,165.0165017,,,,,,,,,,,,,,,,,,,,,,,,659.266,660.345,l,1,0.42,,0.42,1,660.346,660.842,,,,,,212,FEM,NOWORD,AGR,150,joad,,la,,660.844,660.847,0.278703704,-0.083333333,0,0,0,,0,179,179,211,1,joya,,,,
,,,,,,5e95d4f551598d01d6d455af,676192165fb32c2e1fb7aee6,67d09182b1dd8ba3e7443e1e,2025-03-11_16h48.20.732,Tarea de decisión léxica,2024.2.5,Win32,165.0165017,,,,,,,,,,,,,,,,,,,,,,,,660.849,661.847,a,1,0.339,,0.339,1,661.847,662.344,,,,,,63,FEM,WORD,AGR,150,luna,,la,,662.344,662.344,0.278703704,-0.083333333,0,0,0,,0,180,180,62,1,funa,,,,
,,,,,,5e95d4f551598d01d6d455af,676192165fb32c2e1fb7aee6,67d09182b1dd8ba3e7443e1e,2025-03-11_16h48.20.732,Tarea de decisión léxica,2024.2.5,Win32,165.0165017,,,,,,,,,,,,,,,,,,,,,,,,662.345,663.375,a,1,0.37,,0.37,1,663.375,663.872,,,,,,255,MAS,WORD,AGR,150,miedo,,el,,663.872,663.872,0.278703704,-0.083333333,0,0,0,,0,181,181,254,1,mauco,,,,
,,,,,,5e95d4f551598d01d6d455af,676192165fb32c2e1fb7aee6,67d09182b1dd8ba3e7443e1e,2025-03-11_16h48.20.732,Tarea de decisión léxica,2024.2.5,Win32,165.0165017,,,,,,,,,,,,,,,,,,,,,,,,663.873,664.92,a,1,0.387,,0.387,1,664.921,665.417,,,,,,279,FEM,WORD,AGR,150,prisa,,la,,665.417,665.417,0.278703704,-0.083333333,0,0,0,,0,182,182,278,1,grina,,,,
,,,,,,5e95d4f551598d01d6d455af,676192165fb32c2e1fb7aee6,67d09182b1dd8ba3e7443e1e,2025-03-11_16h48.20.732,Tarea de decisión léxica,2024.2.5,Win32,165.0165017,,,,,,,,,,,,,,,,,,,,,,,,665.418,666.52,a,1,0.442,,0.442,1,666.52,667.017,,,,,,101,MAS,WORD,AGR,150,tono,,el,,667.017,667.017,0.278703704,-0.083333333,0,0,0,,0,183,183,100,1,gito,,,,
,,,,,,5e95d4f551598d01d6d455af,676192165fb32c2e1fb7aee6,67d09182b1dd8ba3e7443e1e,2025-03-11_16h48.20.732,Tarea de decisión léxica,2024.2.5,Win32,165.0165017,,,,,,,,,,,,,,,,,,,,,,,,667.018,668.005,a,1,0.331,,0.331,1,668.006,668.502,,,,,,407,FEM,WORD,DIS,150,cueva,,el,,668.502,668.503,0.278703704,-0.083333333,0,0,0,,0,184,184,406,1,cauba,,,,
,,,,,,5e95d4f551598d01d6d455af,676192165fb32c2e1fb7aee6,67d09182b1dd8ba3e7443e1e,2025-03-11_16h48.20.732,Tarea de decisión léxica,2024.2.5,Win32,165.0165017,,,,,,,,,,,,,,,,,,,,,,,,668.504,669.545,a,1,0.381,,0.381,1,669.545,670.042,,,,,,265,FEM,WORD,DIS,150,mitad,,el,,670.042,670.042,0.278703704,-0.083333333,0,0,0,,0,185,185,264,1,pitat,,,,
,,,,,,5e95d4f551598d01d6d455af,676192165fb32c2e1fb7aee6,67d09182b1dd8ba3e7443e1e,2025-03-11_16h48.20.732,Tarea de decisión léxica,2024.2.5,Win32,165.0165017,,,,,,,,,,,,,,,,,,,,,,,,670.043,671.266,l,1,0.563,,0.563,1,671.266,671.762,,,,,,442,FEM,NOWORD,DIS,150,telza,,el,,671.762,671.762,0.278703704,-0.083333333,0,0,0,,0,186,186,441,1,selva,,,,
,,,,,,5e95d4f551598d01d6d455af,676192165fb32c2e1fb7aee6,67d09182b1dd8ba3e7443e1e,2025-03-11_16h48.20.732,Tarea de decisión léxica,2024.2.5,Win32,165.0165017,,,,,,,,,,,,,,,,,,,,,,,,671.763,672.902,l,1,0.481,,0.481,1,672.902,673.399,,,,,,476,FEM,NOWORD,AGR,150,mucta,,la,,673.399,673.399,0.278703704,-0.083333333,0,0,0,,0,187,187,475,1,manta,,,,
,,,,,,5e95d4f551598d01d6d455af,676192165fb32c2e1fb7aee6,67d09182b1dd8ba3e7443e1e,2025-03-11_16h48.20.732,Tarea de decisión léxica,2024.2.5,Win32,165.0165017,,,,,,,,,,,,,,,,,,,,,,,,673.4,674.611,l,1,0.552,,0.552,1,674.611,675.108,,,,,,108,MAS,NOWORD,AGR,150,raot,,el,,675.108,675.108,0.278703704,-0.083333333,0,0,0,,0,188,188,107,1,saco,,,,
,,,,,,5e95d4f551598d01d6d455af,676192165fb32c2e1fb7aee6,67d09182b1dd8ba3e7443e1e,2025-03-11_16h48.20.732,Tarea de decisión léxica,2024.2.5,Win32,165.0165017,,,,,,,,,,,,,,,,,,,,,,,,675.109,676.363,a,1,0.593,,0.593,1,676.363,676.859,,,,,,335,FEM,WORD,AGR,150,costa,,la,,676.86,676.861,0.278703704,-0.083333333,0,0,0,,0,189,189,334,1,pesta,,,,
,,,,,,5e95d4f551598d01d6d455af,676192165fb32c2e1fb7aee6,67d09182b1dd8ba3e7443e1e,2025-03-11_16h48.20.732,Tarea de decisión léxica,2024.2.5,Win32,165.0165017,,,,,,,,,,,,,,,,,,,,,,,,676.861,677.999,a,1,0.482,,0.482,1,678,678.496,,,,,,45,FEM,WORD,AGR,150,mesa,,la,,678.496,678.496,0.278703704,-0.083333333,0,0,0,,0,190,190,44,1,pema,,,,
,,,,,,5e95d4f551598d01d6d455af,676192165fb32c2e1fb7aee6,67d09182b1dd8ba3e7443e1e,2025-03-11_16h48.20.732,Tarea de decisión léxica,2024.2.5,Win32,165.0165017,,,,,,,,,,,,,,,,,,,,,,,,678.497,679.569,a,1,0.413,,0.413,1,679.569,680.065,,,,,,163,FEM,WORD,AGR,150,fama,,la,,680.065,680.066,0.278703704,-0.083333333,0,0,0,,0,191,191,162,1,laga,,,,
,,,,,,5e95d4f551598d01d6d455af,676192165fb32c2e1fb7aee6,67d09182b1dd8ba3e7443e1e,2025-03-11_16h48.20.732,Tarea de decisión léxica,2024.2.5,Win32,165.0165017,,,,,,,,,,,,,,,,,,,,,,,,680.066,681.356,l,1,0.631,,0.631,1,681.357,681.853,,,,,,226,MAS,NOWORD,DIS,150,boco,,la,,681.853,681.853,0.278703704,-0.083333333,0,0,0,,0,192,192,225,1,lodo,,,,
,,,,,,5e95d4f551598d01d6d455af,676192165fb32c2e1fb7aee6,67d09182b1dd8ba3e7443e1e,2025-03-11_16h48.20.732,Tarea de decisión léxica,2024.2.5,Win32,165.0165017,,,,,,,,,,,,,,,,,,,,,,,,681.854,682.956,l,1,0.443,,0.443,1,682.956,683.453,,,,,,48,MAS,NOWORD,AGR,150,chub,,el,,683.453,683.453,0.278703704,-0.083333333,0,0,0,,0,193,193,47,1,club,,,,
,,,,,,5e95d4f551598d01d6d455af,676192165fb32c2e1fb7aee6,67d09182b1dd8ba3e7443e1e,2025-03-11_16h48.20.732,Tarea de decisión léxica,2024.2.5,Win32,165.0165017,,,,,,,,,,,,,,,,,,,,,,,,683.454,684.617,l,1,0.504,,0.504,1,684.617,685.114,,,,,,320,MAS,NOWORD,AGR,150,tuero,,el,,685.114,685.115,0.278703704,-0.083333333,0,0,0,,0,194,194,319,1,suelo,,,,
,,,,,,5e95d4f551598d01d6d455af,676192165fb32c2e1fb7aee6,67d09182b1dd8ba3e7443e1e,2025-03-11_16h48.20.732,Tarea de decisión léxica,2024.2.5,Win32,165.0165017,,,,,,,,,,,,,,,,,,,,,,,,685.116,686.217,l,1,0.445,,0.445,1,686.218,686.714,,,,,,210,MAS,NOWORD,DIS,150,dero,,la,,686.714,686.714,0.278703704,-0.083333333,0,0,0,,0,195,195,209,1,velo,,,,
,,,,,,5e95d4f551598d01d6d455af,676192165fb32c2e1fb7aee6,67d09182b1dd8ba3e7443e1e,2025-03-11_16h48.20.732,Tarea de decisión léxica,2024.2.5,Win32,165.0165017,,,,,,,,,,,,,,,,,,,,,,,,686.715,687.913,l,1,0.542,,0.542,1,687.913,688.411,,,,,,66,MAS,NOWORD,DIS,150,nios,,la,,688.411,688.411,0.278703704,-0.083333333,0,0,0,,0,196,196,65,1,dios,,,,
,,,,,,5e95d4f551598d01d6d455af,676192165fb32c2e1fb7aee6,67d09182b1dd8ba3e7443e1e,2025-03-11_16h48.20.732,Tarea de decisión léxica,2024.2.5,Win32,165.0165017,,,,,,,,,,,,,,,,,,,,,,,,688.412,689.344,a,1,0.275,,0.275,1,689.344,689.841,,,,,,475,FEM,WORD,DIS,150,manta,,el,,689.841,689.841,0.278703704,-0.083333333,0,0,0,,0,197,197,474,1,mucta,,,,
,,,,,,5e95d4f551598d01d6d455af,676192165fb32c2e1fb7aee6,67d09182b1dd8ba3e7443e1e,2025-03-11_16h48.20.732,Tarea de decisión léxica,2024.2.5,Win32,165.0165017,,,,,,,,,,,,,,,,,,,,,,,,689.843,690.829,a,0,0.328,,0.328,0,690.829,691.326,,,,,,26,FEM,NOWORD,DIS,150,paza,,el,,691.326,691.326,0.278703704,-0.083333333,0,0,0,,0,198,198,25,1,cama,,,,
,,,,,,5e95d4f551598d01d6d455af,676192165fb32c2e1fb7aee6,67d09182b1dd8ba3e7443e1e,2025-03-11_16h48.20.732,Tarea de decisión léxica,2024.2.5,Win32,165.0165017,,,,,,,,,,,,,,,,,,,,,,,,691.326,692.835,a,1,0.85,,0.85,1,692.835,693.332,,,,,,371,FEM,WORD,AGR,150,pasta,,la,,693.332,693.333,0.278703704,-0.083333333,0,0,0,,0,199,199,370,1,mosta,,,,
,,,,,,5e95d4f551598d01d6d455af,676192165fb32c2e1fb7aee6,67d09182b1dd8ba3e7443e1e,2025-03-11_16h48.20.732,Tarea de decisión léxica,2024.2.5,Win32,165.0165017,,,,,,,,,,,,,,,,,,,,,,,,693.334,694.611,a,1,0.62,,0.62,1,694.611,695.107,,,,,,223,FEM,WORD,AGR,150,cera,,la,,695.107,695.108,0.278703704,-0.083333333,0,0,0,,0,200,200,222,1,cira,,,,
,,,,,,5e95d4f551598d01d6d455af,676192165fb32c2e1fb7aee6,67d09182b1dd8ba3e7443e1e,2025-03-11_16h48.20.732,Tarea de decisión léxica,2024.2.5,Win32,165.0165017,,,,,,,,,,,,,,,,,,,,,,,,695.11,696.253,l,1,0.486,,0.486,1,696.253,696.75,,,,,,154,MAS,NOWORD,DIS,150,tado,,la,,696.75,696.75,0.278703704,-0.083333333,0,0,0,,0,201,201,153,1,pato,,,,
,,,,,,5e95d4f551598d01d6d455af,676192165fb32c2e1fb7aee6,67d09182b1dd8ba3e7443e1e,2025-03-11_16h48.20.732,Tarea de decisión léxica,2024.2.5,Win32,165.0165017,,,,,,,,,,,,,,,,,,,,,,,,696.751,697.762,a,1,0.355,,0.355,1,697.762,698.26,,,,,,1,FEM,WORD,AGR,150,casa,,la,,698.26,698.26,0.278703704,-0.083333333,0,0,0,,0,202,202,0,1,mada,,,,
,,,,,,5e95d4f551598d01d6d455af,676192165fb32c2e1fb7aee6,67d09182b1dd8ba3e7443e1e,2025-03-11_16h48.20.732,Tarea de decisión léxica,2024.2.5,Win32,165.0165017,,,,,,,,,,,,,,,,,,,,,,,,698.26,699.38,a,1,0.462,,0.462,1,699.38,699.877,,,,,,397,FEM,WORD,AGR,150,tribu,,la,,699.878,699.879,0.278703704,-0.083333333,0,0,0,,0,203,203,396,1,trigi,,,,
,,,,,,5e95d4f551598d01d6d455af,676192165fb32c2e1fb7aee6,67d09182b1dd8ba3e7443e1e,2025-03-11_16h48.20.732,Tarea de decisión léxica,2024.2.5,Win32,165.0165017,,,,,,,,,,,,,,,,,,,,,,,,699.879,700.878,l,1,0.34,,0.34,1,700.878,701.374,,,,,,220,FEM,NOWORD,AGR,150,miva,,la,,701.374,701.374,0.278703704,-0.083333333,0,0,0,,0,204,204,219,1,pipa,,,,
,,,,,,5e95d4f551598d01d6d455af,676192165fb32c2e1fb7aee6,67d09182b1dd8ba3e7443e1e,2025-03-11_16h48.20.732,Tarea de decisión léxica,2024.2.5,Win32,165.0165017,,,,,,,,,,,,,,,,,,,,,,,,701.375,702.483,l,1,0.451,,0.451,1,702.484,702.98,,,,,,388,FEM,NOWORD,AGR,150,bresa,,la,,702.98,702.98,0.278703704,-0.083333333,0,0,0,,0,205,205,387,1,crema,,,,
,,,,,,5e95d4f551598d01d6d455af,676192165fb32c2e1fb7aee6,67d09182b1dd8ba3e7443e1e,2025-03-11_16h48.20.732,Tarea de decisión léxica,2024.2.5,Win32,165.0165017,,,,,,,,,,,,,,,,,,,,,,,,702.981,704.083,l,1,0.445,,0.445,1,704.083,704.58,,,,,,136,MAS,NOWORD,AGR,150,geso,,el,,704.58,704.58,0.278703704,-0.083333333,0,0,0,,0,206,206,135,1,tubo,,,,
,,,,,,5e95d4f551598d01d6d455af,676192165fb32c2e1fb7aee6,67d09182b1dd8ba3e7443e1e,2025-03-11_16h48.20.732,Tarea de decisión léxica,2024.2.5,Win32,165.0165017,,,,,,,,,,,,,,,,,,,,,,,,704.581,705.635,a,1,0.397,,0.397,1,705.635,706.131,,,,,,141,FEM,WORD,DIS,150,cruz,,el,,706.131,706.132,0.278703704,-0.083333333,0,0,0,,0,207,207,140,1,sina,,,,
,,,,,,5e95d4f551598d01d6d455af,676192165fb32c2e1fb7aee6,67d09182b1dd8ba3e7443e1e,2025-03-11_16h48.20.732,Tarea de decisión léxica,2024.2.5,Win32,165.0165017,,,,,,,,,,,,,,,,,,,,,,,,706.133,707.428,l,1,0.637,,0.637,1,707.428,707.926,,,,,,198,MAS,NOWORD,DIS,150,dade,,la,,707.926,707.928,0.278703704,-0.083333333,0,0,0,,0,208,208,197,1,bate,,,,
,,,,,,5e95d4f551598d01d6d455af,676192165fb32c2e1fb7aee6,67d09182b1dd8ba3e7443e1e,2025-03-11_16h48.20.732,Tarea de decisión léxica,2024.2.5,Win32,165.0165017,,,,,,,,,,,,,,,,,,,,,,,,707.928,709.035,a,1,0.452,,0.452,1,709.035,709.531,,,,,,171,MAS,WORD,AGR,150,hilo,,el,,709.531,709.532,0.278703704,-0.083333333,0,0,0,,0,209,209,170,1,niro,,,,
,,,,,,5e95d4f551598d01d6d455af,676192165fb32c2e1fb7aee6,67d09182b1dd8ba3e7443e1e,2025-03-11_16h48.20.732,Tarea de decisión léxica,2024.2.5,Win32,165.0165017,,,,,,,,,,,,,,,,,,,,,,,,709.532,710.58,a,1,0.389,,0.389,1,710.58,711.077,,,,,,65,MAS,WORD,DIS,150,dios,,la,,711.077,711.077,0.278703704,-0.083333333,0,0,0,,0,210,210,64,1,nios,,,,
,,,,,,5e95d4f551598d01d6d455af,676192165fb32c2e1fb7aee6,67d09182b1dd8ba3e7443e1e,2025-03-11_16h48.20.732,Tarea de decisión léxica,2024.2.5,Win32,165.0165017,,,,,,,,,,,,,,,,,,,,,,,,711.078,712.125,l,0,0.389,,0.389,0,712.126,712.623,,,,,,215,FEM,WORD,DIS,150,raíz,,el,,712.623,712.623,0.278703704,-0.083333333,0,0,0,,0,211,211,214,1,raua,,,,
,,,,,,5e95d4f551598d01d6d455af,676192165fb32c2e1fb7aee6,67d09182b1dd8ba3e7443e1e,2025-03-11_16h48.20.732,Tarea de decisión léxica,2024.2.5,Win32,165.0165017,,,,,,,,,,,,,,,,,,,,,,,,712.624,713.768,a,1,0.485,,0.485,1,713.769,714.264,,,,,,375,FEM,WORD,AGR,150,salsa,,la,,714.264,714.264,0.278703704,-0.083333333,0,0,0,,0,212,212,374,1,sasna,,,,
,,,,,,5e95d4f551598d01d6d455af,676192165fb32c2e1fb7aee6,67d09182b1dd8ba3e7443e1e,2025-03-11_16h48.20.732,Tarea de decisión léxica,2024.2.5,Win32,165.0165017,,,,,,,,,,,,,,,,,,,,,,,,714.265,715.507,l,1,0.586,,0.586,1,715.508,716.004,,,,,,302,FEM,NOWORD,DIS,150,ranga,,el,,716.004,716.005,0.278703704,-0.083333333,0,0,0,,0,213,213,301,1,banda,,,,
,,,,,,5e95d4f551598d01d6d455af,676192165fb32c2e1fb7aee6,67d09182b1dd8ba3e7443e1e,2025-03-11_16h48.20.732,Tarea de decisión léxica,2024.2.5,Win32,165.0165017,,,,,,,,,,,,,,,,,,,,,,,,716.007,717.041,a,1,0.376,,0.376,1,717.041,717.537,,,,,,31,FEM,WORD,AGR,150,ropa,,la,,717.537,717.537,0.278703704,-0.083333333,0,0,0,,0,214,214,30,1,bova,,,,
,,,,,,5e95d4f551598d01d6d455af,676192165fb32c2e1fb7aee6,67d09182b1dd8ba3e7443e1e,2025-03-11_16h48.20.732,Tarea de decisión léxica,2024.2.5,Win32,165.0165017,,,,,,,,,,,,,,,,,,,,,,,,717.538,718.653,l,1,0.456,,0.456,1,718.653,719.15,,,,,,450,FEM,NOWORD,DIS,150,crusa,,el,,719.15,719.15,0.278703704,-0.083333333,0,0,0,,0,215,215,449,1,pluma,,,,
,,,,,,5e95d4f551598d01d6d455af,676192165fb32c2e1fb7aee6,67d09182b1dd8ba3e7443e1e,2025-03-11_16h48.20.732,Tarea de decisión léxica,2024.2.5,Win32,165.0165017,,,,,,,,,,,,,,,,,,,,,,,,719.151,720.301,l,1,0.494,,0.494,1,720.301,720.798,,,,,,354,FEM,NOWORD,DIS,150,cezca,,el,,720.798,720.798,0.278703704,-0.083333333,0,0,0,,0,216,216,353,1,celda,,,,
,,,,,,5e95d4f551598d01d6d455af,676192165fb32c2e1fb7aee6,67d09182b1dd8ba3e7443e1e,2025-03-11_16h48.20.732,Tarea de decisión léxica,2024.2.5,Win32,165.0165017,,,,,,,,,,,,,,,,,,,,,,,,720.799,721.926,l,1,0.469,,0.469,1,721.926,722.423,,,,,,244,MAS,NOWORD,AGR,150,asamo,,el,,722.423,722.423,0.278703704,-0.083333333,0,0,0,,0,217,217,243,1,amigo,,,,
,,,,,,5e95d4f551598d01d6d455af,676192165fb32c2e1fb7aee6,67d09182b1dd8ba3e7443e1e,2025-03-11_16h48.20.732,Tarea de decisión léxica,2024.2.5,Win32,165.0165017,,,,,,,,,,,,,,,,,,,,,,,,722.423,723.568,l,1,0.486,,0.486,1,723.568,724.065,,,,,,102,MAS,NOWORD,DIS,150,gito,,la,,724.065,724.065,0.278703704,-0.083333333,0,0,0,,0,218,218,101,1,tono,,,,
,,,,,,5e95d4f551598d01d6d455af,676192165fb32c2e1fb7aee6,67d09182b1dd8ba3e7443e1e,2025-03-11_16h48.20.732,Tarea de decisión léxica,2024.2.5,Win32,165.0165017,,,,,,,,,,,,,,,,,,,,,,,,724.066,725.192,a,1,0.466,,0.466,1,725.192,725.688,,,,,,273,FEM,WORD,DIS,150,broma,,el,,725.689,725.689,0.278703704,-0.083333333,0,0,0,,0,219,219,272,1,frosa,,,,
,,,,,,5e95d4f551598d01d6d455af,676192165fb32c2e1fb7aee6,67d09182b1dd8ba3e7443e1e,2025-03-11_16h48.20.732,Tarea de decisión léxica,2024.2.5,Win32,165.0165017,,,,,,,,,,,,,,,,,,,,,,,,725.689,726.865,l,1,0.516,,0.516,1,726.865,727.362,,,,,,80,FEM,NOWORD,AGR,150,ciel,,la,,727.362,727.363,0.278703704,-0.083333333,0,0,0,,0,220,220,79,1,piel,,,,
,,,,,,5e95d4f551598d01d6d455af,676192165fb32c2e1fb7aee6,67d09182b1dd8ba3e7443e1e,2025-03-11_16h48.20.732,Tarea de decisión léxica,2024.2.5,Win32,165.0165017,,,,,,,,,,,,,,,,,,,,,,,,727.366,728.598,a,1,0.578,,0.578,1,728.599,729.095,,,,,,41,FEM,WORD,AGR,150,nave,,la,,729.095,729.095,0.278703704,-0.083333333,0,0,0,,0,221,221,40,1,haje,,,,
,,,,,,5e95d4f551598d01d6d455af,676192165fb32c2e1fb7aee6,67d09182b1dd8ba3e7443e1e,2025-03-11_16h48.20.732,Tarea de decisión léxica,2024.2.5,Win32,165.0165017,,,,,,,,,,,,,,,,,,,,,,,,729.096,730.361,l,0,0.606,,0.606,0,730.362,730.858,,,,,,479,MAS,WORD,DIS,150,rumbo,,la,,730.858,730.858,0.278703704,-0.083333333,0,0,0,,0,222,222,478,1,rimpo,,,,
,,,,,,5e95d4f551598d01d6d455af,676192165fb32c2e1fb7aee6,67d09182b1dd8ba3e7443e1e,2025-03-11_16h48.20.732,Tarea de decisión léxica,2024.2.5,Win32,165.0165017,,,,,,,,,,,,,,,,,,,,,,,,730.859,732.088,l,1,0.57,,0.57,1,732.089,732.585,,,,,,426,FEM,NOWORD,DIS,150,virca,,el,,732.586,732.588,0.278703704,-0.083333333,0,0,0,,0,223,223,425,1,viuda,,,,
,,,,,,5e95d4f551598d01d6d455af,676192165fb32c2e1fb7aee6,67d09182b1dd8ba3e7443e1e,2025-03-11_16h48.20.732,Tarea de decisión léxica,2024.2.5,Win32,165.0165017,,,,,,,,,,,,,,,,,,,,,,,,732.589,733.755,l,1,0.509,,0.509,1,733.755,734.252,,,,,,480,MAS,NOWORD,AGR,150,rimpo,,el,,734.252,734.252,0.278703704,-0.083333333,0,0,0,,0,224,224,479,1,rumbo,,,,
,,,,,,5e95d4f551598d01d6d455af,676192165fb32c2e1fb7aee6,67d09182b1dd8ba3e7443e1e,2025-03-11_16h48.20.732,Tarea de decisión léxica,2024.2.5,Win32,165.0165017,,,,,,,,,,,,,,,,,,,,,,,,734.253,735.506,a,0,0.593,,0.593,0,735.507,736.004,,,,,,262,MAS,NOWORD,DIS,150,titio,,la,,736.004,736.004,0.278703704,-0.083333333,0,0,0,,0,225,225,261,1,sitio,,,,
,,,,,,5e95d4f551598d01d6d455af,676192165fb32c2e1fb7aee6,67d09182b1dd8ba3e7443e1e,2025-03-11_16h48.20.732,Tarea de decisión léxica,2024.2.5,Win32,165.0165017,,,,,,,,,,,,,,,,,,,,,,,,736.005,737.028,a,1,0.366,,0.366,1,737.029,737.524,,,,,,445,MAS,WORD,DIS,150,actor,,la,,737.525,737.525,0.278703704,-0.083333333,0,0,0,,0,226,226,444,1,ascor,,,,
,,,,,,5e95d4f551598d01d6d455af,676192165fb32c2e1fb7aee6,67d09182b1dd8ba3e7443e1e,2025-03-11_16h48.20.732,Tarea de decisión léxica,2024.2.5,Win32,165.0165017,,,,,,,,,,,,,,,,,,,,,,,,737.525,738.992,a,1,0.808,,0.808,1,738.992,739.488,,,,,,139,MAS,WORD,AGR,150,mago,,el,,739.489,739.49,0.278703704,-0.083333333,0,0,0,,0,227,227,138,1,nila,,,,
,,,,,,5e95d4f551598d01d6d455af,676192165fb32c2e1fb7aee6,67d09182b1dd8ba3e7443e1e,2025-03-11_16h48.20.732,Tarea de decisión léxica,2024.2.5,Win32,165.0165017,,,,,,,,,,,,,,,,,,,,,,,,739.49,740.658,l,1,0.51,,0.51,1,740.659,741.155,,,,,,118,MAS,NOWORD,DIS,150,movo,,la,,741.155,741.155,0.278703704,-0.083333333,0,0,0,,0,228,228,117,1,palo,,,,
,,,,,,5e95d4f551598d01d6d455af,676192165fb32c2e1fb7aee6,67d09182b1dd8ba3e7443e1e,2025-03-11_16h48.20.732,Tarea de decisión léxica,2024.2.5,Win32,165.0165017,,,,,,,,,,,,,,,,,,,,,,,,741.156,742.203,a,1,0.388,,0.388,1,742.203,742.7,,,,,,253,MAS,WORD,DIS,150,chico,,la,,742.7,742.7,0.278703704,-0.083333333,0,0,0,,0,229,229,252,1,trido,,,,
,,,,,,5e95d4f551598d01d6d455af,676192165fb32c2e1fb7aee6,67d09182b1dd8ba3e7443e1e,2025-03-11_16h48.20.732,Tarea de decisión léxica,2024.2.5,Win32,165.0165017,,,,,,,,,,,,,,,,,,,,,,,,742.701,743.827,l,1,0.467,,0.467,1,743.828,744.325,,,,,,202,FEM,NOWORD,DIS,150,cusa,,el,,744.325,744.325,0.278703704,-0.083333333,0,0,0,,0,230,230,201,1,cuna,,,,
,,,,,,5e95d4f551598d01d6d455af,676192165fb32c2e1fb7aee6,67d09182b1dd8ba3e7443e1e,2025-03-11_16h48.20.732,Tarea de decisión léxica,2024.2.5,Win32,165.0165017,,,,,,,,,,,,,,,,,,,,,,,,744.326,745.416,a,1,0.434,,0.434,1,745.416,745.912,,,,,,151,MAS,WORD,AGR,150,tomo,,el,,745.912,745.912,0.278703704,-0.083333333,0,0,0,,0,231,231,150,1,sogo,,,,
,,,,,,5e95d4f551598d01d6d455af,676192165fb32c2e1fb7aee6,67d09182b1dd8ba3e7443e1e,2025-03-11_16h48.20.732,Tarea de decisión léxica,2024.2.5,Win32,165.0165017,,,,,,,,,,,,,,,,,,,,,,,,745.913,746.913,a,1,0.342,,0.342,1,746.913,747.409,,,,,,447,MAS,WORD,AGR,150,bolso,,el,,747.41,747.41,0.278703704,-0.083333333,0,0,0,,0,232,232,446,1,buaso,,,,
,,,,,,5e95d4f551598d01d6d455af,676192165fb32c2e1fb7aee6,67d09182b1dd8ba3e7443e1e,2025-03-11_16h48.20.732,Tarea de decisión léxica,2024.2.5,Win32,165.0165017,,,,,,,,,,,,,,,,,,,,,,,,747.411,748.476,l,1,0.406,,0.406,1,748.476,748.973,,,,,,138,MAS,NOWORD,DIS,150,pamo,,la,,748.973,748.973,0.278703704,-0.083333333,0,0,0,,0,233,233,137,1,nene,,,,
,,,,,,5e95d4f551598d01d6d455af,676192165fb32c2e1fb7aee6,67d09182b1dd8ba3e7443e1e,2025-03-11_16h48.20.732,Tarea de decisión léxica,2024.2.5,Win32,165.0165017,,,,,,,,,,,,,,,,,,,,,,,,748.974,749.955,l,1,0.323,,0.323,1,749.955,750.451,,,,,,356,FEM,NOWORD,AGR,150,bepla,,la,,750.452,750.452,0.278703704,-0.083333333,0,0,0,,0,234,234,355,1,regla,,,,
,,,,,,5e95d4f551598d01d6d455af,676192165fb32c2e1fb7aee6,67d09182b1dd8ba3e7443e1e,2025-03-11_16h48.20.732,Tarea de decisión léxica,2024.2.5,Win32,165.0165017,,,,,,,,,,,,,,,,,,,,,,,,750.452,751.5,l,1,0.388,,0.388,1,751.5,751.997,,,,,,278,MAS,NOWORD,DIS,150,vuemo,,la,,751.997,751.997,0.278703704,-0.083333333,0,0,0,,0,235,235,277,1,fuego,,,,
,,,,,,5e95d4f551598d01d6d455af,676192165fb32c2e1fb7aee6,67d09182b1dd8ba3e7443e1e,2025-03-11_16h48.20.732,Tarea de decisión léxica,2024.2.5,Win32,165.0165017,,,,,,,,,,,,,,,,,,,,,,,,751.998,752.955,l,0,0.298,,0.298,0,752.956,753.451,,,,,,203,FEM,WORD,DIS,150,leña,,el,,753.451,753.451,0.278703704,-0.083333333,0,0,0,,0,236,236,202,1,beja,,,,
,,,,,,5e95d4f551598d01d6d455af,676192165fb32c2e1fb7aee6,67d09182b1dd8ba3e7443e1e,2025-03-11_16h48.20.732,Tarea de decisión léxica,2024.2.5,Win32,165.0165017,,,,,,,,,,,,,,,,,,,,,,,,753.453,754.61,l,1,0.5,,0.5,1,754.61,755.106,,,,,,398,FEM,NOWORD,DIS,150,trigi,,el,,755.106,755.107,0.278703704,-0.083333333,0,0,0,,0,237,237,397,1,tribu,,,,
,,,,,,5e95d4f551598d01d6d455af,676192165fb32c2e1fb7aee6,67d09182b1dd8ba3e7443e1e,2025-03-11_16h48.20.732,Tarea de decisión léxica,2024.2.5,Win32,165.0165017,,,,,,,,,,,,,,,,,,,,,,,,755.108,756.251,l,1,0.485,,0.485,1,756.251,756.748,,,,,,412,MAS,NOWORD,AGR,150,mobro,,el,,756.748,756.749,0.278703704,-0.083333333,0,0,0,,0,238,238,411,1,pollo,,,,
,,,,,,5e95d4f551598d01d6d455af,676192165fb32c2e1fb7aee6,67d09182b1dd8ba3e7443e1e,2025-03-11_16h48.20.732,Tarea de decisión léxica,2024.2.5,Win32,165.0165017,,,,,,,,,,,,,,,,,,,,,,,,756.749,757.809,l,1,0.403,,0.403,1,757.809,758.306,,,,,,328,MAS,NOWORD,AGR,150,lendo,,el,,758.306,758.306,0.278703704,-0.083333333,0,0,0,,0,239,239,327,1,fondo,,,,
,,,,,,5e95d4f551598d01d6d455af,676192165fb32c2e1fb7aee6,67d09182b1dd8ba3e7443e1e,2025-03-11_16h48.20.732,Tarea de decisión léxica,2024.2.5,Win32,165.0165017,,,,,,,,,,,,,,,,,,,,,,,,758.307,759.354,l,1,0.39,,0.39,1,759.354,759.851,,,,,,216,FEM,NOWORD,AGR,150,raua,,la,,759.851,759.852,0.278703704,-0.083333333,0,0,0,,0,240,240,215,1,raíz,,,,
,,,,,,5e95d4f551598d01d6d455af,676192165fb32c2e1fb7aee6,67d09182b1dd8ba3e7443e1e,2025-03-11_16h48.20.732,Tarea de decisión léxica,2024.2.5,Win32,165.0165017,,,,,,,,,,,,,,,,,,,,,,,,759.852,760.828,l,1,0.318,,0.318,1,760.828,761.325,,,,,,288,FEM,NOWORD,AGR,150,fosta,,la,,761.325,761.326,0.278703704,-0.083333333,0,0,0,,0,241,241,287,1,lista,,,,
,,,,,,5e95d4f551598d01d6d455af,676192165fb32c2e1fb7aee6,67d09182b1dd8ba3e7443e1e,2025-03-11_16h48.20.732,Tarea de decisión léxica,2024.2.5,Win32,165.0165017,,,,,,,,,,,,,,,,,,,,,,,,761.328,762.349,l,1,0.365,,0.365,1,762.349,762.846,,,,,,406,FEM,NOWORD,DIS,150,rarra,,el,,762.846,762.847,0.278703704,-0.083333333,0,0,0,,0,242,242,405,1,barra,,,,
,,,,,,5e95d4f551598d01d6d455af,676192165fb32c2e1fb7aee6,67d09182b1dd8ba3e7443e1e,2025-03-11_16h48.20.732,Tarea de decisión léxica,2024.2.5,Win32,165.0165017,,,,,,,,,,,,,,,,,,,,,,,,762.848,763.893,l,1,0.388,,0.388,1,763.894,764.391,,,,,,222,FEM,NOWORD,DIS,150,puca,,el,,764.392,764.392,0.278703704,-0.083333333,0,0,0,,0,243,243,221,1,mula,,,,
,,,,,,5e95d4f551598d01d6d455af,676192165fb32c2e1fb7aee6,67d09182b1dd8ba3e7443e1e,2025-03-11_16h48.20.732,Tarea de decisión léxica,2024.2.5,Win32,165.0165017,,,,,,,,,,,,,,,,,,,,,,,,764.392,765.379,a,1,0.331,,0.331,1,765.379,765.875,,,,,,33,FEM,WORD,DIS,150,boca,,el,,765.875,765.875,0.278703704,-0.083333333,0,0,0,,0,244,244,32,1,loda,,,,
,,,,,,5e95d4f551598d01d6d455af,676192165fb32c2e1fb7aee6,67d09182b1dd8ba3e7443e1e,2025-03-11_16h48.20.732,Tarea de decisión léxica,2024.2.5,Win32,165.0165017,,,,,,,,,,,,,,,,,,,,,,,,765.876,766.991,l,1,0.454,,0.454,1,766.991,767.488,,,,,,384,FEM,NOWORD,AGR,150,brame,,la,,767.488,767.488,0.278703704,-0.083333333,0,0,0,,0,245,245,383,1,frase,,,,
,,,,,,5e95d4f551598d01d6d455af,676192165fb32c2e1fb7aee6,67d09182b1dd8ba3e7443e1e,2025-03-11_16h48.20.732,Tarea de decisión léxica,2024.2.5,Win32,165.0165017,,,,,,,,,,,,,,,,,,,,,,,,767.489,768.349,a,1,0.202,,0.202,1,768.349,768.845,,,,,,277,MAS,WORD,AGR,150,fuego,,el,,768.845,768.845,0.278703704,-0.083333333,0,0,0,,0,246,246,276,1,vuemo,,,,
,,,,,,5e95d4f551598d01d6d455af,676192165fb32c2e1fb7aee6,67d09182b1dd8ba3e7443e1e,2025-03-11_16h48.20.732,Tarea de decisión léxica,2024.2.5,Win32,165.0165017,,,,,,,,,,,,,,,,,,,,,,,,768.846,769.773,a,1,0.268,,0.268,1,769.774,770.269,,,,,,443,MAS,WORD,AGR,150,salón,,el,,770.27,770.271,0.278703704,-0.083333333,0,0,0,,0,247,247,442,1,taron,,,,
,,,,,,5e95d4f551598d01d6d455af,676192165fb32c2e1fb7aee6,67d09182b1dd8ba3e7443e1e,2025-03-11_16h48.20.732,Tarea de decisión léxica,2024.2.5,Win32,165.0165017,,,,,,,,,,,,,,,,,,,,,,,,770.271,771.318,l,1,0.388,,0.388,1,771.318,771.814,,,,,,96,FEM,NOWORD,AGR,151,neda,,la,,771.814,771.815,0.278703704,-0.083333333,0,0,0,,0,248,248,95,1,moda,,,,
,,,,,,5e95d4f551598d01d6d455af,676192165fb32c2e1fb7aee6,67d09182b1dd8ba3e7443e1e,2025-03-11_16h48.20.732,Tarea de decisión léxica,2024.2.5,Win32,165.0165017,,,,,,,,,,,,,,,,,,,,,,,,771.816,772.688,a,0,0.212,,0.212,0,772.688,773.184,,,,,,60,FEM,NOWORD,AGR,150,tafa,,la,,773.184,773.184,0.278703704,-0.083333333,0,0,0,,0,249,249,59,1,sala,,,,
,,,,,,5e95d4f551598d01d6d455af,676192165fb32c2e1fb7aee6,67d09182b1dd8ba3e7443e1e,2025-03-11_16h48.20.732,Tarea de decisión léxica,2024.2.5,Win32,165.0165017,,,,,,,,,,,,,,,,,,,,,,,,773.185,774.361,l,1,0.515,,0.515,1,774.361,774.857,,,,,,90,MAS,NOWORD,DIS,150,guso,,la,,774.857,774.857,0.278703704,-0.083333333,0,0,0,,0,250,250,89,1,humo,,,,
,,,,,,5e95d4f551598d01d6d455af,676192165fb32c2e1fb7aee6,67d09182b1dd8ba3e7443e1e,2025-03-11_16h48.20.732,Tarea de decisión léxica,2024.2.5,Win32,165.0165017,,,,,,,,,,,,,,,,,,,,,,,,774.858,775.851,a,1,0.337,,0.337,1,775.851,776.348,,,,,,87,MAS,WORD,AGR,150,vaso,,el,,776.348,776.349,0.278703704,-0.083333333,0,0,0,,0,251,251,86,1,damo,,,,
,,,,,,5e95d4f551598d01d6d455af,676192165fb32c2e1fb7aee6,67d09182b1dd8ba3e7443e1e,2025-03-11_16h48.20.732,Tarea de decisión léxica,2024.2.5,Win32,165.0165017,,,,,,,,,,,,,,,,,,,,,,,,776.35,777.512,l,0,0.502,,0.502,0,777.513,778.008,,,,,,135,MAS,WORD,AGR,150,tubo,,el,,778.008,778.008,0.278703704,-0.083333333,0,0,0,,0,252,252,134,1,geso,,,,
,,,,,,5e95d4f551598d01d6d455af,676192165fb32c2e1fb7aee6,67d09182b1dd8ba3e7443e1e,2025-03-11_16h48.20.732,Tarea de decisión léxica,2024.2.5,Win32,165.0165017,,,,,,,,,,,,,,,,,,,,,,,,778.009,779.124,l,1,0.459,,0.459,1,779.125,779.62,,,,,,40,MAS,NOWORD,AGR,150,redo,,el,,779.62,779.62,0.278703704,-0.083333333,0,0,0,,0,253,253,39,1,voto,,,,
,,,,,,5e95d4f551598d01d6d455af,676192165fb32c2e1fb7aee6,67d09182b1dd8ba3e7443e1e,2025-03-11_16h48.20.732,Tarea de decisión léxica,2024.2.5,Win32,165.0165017,,,,,,,,,,,,,,,,,,,,,,,,779.621,781.039,a,1,0.759,,0.759,1,781.039,781.536,,,,,,219,FEM,WORD,AGR,150,pipa,,la,,781.536,781.536,0.278703704,-0.083333333,0,0,0,,0,254,254,218,1,miva,,,,
,,,,,,5e95d4f551598d01d6d455af,676192165fb32c2e1fb7aee6,67d09182b1dd8ba3e7443e1e,2025-03-11_16h48.20.732,Tarea de decisión léxica,2024.2.5,Win32,165.0165017,,,,,,,,,,,,,,,,,,,,,,,,781.537,782.658,a,1,0.459,,0.459,1,782.658,783.154,,,,,,197,MAS,WORD,AGR,150,bate,,el,,783.154,783.154,0.278703704,-0.083333333,0,0,0,,0,255,255,196,1,dade,,,,
,,,,,,5e95d4f551598d01d6d455af,676192165fb32c2e1fb7aee6,67d09182b1dd8ba3e7443e1e,2025-03-11_16h48.20.732,Tarea de decisión léxica,2024.2.5,Win32,165.0165017,,,,,,,,,,,,,,,,,,,,,,,,783.155,784.336,l,1,0.523,,0.523,1,784.336,784.833,,,,,,366,FEM,NOWORD,DIS,150,gulla,,el,,784.833,784.834,0.278703704,-0.083333333,0,0,0,,0,256,256,365,1,ducha,,,,
,,,,,,5e95d4f551598d01d6d455af,676192165fb32c2e1fb7aee6,67d09182b1dd8ba3e7443e1e,2025-03-11_16h48.20.732,Tarea de decisión léxica,2024.2.5,Win32,165.0165017,,,,,,,,,,,,,,,,,,,,,,,,784.834,786.111,l,1,0.618,,0.618,1,786.112,786.609,,,,,,252,MAS,NOWORD,AGR,150,refor,,el,,786.609,786.609,0.278703704,-0.083333333,0,0,0,,0,257,257,251,1,señor,,,,
,,,,,,5e95d4f551598d01d6d455af,676192165fb32c2e1fb7aee6,67d09182b1dd8ba3e7443e1e,2025-03-11_16h48.20.732,Tarea de decisión léxica,2024.2.5,Win32,165.0165017,,,,,,,,,,,,,,,,,,,,,,,,786.61,787.663,a,1,0.396,,0.396,1,787.663,788.16,,,,,,153,MAS,WORD,DIS,150,pato,,la,,788.16,788.16,0.278703704,-0.083333333,0,0,0,,0,258,258,152,1,tado,,,,
,,,,,,5e95d4f551598d01d6d455af,676192165fb32c2e1fb7aee6,67d09182b1dd8ba3e7443e1e,2025-03-11_16h48.20.732,Tarea de decisión léxica,2024.2.5,Win32,165.0165017,,,,,,,,,,,,,,,,,,,,,,,,788.161,789.341,a,1,0.525,,0.525,1,789.341,789.839,,,,,,143,MAS,WORD,DIS,150,pavo,,la,,789.839,789.839,0.278703704,-0.083333333,0,0,0,,0,259,259,142,1,pezo,,,,
,,,,,,5e95d4f551598d01d6d455af,676192165fb32c2e1fb7aee6,67d09182b1dd8ba3e7443e1e,2025-03-11_16h48.20.732,Tarea de decisión léxica,2024.2.5,Win32,165.0165017,,,,,,,,,,,,,,,,,,,,,,,,789.84,791.106,l,1,0.607,,0.607,1,791.106,791.602,,,,,,132,FEM,NOWORD,AGR,150,fada,,la,,791.602,791.602,0.278703704,-0.083333333,0,0,0,,0,260,260,131,1,mina,,,,
,,,,,,5e95d4f551598d01d6d455af,676192165fb32c2e1fb7aee6,67d09182b1dd8ba3e7443e1e,2025-03-11_16h48.20.732,Tarea de decisión léxica,2024.2.5,Win32,165.0165017,,,,,,,,,,,,,,,,,,,,,,,,791.603,793.178,a,0,0.915,,0.915,0,793.178,793.675,,,,,,88,MAS,NOWORD,AGR,150,damo,,el,,793.675,793.676,0.278703704,-0.083333333,0,0,0,,0,261,261,87,1,vaso,,,,
,,,,,,5e95d4f551598d01d6d455af,676192165fb32c2e1fb7aee6,67d09182b1dd8ba3e7443e1e,2025-03-11_16h48.20.732,Tarea de decisión léxica,2024.2.5,Win32,165.0165017,,,,,,,,,,,,,,,,,,,,,,,,793.676,794.833,a,0,0.498,,0.498,0,794.834,795.33,,,,,,390,MAS,NOWORD,DIS,150,cenco,,la,,795.33,795.33,0.278703704,-0.083333333,0,0,0,,0,262,262,389,1,cerdo,,,,
,,,,,,5e95d4f551598d01d6d455af,676192165fb32c2e1fb7aee6,67d09182b1dd8ba3e7443e1e,2025-03-11_16h48.20.732,Tarea de decisión léxica,2024.2.5,Win32,165.0165017,,,,,,,,,,,,,,,,,,,,,,,,795.332,796.681,a,1,0.692,,0.692,1,796.681,797.178,,,,,,47,MAS,WORD,AGR,150,club,,el,,797.178,797.179,0.278703704,-0.083333333,0,0,0,,0,263,263,46,1,chub,,,,
,,,,,,5e95d4f551598d01d6d455af,676192165fb32c2e1fb7aee6,67d09182b1dd8ba3e7443e1e,2025-03-11_16h48.20.732,Tarea de decisión léxica,2024.2.5,Win32,165.0165017,,,,,,,,,,,,,,,,,,,,,,,,797.179,798.433,l,1,0.596,,0.596,1,798.433,798.929,,,,,,74,MAS,NOWORD,DIS,150,omio,,la,,798.929,798.929,0.278703704,-0.083333333,0,0,0,,0,264,264,73,1,odio,,,,
,,,,,,5e95d4f551598d01d6d455af,676192165fb32c2e1fb7aee6,67d09182b1dd8ba3e7443e1e,2025-03-11_16h48.20.732,Tarea de decisión léxica,2024.2.5,Win32,165.0165017,,,,,,,,,,,,,,,,,,,,,,,,798.931,800.112,a,1,0.525,,0.525,1,800.112,800.608,,,,,,363,FEM,WORD,AGR,150,deuda,,la,,800.608,800.608,0.278703704,-0.083333333,0,0,0,,0,265,265,362,1,veida,,,,
,,,,,,5e95d4f551598d01d6d455af,676192165fb32c2e1fb7aee6,67d09182b1dd8ba3e7443e1e,2025-03-11_16h48.20.732,Tarea de decisión léxica,2024.2.5,Win32,165.0165017,,,,,,,,,,,,,,,,,,,,,,,,800.609,801.802,a,1,0.534,,0.534,1,801.802,802.299,,,,,,75,MAS,WORD,DIS,150,olor,,la,,802.3,802.3,0.278703704,-0.083333333,0,0,0,,0,266,266,74,1,ocer,,,,
,,,,,,5e95d4f551598d01d6d455af,676192165fb32c2e1fb7aee6,67d09182b1dd8ba3e7443e1e,2025-03-11_16h48.20.732,Tarea de decisión léxica,2024.2.5,Win32,165.0165017,,,,,,,,,,,,,,,,,,,,,,,,802.302,803.281,a,1,0.324,,0.324,1,803.281,803.777,,,,,,17,FEM,WORD,DIS,150,mamá,,el,,803.777,803.778,0.278703704,-0.083333333,0,0,0,,0,267,267,16,1,paba,,,,
,,,,,,5e95d4f551598d01d6d455af,676192165fb32c2e1fb7aee6,67d09182b1dd8ba3e7443e1e,2025-03-11_16h48.20.732,Tarea de decisión léxica,2024.2.5,Win32,165.0165017,,,,,,,,,,,,,,,,,,,,,,,,803.778,805.123,l,0,0.686,,0.686,0,805.123,805.621,,,,,,59,FEM,WORD,AGR,150,sala,,la,,805.621,805.621,0.278703704,-0.083333333,0,0,0,,0,268,268,58,1,tafa,,,,
,,,,,,5e95d4f551598d01d6d455af,676192165fb32c2e1fb7aee6,67d09182b1dd8ba3e7443e1e,2025-03-11_16h48.20.732,Tarea de decisión léxica,2024.2.5,Win32,165.0165017,,,,,,,,,,,,,,,,,,,,,,,,805.621,807.099,a,1,0.818,,0.818,1,807.1,807.596,,,,,,15,FEM,WORD,AGR,150,idea,,la,,807.596,807.596,0.278703704,-0.083333333,0,0,0,,0,269,269,14,1,odea,,,,
