counterbalancing_condition,consent_prescreening.block_1/declare_consent,consent_prescreening.block_1/age_years,consent_prescreening.block_1/gender,consent_prescreening.block_1/language_disorder,consent_prescreening.block_1/first_language,PROLIFIC_PID,STUDY_ID,SESSION_ID,date,expName,psychopyVersion,OS,frameRate,check_prescreening_answers.started,check_prescreening_answers.stopped,Instructions.started,Instructions.stopped,instr_done_keyboard.keys,instr_done_keyboard.rt,instr_done_keyboard.duration,instr_done_touch.x,instr_done_touch.y,instr_done_touch.leftButton,instr_done_touch.midButton,instr_done_touch.rightButton,instruction_pages.thisRepN,instruction_pages.thisTrialN,instruction_pages.thisN,instruction_pages.thisIndex,instruction_pages.ran,pageN,phase,instruct_text,has_image,instruct_image,presentTrial.started,presentTrial.stopped,response.keys,response.corr,rt,corr,feedback.started,feedback.stopped,practice_trials.thisRepN,practice_trials.thisTrialN,practice_trials.thisN,practice_trials.thisIndex,practice_trials.ran,TrialID,Gender,StimulusType,Condition,PrimeDuration,Prime,len,Flanker,corrAns,response.rt,response.duration,Break.started,Break.stopped,break_done_touch.x,break_done_touch.y,break_done_touch.leftButton,break_done_touch.midButton,break_done_touch.rightButton,break_done_keyboard.keys,experiment_trials.thisRepN,experiment_trials.thisTrialN,experiment_trials.thisN,experiment_trials.thisIndex,experiment_trials.ran,PairedWith,break_done_keyboard.rt,break_done_keyboard.duration,End.started,End.stopped
3,"[""comfortable"",""over_18"",""read_info"",""consent_given""]",25,M,"[""none""]","[""spanish""]",5eb0cb5afb9e2418da928edb,676192165fb32c2e1fb7aee6,67d1e801d7dcbca4f75a97ca,2025-03-12_14h01.18.642,Tarea de decisión léxica,2024.2.5,Win32,90.09009009,,,,,,,,,,,,,,,,,,,,,,,,,,,,,,,,,,,,,,,,,,,,,,,,,,,,,,,,,,,,,,,,
,,,,,,5eb0cb5afb9e2418da928edb,676192165fb32c2e1fb7aee6,67d1e801d7dcbca4f75a97ca,2025-03-12_14h01.18.642,Tarea de decisión léxica,2024.2.5,Win32,90.09009009,19.9131,19.9131,,,,,,,,,,,,,,,,,,,,,,,,,,,,,,,,,,,,,,,,,,,,,,,,,,,,,,,,,,,,,,
,,,,,,5eb0cb5afb9e2418da928edb,676192165fb32c2e1fb7aee6,67d1e801d7dcbca4f75a97ca,2025-03-12_14h01.18.642,Tarea de decisión léxica,2024.2.5,Win32,90.09009009,,,19.927,34.4424,space,14.4693,,0.063095256,-0.257738113,0,0,0,0,0,0,0,1,1,instructions,"INSTRUCCIONES
Va a realizar una prueba de decisión léxica. Desde el comienzo de la prueba mire siempre al centro de la pantalla. Se presentará una serie de cadenas de letras, una a la vez, en la pantalla. Su tarea consiste en determinar si cada cadena de letras constituye una palabra real en español o una no-palabra (una secuencia de letras que no constituye una palabra real). 

Pulse la tecla ESPACIO para continuar.",0,keyboardresponseNW.png,,,,,,,,,,,,,,,,,,,,,,,,,,,,,,,,,,,,,,,,,,
,,,,,,5eb0cb5afb9e2418da928edb,676192165fb32c2e1fb7aee6,67d1e801d7dcbca4f75a97ca,2025-03-12_14h01.18.642,Tarea de decisión léxica,2024.2.5,Win32,90.09009009,,,34.4443,44.4638,space,9.9983,,0.066666685,-0.200595256,0,0,0,0,1,1,1,1,2,instructions,"El procedimiento es el siguiente: Aparecerán dos barras verticales posicionadas en el centro de la pantalla, separadas por un pequeño espacio.Por favor, enfoque su atención en el espacio entre las barras. Esto preparará sus ojos para la siguiente cadena de letras, que aparecerá entre las dos barras durante un instante.

Pulse la tecla ESPACIO para continuar.",0,keyboardresponseNW.png,,,,,,,,,,,,,,,,,,,,,,,,,,,,,,,,,,,,,,,,,,
,,,,,,5eb0cb5afb9e2418da928edb,676192165fb32c2e1fb7aee6,67d1e801d7dcbca4f75a97ca,2025-03-12_14h01.18.642,Tarea de decisión léxica,2024.2.5,Win32,90.09009009,,,44.4659,57.9089,space,13.4037,,0.066666685,-0.200595256,0,0,0,0,2,2,2,1,3,instructions,"En el teclado de su dispositivo, pulse la tecla ""L"" si la cadena de letras es una palabra real en español (por ejemplo: ""mano"") y la tecla ""A"" si la cadena de letras es una no-palabra (por ejemplo: ""minu"").
Pulse la tecla ESPACIO para continuar.",1,keyboardresponseNW.png,,,,,,,,,,,,,,,,,,,,,,,,,,,,,,,,,,,,,,,,,,
,,,,,,5eb0cb5afb9e2418da928edb,676192165fb32c2e1fb7aee6,67d1e801d7dcbca4f75a97ca,2025-03-12_14h01.18.642,Tarea de decisión léxica,2024.2.5,Win32,90.09009009,,,57.9111,63.6302,space,5.6998,,0.066666685,-0.200595256,0,0,0,0,3,3,3,1,4,instructions,"Es muy importante que responda con la mayor rapidez y precisión posibles. Si no responde dentro de 2 segundos, aparecerá el mensaje ""Muy lento"" y el experimento pasará a la siguiente palabra. Inmediatamente después de su respuesta se indicará si fue correcta o no. Los primeros 15 intentos serán de práctica y habrá dos descansos durante la prueba.

Pulse la tecla ESPACIO  para iniciar la parte de práctica.",0,keyboardresponseNW.png,,,,,,,,,,,,,,,,,,,,,,,,,,,,,,,,,,,,,,,,,,
,,,,,,5eb0cb5afb9e2418da928edb,676192165fb32c2e1fb7aee6,67d1e801d7dcbca4f75a97ca,2025-03-12_14h01.18.642,Tarea de decisión léxica,2024.2.5,Win32,90.09009009,,,,,,,,,,,,,,,,,,,,,,,63.6446,66.2969,,0,,-1,66.2972,66.7971,0,0,0,9,1,1010,MAS,WORD,DIS,150,video,5,la,l,,,,,,,,,,,,,,,,,,,,
,,,,,,5eb0cb5afb9e2418da928edb,676192165fb32c2e1fb7aee6,67d1e801d7dcbca4f75a97ca,2025-03-12_14h01.18.642,Tarea de decisión léxica,2024.2.5,Win32,90.09009009,,,,,,,,,,,,,,,,,,,,,,,66.7988,68.2416,a,1,0.7792,1,68.3295,68.7414,0,1,1,2,1,1003,FEM,NOWORD,DIS,150,muvor,5,el,a,0.7792,,,,,,,,,,,,,,,,,,,
,,,,,,5eb0cb5afb9e2418da928edb,676192165fb32c2e1fb7aee6,67d1e801d7dcbca4f75a97ca,2025-03-12_14h01.18.642,Tarea de decisión léxica,2024.2.5,Win32,90.09009009,,,,,,,,,,,,,,,,,,,,,,,68.7426,70.0636,a,0,0.6556,0,70.0646,70.5636,0,2,2,7,1,1008,MAS,WORD,DIS,150,frío,4,la,l,0.6556,,,,,,,,,,,,,,,,,,,
,,,,,,5eb0cb5afb9e2418da928edb,676192165fb32c2e1fb7aee6,67d1e801d7dcbca4f75a97ca,2025-03-12_14h01.18.642,Tarea de decisión léxica,2024.2.5,Win32,90.09009009,,,,,,,,,,,,,,,,,,,,,,,70.5646,71.8855,a,1,0.6613,1,71.8864,72.3854,0,3,3,1,1,1002,FEM,NOWORD,DIS,150,mabo,4,el,a,0.6613,,,,,,,,,,,,,,,,,,,
,,,,,,5eb0cb5afb9e2418da928edb,676192165fb32c2e1fb7aee6,67d1e801d7dcbca4f75a97ca,2025-03-12_14h01.18.642,Tarea de decisión léxica,2024.2.5,Win32,90.09009009,,,,,,,,,,,,,,,,,,,,,,,72.3868,73.9411,l,1,0.8886,1,73.9412,74.4411,0,4,4,5,1,1006,FEM,WORD,AGR,150,cara,4,la,l,0.8886,,,,,,,,,,,,,,,,,,,
,,,,,,5eb0cb5afb9e2418da928edb,676192165fb32c2e1fb7aee6,67d1e801d7dcbca4f75a97ca,2025-03-12_14h01.18.642,Tarea de decisión léxica,2024.2.5,Win32,90.09009009,,,,,,,,,,,,,,,,,,,,,,,74.4426,75.9077,a,1,0.8033,1,75.9078,76.4078,0,5,5,4,1,1005,MAS,NOWORD,DIS,150,nobad,5,la,a,0.8033,,,,,,,,,,,,,,,,,,,
,,,,,,5eb0cb5afb9e2418da928edb,676192165fb32c2e1fb7aee6,67d1e801d7dcbca4f75a97ca,2025-03-12_14h01.18.642,Tarea de decisión léxica,2024.2.5,Win32,90.09009009,,,,,,,,,,,,,,,,,,,,,,,76.409,77.5967,a,1,0.5237,1,77.5968,78.097,0,6,6,3,1,1004,FEM,NOWORD,AGR,150,bireo,5,la,a,0.5237,,,,,,,,,,,,,,,,,,,
,,,,,,5eb0cb5afb9e2418da928edb,676192165fb32c2e1fb7aee6,67d1e801d7dcbca4f75a97ca,2025-03-12_14h01.18.642,Tarea de decisión léxica,2024.2.5,Win32,90.09009009,,,,,,,,,,,,,,,,,,,,,,,78.0984,79.4856,a,1,0.7279,1,79.4856,79.9855,0,7,7,0,1,1001,FEM,NOWORD,AGR,150,croz,4,la,a,0.7279,,,,,,,,,,,,,,,,,,,
,,,,,,5eb0cb5afb9e2418da928edb,676192165fb32c2e1fb7aee6,67d1e801d7dcbca4f75a97ca,2025-03-12_14h01.18.642,Tarea de decisión léxica,2024.2.5,Win32,90.09009009,,,,,,,,,,,,,,,,,,,,,,,79.987,81.0857,l,1,0.4328,1,81.0858,81.5861,0,8,8,6,1,1007,MAS,WORD,DIS,150,masa,4,la,l,0.4328,,,,,,,,,,,,,,,,,,,
,,,,,,5eb0cb5afb9e2418da928edb,676192165fb32c2e1fb7aee6,67d1e801d7dcbca4f75a97ca,2025-03-12_14h01.18.642,Tarea de decisión léxica,2024.2.5,Win32,90.09009009,,,,,,,,,,,,,,,,,,,,,,,81.5874,82.6302,l,1,0.3739,1,82.6302,83.1303,0,9,9,8,1,1009,FEM,WORD,AGR,150,viejo,5,la,l,0.3739,,,,,,,,,,,,,,,,,,,
,,,,,,5eb0cb5afb9e2418da928edb,676192165fb32c2e1fb7aee6,67d1e801d7dcbca4f75a97ca,2025-03-12_14h01.18.642,Tarea de decisión léxica,2024.2.5,Win32,90.09009009,,,85.5991,89.2081,space,3.5896,,0.066666685,-0.200595256,0,0,0,,,,,,,,,,,89.3212,90.4748,a,1,0.489,1,90.4749,90.9749,,,,,,4,FEM,NOWORD,DIS,150,dica,,el,,0.489,,90.9752,90.9785,0.066666685,-0.200595256,0,0,0,,0,0,0,3,1,vida,,,,
,,,,,,5eb0cb5afb9e2418da928edb,676192165fb32c2e1fb7aee6,67d1e801d7dcbca4f75a97ca,2025-03-12_14h01.18.642,Tarea de decisión léxica,2024.2.5,Win32,90.09009009,,,,,,,,,,,,,,,,,,,,,,,90.9793,91.9632,a,1,0.3282,1,91.9633,92.464,,,,,,122,MAS,NOWORD,AGR,150,bomo,,el,,0.3282,,92.464,92.4642,0.066666685,-0.200595256,0,0,0,,0,1,1,121,1,hoyo,,,,
,,,,,,5eb0cb5afb9e2418da928edb,676192165fb32c2e1fb7aee6,67d1e801d7dcbca4f75a97ca,2025-03-12_14h01.18.642,Tarea de decisión léxica,2024.2.5,Win32,90.09009009,,,,,,,,,,,,,,,,,,,,,,,92.4653,93.4749,a,1,0.3452,1,93.4749,93.9745,,,,,,30,MAS,NOWORD,AGR,150,pono,,el,,0.3452,,93.9757,93.9762,0.066666685,-0.200595256,0,0,0,,0,2,2,29,1,modo,,,,
,,,,,,5eb0cb5afb9e2418da928edb,676192165fb32c2e1fb7aee6,67d1e801d7dcbca4f75a97ca,2025-03-12_14h01.18.642,Tarea de decisión léxica,2024.2.5,Win32,90.09009009,,,,,,,,,,,,,,,,,,,,,,,93.977,95.019,a,1,0.3824,1,95.0192,95.5193,,,,,,374,FEM,NOWORD,AGR,150,pogza,,la,,0.3824,,95.5194,95.5196,0.066666685,-0.200595256,0,0,0,,0,3,3,373,1,pizza,,,,
,,,,,,5eb0cb5afb9e2418da928edb,676192165fb32c2e1fb7aee6,67d1e801d7dcbca4f75a97ca,2025-03-12_14h01.18.642,Tarea de decisión léxica,2024.2.5,Win32,90.09009009,,,,,,,,,,,,,,,,,,,,,,,95.5206,96.641,a,0,0.459,0,96.6419,97.1415,,,,,,161,MAS,WORD,AGR,150,coro,,el,,0.459,,97.1416,97.1417,0.066666685,-0.200595256,0,0,0,,0,4,4,160,1,bopo,,,,
,,,,,,5eb0cb5afb9e2418da928edb,676192165fb32c2e1fb7aee6,67d1e801d7dcbca4f75a97ca,2025-03-12_14h01.18.642,Tarea de decisión léxica,2024.2.5,Win32,90.09009009,,,,,,,,,,,,,,,,,,,,,,,97.1431,98.2081,l,1,0.4035,1,98.2087,98.708,,,,,,179,MAS,WORD,DIS,150,toro,,la,,0.4035,,98.7081,98.7083,0.066666685,-0.200595256,0,0,0,,0,5,5,178,1,sono,,,,
,,,,,,5eb0cb5afb9e2418da928edb,676192165fb32c2e1fb7aee6,67d1e801d7dcbca4f75a97ca,2025-03-12_14h01.18.642,Tarea de decisión léxica,2024.2.5,Win32,90.09009009,,,,,,,,,,,,,,,,,,,,,,,98.7091,99.8301,a,1,0.4589,1,99.8302,100.3305,,,,,,462,FEM,NOWORD,AGR,150,pagra,,la,,0.4589,,100.3307,100.3309,0.066666685,-0.200595256,0,0,0,,0,6,6,461,1,tabla,,,,
,,,,,,5eb0cb5afb9e2418da928edb,676192165fb32c2e1fb7aee6,67d1e801d7dcbca4f75a97ca,2025-03-12_14h01.18.642,Tarea de decisión léxica,2024.2.5,Win32,90.09009009,,,,,,,,,,,,,,,,,,,,,,,100.3319,101.486,a,1,0.4891,1,101.4861,101.9861,,,,,,162,MAS,NOWORD,AGR,150,bopo,,el,,0.4891,,101.9879,101.9885,0.066666685,-0.200595256,0,0,0,,0,7,7,161,1,coro,,,,
,,,,,,5eb0cb5afb9e2418da928edb,676192165fb32c2e1fb7aee6,67d1e801d7dcbca4f75a97ca,2025-03-12_14h01.18.642,Tarea de decisión léxica,2024.2.5,Win32,90.09009009,,,,,,,,,,,,,,,,,,,,,,,101.9892,103.0414,l,1,0.3877,1,103.0415,103.5455,,,,,,285,MAS,WORD,AGR,150,error,,el,,0.3877,,103.5457,103.5457,0.066666685,-0.200595256,0,0,0,,0,8,8,284,1,echor,,,,
,,,,,,5eb0cb5afb9e2418da928edb,676192165fb32c2e1fb7aee6,67d1e801d7dcbca4f75a97ca,2025-03-12_14h01.18.642,Tarea de decisión léxica,2024.2.5,Win32,90.09009009,,,,,,,,,,,,,,,,,,,,,,,103.5464,104.8969,a,1,0.6913,1,104.897,105.3971,,,,,,282,MAS,NOWORD,AGR,150,cauro,,el,,0.6913,,105.3972,105.3973,0.066666685,-0.200595256,0,0,0,,0,9,9,281,1,cielo,,,,
,,,,,,5eb0cb5afb9e2418da928edb,676192165fb32c2e1fb7aee6,67d1e801d7dcbca4f75a97ca,2025-03-12_14h01.18.642,Tarea de decisión léxica,2024.2.5,Win32,90.09009009,,,,,,,,,,,,,,,,,,,,,,,105.3987,106.4301,a,0,0.3669,0,106.4311,106.9302,,,,,,221,FEM,WORD,AGR,150,mula,,la,,0.3669,,106.9302,106.9304,0.066666685,-0.200595256,0,0,0,,0,10,10,220,1,puca,,,,
,,,,,,5eb0cb5afb9e2418da928edb,676192165fb32c2e1fb7aee6,67d1e801d7dcbca4f75a97ca,2025-03-12_14h01.18.642,Tarea de decisión léxica,2024.2.5,Win32,90.09009009,,,,,,,,,,,,,,,,,,,,,,,106.9315,108.1194,a,1,0.5246,1,108.1202,108.6188,,,,,,102,MAS,NOWORD,AGR,150,gito,,el,,0.5246,,108.6202,108.6207,0.066666685,-0.200595256,0,0,0,,0,11,11,101,1,tono,,,,
,,,,,,5eb0cb5afb9e2418da928edb,676192165fb32c2e1fb7aee6,67d1e801d7dcbca4f75a97ca,2025-03-12_14h01.18.642,Tarea de decisión léxica,2024.2.5,Win32,90.09009009,,,,,,,,,,,,,,,,,,,,,,,108.6213,109.6859,l,1,0.4,1,109.6861,110.1857,,,,,,419,MAS,WORD,DIS,150,truco,,la,,0.4,,110.1858,110.1858,0.066666685,-0.200595256,0,0,0,,0,12,12,418,1,chudo,,,,
,,,,,,5eb0cb5afb9e2418da928edb,676192165fb32c2e1fb7aee6,67d1e801d7dcbca4f75a97ca,2025-03-12_14h01.18.642,Tarea de decisión léxica,2024.2.5,Win32,90.09009009,,,,,,,,,,,,,,,,,,,,,,,110.1869,111.23,l,1,0.3823,1,111.2301,111.7303,,,,,,343,FEM,WORD,DIS,150,plata,,el,,0.3823,,111.7303,111.7304,0.066666685,-0.200595256,0,0,0,,0,13,13,342,1,trada,,,,
,,,,,,5eb0cb5afb9e2418da928edb,676192165fb32c2e1fb7aee6,67d1e801d7dcbca4f75a97ca,2025-03-12_14h01.18.642,Tarea de decisión léxica,2024.2.5,Win32,90.09009009,,,,,,,,,,,,,,,,,,,,,,,111.7313,112.8967,l,1,0.5047,1,112.8968,113.3971,,,,,,425,FEM,WORD,AGR,150,viuda,,la,,0.5047,,113.3971,113.3972,0.066666685,-0.200595256,0,0,0,,0,14,14,424,1,virca,,,,
,,,,,,5eb0cb5afb9e2418da928edb,676192165fb32c2e1fb7aee6,67d1e801d7dcbca4f75a97ca,2025-03-12_14h01.18.642,Tarea de decisión léxica,2024.2.5,Win32,90.09009009,,,,,,,,,,,,,,,,,,,,,,,113.3981,114.6636,l,0,0.6024,0,114.665,115.1635,,,,,,446,MAS,NOWORD,AGR,150,ascor,,el,,0.6024,,115.1636,115.1637,0.066666685,-0.200595256,0,0,0,,0,15,15,445,1,actor,,,,
,,,,,,5eb0cb5afb9e2418da928edb,676192165fb32c2e1fb7aee6,67d1e801d7dcbca4f75a97ca,2025-03-12_14h01.18.642,Tarea de decisión léxica,2024.2.5,Win32,90.09009009,,,,,,,,,,,,,,,,,,,,,,,115.1648,116.2302,l,1,0.4009,1,116.2314,116.7302,,,,,,77,MAS,WORD,AGR,150,loco,,el,,0.4009,,116.7317,116.7323,0.066666685,-0.200595256,0,0,0,,0,16,16,76,1,fodo,,,,
,,,,,,5eb0cb5afb9e2418da928edb,676192165fb32c2e1fb7aee6,67d1e801d7dcbca4f75a97ca,2025-03-12_14h01.18.642,Tarea de decisión léxica,2024.2.5,Win32,90.09009009,,,,,,,,,,,,,,,,,,,,,,,116.7328,117.83,l,1,0.4342,1,117.83,118.3304,,,,,,407,FEM,WORD,DIS,150,cueva,,el,,0.4342,,118.3305,118.3305,0.066666685,-0.200595256,0,0,0,,0,17,17,406,1,cauba,,,,
,,,,,,5eb0cb5afb9e2418da928edb,676192165fb32c2e1fb7aee6,67d1e801d7dcbca4f75a97ca,2025-03-12_14h01.18.642,Tarea de decisión léxica,2024.2.5,Win32,90.09009009,,,,,,,,,,,,,,,,,,,,,,,118.3318,119.3417,l,1,0.3454,1,119.3417,119.8411,,,,,,253,MAS,WORD,AGR,150,chico,,el,,0.3454,,119.8411,119.8413,0.066666685,-0.200595256,0,0,0,,0,18,18,252,1,trido,,,,
,,,,,,5eb0cb5afb9e2418da928edb,676192165fb32c2e1fb7aee6,67d1e801d7dcbca4f75a97ca,2025-03-12_14h01.18.642,Tarea de decisión léxica,2024.2.5,Win32,90.09009009,,,,,,,,,,,,,,,,,,,,,,,119.8424,120.9634,a,1,0.4577,1,120.9635,121.4638,,,,,,150,MAS,NOWORD,AGR,150,pafo,,el,,0.4577,,121.4638,121.4638,0.066666685,-0.200595256,0,0,0,,0,19,19,149,1,cabo,,,,
,,,,,,5eb0cb5afb9e2418da928edb,676192165fb32c2e1fb7aee6,67d1e801d7dcbca4f75a97ca,2025-03-12_14h01.18.642,Tarea de decisión léxica,2024.2.5,Win32,90.09009009,,,,,,,,,,,,,,,,,,,,,,,121.4649,122.5856,a,1,0.4614,1,122.5857,123.0861,,,,,,92,FEM,NOWORD,DIS,150,sava,,el,,0.4614,,123.0862,123.0862,0.066666685,-0.200595256,0,0,0,,0,20,20,91,1,taza,,,,
,,,,,,5eb0cb5afb9e2418da928edb,676192165fb32c2e1fb7aee6,67d1e801d7dcbca4f75a97ca,2025-03-12_14h01.18.642,Tarea de decisión léxica,2024.2.5,Win32,90.09009009,,,,,,,,,,,,,,,,,,,,,,,123.0874,124.1744,a,1,0.428,1,124.1746,124.6755,,,,,,48,MAS,NOWORD,DIS,150,chub,,la,,0.428,,124.6771,124.6778,0.066666685,-0.200595256,0,0,0,,0,21,21,47,1,club,,,,
,,,,,,5eb0cb5afb9e2418da928edb,676192165fb32c2e1fb7aee6,67d1e801d7dcbca4f75a97ca,2025-03-12_14h01.18.642,Tarea de decisión léxica,2024.2.5,Win32,90.09009009,,,,,,,,,,,,,,,,,,,,,,,124.6785,125.7193,l,1,0.3785,1,125.7194,126.2194,,,,,,83,FEM,WORD,DIS,150,bala,,el,,0.3785,,126.2194,126.2196,0.066666685,-0.200595256,0,0,0,,0,22,22,82,1,taga,,,,
,,,,,,5eb0cb5afb9e2418da928edb,676192165fb32c2e1fb7aee6,67d1e801d7dcbca4f75a97ca,2025-03-12_14h01.18.642,Tarea de decisión léxica,2024.2.5,Win32,90.09009009,,,,,,,,,,,,,,,,,,,,,,,126.2205,127.2855,l,1,0.4006,1,127.2856,127.7859,,,,,,155,FEM,WORD,DIS,150,fuga,,el,,0.4006,,127.786,127.7861,0.066666685,-0.200595256,0,0,0,,0,23,23,154,1,luma,,,,
,,,,,,5eb0cb5afb9e2418da928edb,676192165fb32c2e1fb7aee6,67d1e801d7dcbca4f75a97ca,2025-03-12_14h01.18.642,Tarea de decisión léxica,2024.2.5,Win32,90.09009009,,,,,,,,,,,,,,,,,,,,,,,127.7871,128.7968,l,1,0.3452,1,128.7968,129.297,,,,,,451,FEM,WORD,DIS,150,fruta,,el,,0.3452,,129.2972,129.2972,0.066666685,-0.200595256,0,0,0,,0,24,24,450,1,clita,,,,
,,,,,,5eb0cb5afb9e2418da928edb,676192165fb32c2e1fb7aee6,67d1e801d7dcbca4f75a97ca,2025-03-12_14h01.18.642,Tarea de decisión léxica,2024.2.5,Win32,90.09009009,,,,,,,,,,,,,,,,,,,,,,,129.2983,130.3189,l,1,0.3585,1,130.319,130.819,,,,,,361,FEM,WORD,AGR,150,torre,,la,,0.3585,,130.8191,130.8191,0.066666685,-0.200595256,0,0,0,,0,25,25,360,1,solle,,,,
,,,,,,5eb0cb5afb9e2418da928edb,676192165fb32c2e1fb7aee6,67d1e801d7dcbca4f75a97ca,2025-03-12_14h01.18.642,Tarea de decisión léxica,2024.2.5,Win32,90.09009009,,,,,,,,,,,,,,,,,,,,,,,130.8203,131.9301,a,1,0.444,1,131.9302,132.4304,,,,,,474,FEM,NOWORD,AGR,150,felia,,la,,0.444,,132.4318,132.4323,0.066666685,-0.200595256,0,0,0,,0,26,26,473,1,feria,,,,
,,,,,,5eb0cb5afb9e2418da928edb,676192165fb32c2e1fb7aee6,67d1e801d7dcbca4f75a97ca,2025-03-12_14h01.18.642,Tarea de decisión léxica,2024.2.5,Win32,90.09009009,,,,,,,,,,,,,,,,,,,,,,,132.4327,133.5414,a,1,0.4461,1,133.5415,134.0349,,,,,,302,FEM,NOWORD,AGR,150,ranga,,la,,0.4461,,134.0349,134.0351,0.066666685,-0.200595256,0,0,0,,0,27,27,301,1,banda,,,,
,,,,,,5eb0cb5afb9e2418da928edb,676192165fb32c2e1fb7aee6,67d1e801d7dcbca4f75a97ca,2025-03-12_14h01.18.642,Tarea de decisión léxica,2024.2.5,Win32,90.09009009,,,,,,,,,,,,,,,,,,,,,,,134.0361,135.0303,l,1,0.3368,1,135.0303,135.53,,,,,,443,MAS,WORD,DIS,150,salón,,la,,0.3368,,135.5301,135.5302,0.066666685,-0.200595256,0,0,0,,0,28,28,442,1,taron,,,,
,,,,,,5eb0cb5afb9e2418da928edb,676192165fb32c2e1fb7aee6,67d1e801d7dcbca4f75a97ca,2025-03-12_14h01.18.642,Tarea de decisión léxica,2024.2.5,Win32,90.09009009,,,,,,,,,,,,,,,,,,,,,,,135.5311,136.6087,a,1,0.4109,1,136.6088,137.1079,,,,,,32,FEM,NOWORD,DIS,150,bova,,el,,0.4109,,137.1079,137.108,0.066666685,-0.200595256,0,0,0,,0,29,29,31,1,ropa,,,,
,,,,,,5eb0cb5afb9e2418da928edb,676192165fb32c2e1fb7aee6,67d1e801d7dcbca4f75a97ca,2025-03-12_14h01.18.642,Tarea de decisión léxica,2024.2.5,Win32,90.09009009,,,,,,,,,,,,,,,,,,,,,,,137.1091,138.1861,a,1,0.4129,1,138.1862,138.686,,,,,,422,MAS,NOWORD,AGR,150,griso,,el,,0.4129,,138.6861,138.6863,0.066666685,-0.200595256,0,0,0,,0,30,30,421,1,primo,,,,
,,,,,,5eb0cb5afb9e2418da928edb,676192165fb32c2e1fb7aee6,67d1e801d7dcbca4f75a97ca,2025-03-12_14h01.18.642,Tarea de decisión léxica,2024.2.5,Win32,90.09009009,,,,,,,,,,,,,,,,,,,,,,,138.6873,139.7532,a,1,0.4017,1,139.7532,140.2523,,,,,,348,FEM,NOWORD,DIS,150,mueza,,el,,0.4017,,140.2534,140.254,0.066666685,-0.200595256,0,0,0,,0,31,31,347,1,pieza,,,,
,,,,,,5eb0cb5afb9e2418da928edb,676192165fb32c2e1fb7aee6,67d1e801d7dcbca4f75a97ca,2025-03-12_14h01.18.642,Tarea de decisión léxica,2024.2.5,Win32,90.09009009,,,,,,,,,,,,,,,,,,,,,,,140.2547,141.2634,l,1,0.3482,1,141.2635,141.7573,,,,,,289,FEM,WORD,AGR,150,bomba,,la,,0.3482,,141.7573,141.7575,0.066666685,-0.200595256,0,0,0,,0,32,32,288,1,bumpa,,,,
,,,,,,5eb0cb5afb9e2418da928edb,676192165fb32c2e1fb7aee6,67d1e801d7dcbca4f75a97ca,2025-03-12_14h01.18.642,Tarea de decisión léxica,2024.2.5,Win32,90.09009009,,,,,,,,,,,,,,,,,,,,,,,141.7584,142.7298,l,1,0.3164,1,142.7299,143.2305,,,,,,41,FEM,WORD,AGR,150,nave,,la,,0.3164,,143.2306,143.2307,0.066666685,-0.200595256,0,0,0,,0,33,33,40,1,haje,,,,
,,,,,,5eb0cb5afb9e2418da928edb,676192165fb32c2e1fb7aee6,67d1e801d7dcbca4f75a97ca,2025-03-12_14h01.18.642,Tarea de decisión léxica,2024.2.5,Win32,90.09009009,,,,,,,,,,,,,,,,,,,,,,,143.2321,144.2079,l,1,0.3155,1,144.2079,144.7082,,,,,,167,FEM,WORD,DIS,150,jefa,,el,,0.3155,,144.7082,144.7083,0.066666685,-0.200595256,0,0,0,,0,34,34,166,1,zifa,,,,
,,,,,,5eb0cb5afb9e2418da928edb,676192165fb32c2e1fb7aee6,67d1e801d7dcbca4f75a97ca,2025-03-12_14h01.18.642,Tarea de decisión léxica,2024.2.5,Win32,90.09009009,,,,,,,,,,,,,,,,,,,,,,,144.7096,145.7744,a,1,0.4048,1,145.7744,146.2747,,,,,,456,MAS,NOWORD,DIS,150,riaso,,la,,0.4048,,146.2763,146.2767,0.066666685,-0.200595256,0,0,0,,0,35,35,455,1,reino,,,,
,,,,,,5eb0cb5afb9e2418da928edb,676192165fb32c2e1fb7aee6,67d1e801d7dcbca4f75a97ca,2025-03-12_14h01.18.642,Tarea de decisión léxica,2024.2.5,Win32,90.09009009,,,,,,,,,,,,,,,,,,,,,,,146.2772,147.2745,l,1,0.3334,1,147.2746,147.7746,,,,,,69,FEM,WORD,AGR,150,zona,,la,,0.3334,,147.7747,147.7748,0.066666685,-0.200595256,0,0,0,,0,36,36,68,1,ñola,,,,
,,,,,,5eb0cb5afb9e2418da928edb,676192165fb32c2e1fb7aee6,67d1e801d7dcbca4f75a97ca,2025-03-12_14h01.18.642,Tarea de decisión léxica,2024.2.5,Win32,90.09009009,,,,,,,,,,,,,,,,,,,,,,,147.7761,148.7529,l,1,0.3112,1,148.753,149.252,,,,,,247,FEM,WORD,DIS,150,chica,,el,,0.3112,,149.2521,149.2522,0.066666685,-0.200595256,0,0,0,,0,37,37,246,1,trida,,,,
,,,,,,5eb0cb5afb9e2418da928edb,676192165fb32c2e1fb7aee6,67d1e801d7dcbca4f75a97ca,2025-03-12_14h01.18.642,Tarea de decisión léxica,2024.2.5,Win32,90.09009009,,,,,,,,,,,,,,,,,,,,,,,149.2538,150.1971,l,1,0.2787,1,150.1972,150.697,,,,,,121,MAS,WORD,AGR,150,hoyo,,el,,0.2787,,150.6972,150.6973,0.066666685,-0.200595256,0,0,0,,0,38,38,120,1,bomo,,,,
,,,,,,5eb0cb5afb9e2418da928edb,676192165fb32c2e1fb7aee6,67d1e801d7dcbca4f75a97ca,2025-03-12_14h01.18.642,Tarea de decisión léxica,2024.2.5,Win32,90.09009009,,,,,,,,,,,,,,,,,,,,,,,150.6983,151.8412,a,1,0.4788,1,151.8413,152.3413,,,,,,160,MAS,NOWORD,DIS,150,bilo,,la,,0.4788,,152.3413,152.3414,0.066666685,-0.200595256,0,0,0,,0,39,39,159,1,giro,,,,
,,,,,,5eb0cb5afb9e2418da928edb,676192165fb32c2e1fb7aee6,67d1e801d7dcbca4f75a97ca,2025-03-12_14h01.18.642,Tarea de decisión léxica,2024.2.5,Win32,90.09009009,,,,,,,,,,,,,,,,,,,,,,,152.3424,153.4417,a,1,0.4301,1,153.4418,153.9412,,,,,,272,FEM,NOWORD,DIS,150,refal,,el,,0.4301,,153.9427,153.9434,0.066666685,-0.200595256,0,0,0,,0,40,40,271,1,señal,,,,
,,,,,,5eb0cb5afb9e2418da928edb,676192165fb32c2e1fb7aee6,67d1e801d7dcbca4f75a97ca,2025-03-12_14h01.18.642,Tarea de decisión léxica,2024.2.5,Win32,90.09009009,,,,,,,,,,,,,,,,,,,,,,,153.9444,155.0522,a,1,0.4503,1,155.0522,155.5527,,,,,,306,MAS,NOWORD,AGR,150,adiol,,el,,0.4503,,155.5527,155.5528,0.066666685,-0.200595256,0,0,0,,0,41,41,305,1,avión,,,,
,,,,,,5eb0cb5afb9e2418da928edb,676192165fb32c2e1fb7aee6,67d1e801d7dcbca4f75a97ca,2025-03-12_14h01.18.642,Tarea de decisión léxica,2024.2.5,Win32,90.09009009,,,,,,,,,,,,,,,,,,,,,,,155.554,156.6412,a,1,0.4236,1,156.6412,157.1416,,,,,,322,MAS,NOWORD,AGR,150,rarco,,el,,0.4236,,157.1416,157.1416,0.066666685,-0.200595256,0,0,0,,0,42,42,321,1,banco,,,,
,,,,,,5eb0cb5afb9e2418da928edb,676192165fb32c2e1fb7aee6,67d1e801d7dcbca4f75a97ca,2025-03-12_14h01.18.642,Tarea de decisión léxica,2024.2.5,Win32,90.09009009,,,,,,,,,,,,,,,,,,,,,,,157.1428,158.2412,a,1,0.4392,1,158.2412,158.7418,,,,,,458,MAS,NOWORD,AGR,150,glaco,,el,,0.4392,,158.7419,158.742,0.066666685,-0.200595256,0,0,0,,0,43,43,457,1,plato,,,,
,,,,,,5eb0cb5afb9e2418da928edb,676192165fb32c2e1fb7aee6,67d1e801d7dcbca4f75a97ca,2025-03-12_14h01.18.642,Tarea de decisión léxica,2024.2.5,Win32,90.09009009,,,,,,,,,,,,,,,,,,,,,,,158.7435,159.7634,a,1,0.362,1,159.7635,160.2637,,,,,,178,MAS,NOWORD,AGR,150,bito,,el,,0.362,,160.2638,160.2639,0.066666685,-0.200595256,0,0,0,,0,44,44,177,1,reto,,,,
,,,,,,5eb0cb5afb9e2418da928edb,676192165fb32c2e1fb7aee6,67d1e801d7dcbca4f75a97ca,2025-03-12_14h01.18.642,Tarea de decisión léxica,2024.2.5,Win32,90.09009009,,,,,,,,,,,,,,,,,,,,,,,160.265,161.3748,l,1,0.4428,1,161.3748,161.875,,,,,,453,FEM,WORD,AGR,150,mafia,,la,,0.4428,,161.8764,161.877,0.066666685,-0.200595256,0,0,0,,0,45,45,452,1,pafia,,,,
,,,,,,5eb0cb5afb9e2418da928edb,676192165fb32c2e1fb7aee6,67d1e801d7dcbca4f75a97ca,2025-03-12_14h01.18.642,Tarea de decisión léxica,2024.2.5,Win32,90.09009009,,,,,,,,,,,,,,,,,,,,,,,161.878,162.897,l,1,0.3562,1,162.8972,163.3973,,,,,,29,MAS,WORD,AGR,150,modo,,el,,0.3562,,163.3974,163.3974,0.066666685,-0.200595256,0,0,0,,0,46,46,28,1,pono,,,,
,,,,,,5eb0cb5afb9e2418da928edb,676192165fb32c2e1fb7aee6,67d1e801d7dcbca4f75a97ca,2025-03-12_14h01.18.642,Tarea de decisión léxica,2024.2.5,Win32,90.09009009,,,,,,,,,,,,,,,,,,,,,,,163.3985,164.4192,a,1,0.3611,1,164.4193,164.9194,,,,,,398,FEM,NOWORD,AGR,150,trigi,,la,,0.3611,,164.9196,164.9196,0.066666685,-0.200595256,0,0,0,,0,47,47,397,1,tribu,,,,
,,,,,,5eb0cb5afb9e2418da928edb,676192165fb32c2e1fb7aee6,67d1e801d7dcbca4f75a97ca,2025-03-12_14h01.18.642,Tarea de decisión léxica,2024.2.5,Win32,90.09009009,,,,,,,,,,,,,,,,,,,,,,,164.9207,166.03,a,1,0.4473,1,166.0301,166.5302,,,,,,312,MAS,NOWORD,DIS,150,nosor,,la,,0.4473,,166.5303,166.5303,0.066666685,-0.200595256,0,0,0,,0,48,48,311,1,honor,,,,
,,,,,,5eb0cb5afb9e2418da928edb,676192165fb32c2e1fb7aee6,67d1e801d7dcbca4f75a97ca,2025-03-12_14h01.18.642,Tarea de decisión léxica,2024.2.5,Win32,90.09009009,,,,,,,,,,,,,,,,,,,,,,,166.5315,167.4188,l,1,0.2265,1,167.4189,167.9192,,,,,,257,FEM,WORD,AGR,150,amiga,,la,,0.2265,,167.9192,167.9193,0.066666685,-0.200595256,0,0,0,,0,49,49,256,1,asama,,,,
,,,,,,5eb0cb5afb9e2418da928edb,676192165fb32c2e1fb7aee6,67d1e801d7dcbca4f75a97ca,2025-03-12_14h01.18.642,Tarea de decisión léxica,2024.2.5,Win32,90.09009009,,,,,,,,,,,,,,,,,,,,,,,167.9206,168.9304,l,1,0.3452,1,168.9304,169.4303,,,,,,67,FEM,WORD,DIS,150,nena,,el,,0.3452,,169.4314,169.4319,0.066666685,-0.200595256,0,0,0,,0,50,50,66,1,gesa,,,,
,,,,,,5eb0cb5afb9e2418da928edb,676192165fb32c2e1fb7aee6,67d1e801d7dcbca4f75a97ca,2025-03-12_14h01.18.642,Tarea de decisión léxica,2024.2.5,Win32,90.09009009,,,,,,,,,,,,,,,,,,,,,,,169.4327,170.4636,a,1,0.3729,1,170.4636,170.9637,,,,,,182,FEM,NOWORD,AGR,150,teda,,la,,0.3729,,170.9637,170.9638,0.066666685,-0.200595256,0,0,0,,0,51,51,181,1,seda,,,,
,,,,,,5eb0cb5afb9e2418da928edb,676192165fb32c2e1fb7aee6,67d1e801d7dcbca4f75a97ca,2025-03-12_14h01.18.642,Tarea de decisión léxica,2024.2.5,Win32,90.09009009,,,,,,,,,,,,,,,,,,,,,,,170.9649,172.1748,a,1,0.5446,1,172.175,172.6747,,,,,,400,MAS,NOWORD,DIS,150,serro,,la,,0.5446,,172.6747,172.6748,0.066666685,-0.200595256,0,0,0,,0,52,52,399,1,techo,,,,
,,,,,,5eb0cb5afb9e2418da928edb,676192165fb32c2e1fb7aee6,67d1e801d7dcbca4f75a97ca,2025-03-12_14h01.18.642,Tarea de decisión léxica,2024.2.5,Win32,90.09009009,,,,,,,,,,,,,,,,,,,,,,,172.6758,173.6638,l,1,0.3234,1,173.6639,174.1634,,,,,,265,FEM,WORD,AGR,150,mitad,,la,,0.3234,,174.1635,174.1635,0.066666685,-0.200595256,0,0,0,,0,53,53,264,1,pitat,,,,
,,,,,,5eb0cb5afb9e2418da928edb,676192165fb32c2e1fb7aee6,67d1e801d7dcbca4f75a97ca,2025-03-12_14h01.18.642,Tarea de decisión léxica,2024.2.5,Win32,90.09009009,,,,,,,,,,,,,,,,,,,,,,,174.165,175.119,l,1,0.2899,1,175.1191,175.6192,,,,,,123,FEM,WORD,DIS,150,flor,,el,,0.2899,,175.6192,175.6192,0.066666685,-0.200595256,0,0,0,,0,54,54,122,1,maba,,,,
,,,,,,5eb0cb5afb9e2418da928edb,676192165fb32c2e1fb7aee6,67d1e801d7dcbca4f75a97ca,2025-03-12_14h01.18.642,Tarea de decisión léxica,2024.2.5,Win32,90.09009009,,,,,,,,,,,,,,,,,,,,,,,175.6203,176.7523,a,1,0.4723,1,176.7524,177.2525,,,,,,360,MAS,NOWORD,DIS,150,cacer,,la,,0.4723,,177.2535,177.2542,0.066666685,-0.200595256,0,0,0,,0,55,55,359,1,calor,,,,
,,,,,,5eb0cb5afb9e2418da928edb,676192165fb32c2e1fb7aee6,67d1e801d7dcbca4f75a97ca,2025-03-12_14h01.18.642,Tarea de decisión léxica,2024.2.5,Win32,90.09009009,,,,,,,,,,,,,,,,,,,,,,,177.2551,178.2413,l,1,0.324,1,178.2414,178.7414,,,,,,373,FEM,WORD,AGR,150,pizza,,la,,0.324,,178.7415,178.7416,0.066666685,-0.200595256,0,0,0,,0,56,56,372,1,pogza,,,,
,,,,,,5eb0cb5afb9e2418da928edb,676192165fb32c2e1fb7aee6,67d1e801d7dcbca4f75a97ca,2025-03-12_14h01.18.642,Tarea de decisión léxica,2024.2.5,Win32,90.09009009,,,,,,,,,,,,,,,,,,,,,,,178.7427,179.7748,l,1,0.3666,1,179.7751,180.2748,,,,,,261,MAS,WORD,AGR,150,sitio,,el,,0.3666,,180.275,180.2751,0.066666685,-0.200595256,0,0,0,,0,57,57,260,1,titio,,,,
,,,,,,5eb0cb5afb9e2418da928edb,676192165fb32c2e1fb7aee6,67d1e801d7dcbca4f75a97ca,2025-03-12_14h01.18.642,Tarea de decisión léxica,2024.2.5,Win32,90.09009009,,,,,,,,,,,,,,,,,,,,,,,180.2762,181.3746,a,1,0.4394,1,181.3747,181.875,,,,,,128,MAS,NOWORD,DIS,150,itio,,la,,0.4394,,181.8751,181.8751,0.066666685,-0.200595256,0,0,0,,0,58,58,127,1,pico,,,,
,,,,,,5eb0cb5afb9e2418da928edb,676192165fb32c2e1fb7aee6,67d1e801d7dcbca4f75a97ca,2025-03-12_14h01.18.642,Tarea de decisión léxica,2024.2.5,Win32,90.09009009,,,,,,,,,,,,,,,,,,,,,,,181.8764,182.9637,a,1,0.4223,1,182.9638,183.4638,,,,,,352,MAS,NOWORD,DIS,150,duepo,,la,,0.4223,,183.4654,183.4661,0.066666685,-0.200595256,0,0,0,,0,59,59,351,1,vuelo,,,,
,,,,,,5eb0cb5afb9e2418da928edb,676192165fb32c2e1fb7aee6,67d1e801d7dcbca4f75a97ca,2025-03-12_14h01.18.642,Tarea de decisión léxica,2024.2.5,Win32,90.09009009,,,,,,,,,,,,,,,,,,,,,,,183.4667,184.3523,l,1,0.2248,1,184.3523,184.8523,,,,,,141,FEM,WORD,AGR,150,cruz,,la,,0.2248,,184.8523,184.8524,0.066666685,-0.200595256,0,0,0,,0,60,60,140,1,sina,,,,
,,,,,,5eb0cb5afb9e2418da928edb,676192165fb32c2e1fb7aee6,67d1e801d7dcbca4f75a97ca,2025-03-12_14h01.18.642,Tarea de decisión léxica,2024.2.5,Win32,90.09009009,,,,,,,,,,,,,,,,,,,,,,,184.8537,185.8189,l,1,0.2998,1,185.8191,186.3191,,,,,,455,MAS,WORD,DIS,150,reino,,la,,0.2998,,186.3192,186.3193,0.066666685,-0.200595256,0,0,0,,0,61,61,454,1,riaso,,,,
,,,,,,5eb0cb5afb9e2418da928edb,676192165fb32c2e1fb7aee6,67d1e801d7dcbca4f75a97ca,2025-03-12_14h01.18.642,Tarea de decisión léxica,2024.2.5,Win32,90.09009009,,,,,,,,,,,,,,,,,,,,,,,186.3202,187.3748,a,1,0.389,1,187.3749,187.8747,,,,,,368,MAS,NOWORD,DIS,150,rerob,,la,,0.389,,187.8748,187.8748,0.066666685,-0.200595256,0,0,0,,0,62,62,367,1,reloj,,,,
,,,,,,5eb0cb5afb9e2418da928edb,676192165fb32c2e1fb7aee6,67d1e801d7dcbca4f75a97ca,2025-03-12_14h01.18.642,Tarea de decisión léxica,2024.2.5,Win32,90.09009009,,,,,,,,,,,,,,,,,,,,,,,187.876,188.8749,l,1,0.3337,1,188.8749,189.3745,,,,,,433,MAS,WORD,AGR,150,disco,,el,,0.3337,,189.3745,189.3747,0.066666685,-0.200595256,0,0,0,,0,63,63,432,1,durco,,,,
,,,,,,5eb0cb5afb9e2418da928edb,676192165fb32c2e1fb7aee6,67d1e801d7dcbca4f75a97ca,2025-03-12_14h01.18.642,Tarea de decisión léxica,2024.2.5,Win32,90.09009009,,,,,,,,,,,,,,,,,,,,,,,189.3758,190.3529,l,1,0.3079,1,190.353,190.8526,,,,,,107,MAS,WORD,DIS,150,saco,,la,,0.3079,,190.8541,190.8548,0.066666685,-0.200595256,0,0,0,,0,64,64,106,1,raot,,,,
,,,,,,5eb0cb5afb9e2418da928edb,676192165fb32c2e1fb7aee6,67d1e801d7dcbca4f75a97ca,2025-03-12_14h01.18.642,Tarea de decisión léxica,2024.2.5,Win32,90.09009009,,,,,,,,,,,,,,,,,,,,,,,190.8556,191.9192,a,1,0.4049,1,191.9193,192.4194,,,,,,168,FEM,NOWORD,DIS,150,zifa,,el,,0.4049,,192.4194,192.4195,0.066666685,-0.200595256,0,0,0,,0,65,65,167,1,jefa,,,,
,,,,,,5eb0cb5afb9e2418da928edb,676192165fb32c2e1fb7aee6,67d1e801d7dcbca4f75a97ca,2025-03-12_14h01.18.642,Tarea de decisión léxica,2024.2.5,Win32,90.09009009,,,,,,,,,,,,,,,,,,,,,,,192.4209,193.3857,l,1,0.3011,1,193.3857,193.8862,,,,,,127,MAS,WORD,DIS,150,pico,,la,,0.3011,,193.8863,193.8863,0.066666685,-0.200595256,0,0,0,,0,66,66,126,1,itio,,,,
,,,,,,5eb0cb5afb9e2418da928edb,676192165fb32c2e1fb7aee6,67d1e801d7dcbca4f75a97ca,2025-03-12_14h01.18.642,Tarea de decisión léxica,2024.2.5,Win32,90.09009009,,,,,,,,,,,,,,,,,,,,,,,193.8873,194.808,l,1,0.2564,1,194.8081,195.3079,,,,,,109,MAS,WORD,AGR,150,rayo,,el,,0.2564,,195.308,195.308,0.066666685,-0.200595256,0,0,0,,0,67,67,108,1,suno,,,,
,,,,,,5eb0cb5afb9e2418da928edb,676192165fb32c2e1fb7aee6,67d1e801d7dcbca4f75a97ca,2025-03-12_14h01.18.642,Tarea de decisión léxica,2024.2.5,Win32,90.09009009,,,,,,,,,,,,,,,,,,,,,,,195.3092,196.397,l,1,0.4231,1,196.397,196.8969,,,,,,439,FEM,WORD,DIS,150,presa,,el,,0.4231,,196.8969,196.897,0.066666685,-0.200595256,0,0,0,,0,68,68,438,1,prema,,,,
,,,,,,5eb0cb5afb9e2418da928edb,676192165fb32c2e1fb7aee6,67d1e801d7dcbca4f75a97ca,2025-03-12_14h01.18.642,Tarea de decisión léxica,2024.2.5,Win32,90.09009009,,,,,,,,,,,,,,,,,,,,,,,196.8979,197.83,l,1,0.2689,1,197.83,198.3302,,,,,,255,MAS,WORD,DIS,150,miedo,,la,,0.2689,,198.3316,198.3323,0.066666685,-0.200595256,0,0,0,,0,69,69,254,1,mauco,,,,
,,,,,,5eb0cb5afb9e2418da928edb,676192165fb32c2e1fb7aee6,67d1e801d7dcbca4f75a97ca,2025-03-12_14h01.18.642,Tarea de decisión léxica,2024.2.5,Win32,90.09009009,,,,,,,,,,,,,,,,,,,,,,,198.3333,199.4525,l,1,0.4553,1,199.4527,199.9524,,,,,,207,MAS,WORD,DIS,150,kilo,,la,,0.4553,,199.9524,199.9525,0.066666685,-0.200595256,0,0,0,,0,70,70,206,1,kedo,,,,
,,,,,,5eb0cb5afb9e2418da928edb,676192165fb32c2e1fb7aee6,67d1e801d7dcbca4f75a97ca,2025-03-12_14h01.18.642,Tarea de decisión léxica,2024.2.5,Win32,90.09009009,,,,,,,,,,,,,,,,,,,,,,,199.9538,200.8524,l,1,0.2352,1,200.8525,201.3527,,,,,,241,MAS,WORD,AGR,150,mundo,,el,,0.2352,,201.3528,201.3528,0.066666685,-0.200595256,0,0,0,,0,71,71,240,1,mirdo,,,,
,,,,,,5eb0cb5afb9e2418da928edb,676192165fb32c2e1fb7aee6,67d1e801d7dcbca4f75a97ca,2025-03-12_14h01.18.642,Tarea de decisión léxica,2024.2.5,Win32,90.09009009,,,,,,,,,,,,,,,,,,,,,,,201.3543,202.3526,l,1,0.335,1,202.3527,202.8522,,,,,,17,FEM,WORD,AGR,150,mamá,,la,,0.335,,202.8524,202.8524,0.066666685,-0.200595256,0,0,0,,0,72,72,16,1,paba,,,,
,,,,,,5eb0cb5afb9e2418da928edb,676192165fb32c2e1fb7aee6,67d1e801d7dcbca4f75a97ca,2025-03-12_14h01.18.642,Tarea de decisión léxica,2024.2.5,Win32,90.09009009,,,,,,,,,,,,,,,,,,,,,,,202.8534,203.819,l,1,0.2944,1,203.8191,204.3195,,,,,,153,MAS,WORD,AGR,150,pato,,el,,0.2944,,204.3196,204.3197,0.066666685,-0.200595256,0,0,0,,0,73,73,152,1,tado,,,,
,,,,,,5eb0cb5afb9e2418da928edb,676192165fb32c2e1fb7aee6,67d1e801d7dcbca4f75a97ca,2025-03-12_14h01.18.642,Tarea de decisión léxica,2024.2.5,Win32,90.09009009,,,,,,,,,,,,,,,,,,,,,,,204.321,205.4189,a,1,0.4377,1,205.419,205.9195,,,,,,426,FEM,NOWORD,AGR,150,virca,,la,,0.4377,,205.9205,205.9211,0.066666685,-0.200595256,0,0,0,,0,74,74,425,1,viuda,,,,
,,,,,,5eb0cb5afb9e2418da928edb,676192165fb32c2e1fb7aee6,67d1e801d7dcbca4f75a97ca,2025-03-12_14h01.18.642,Tarea de decisión léxica,2024.2.5,Win32,90.09009009,,,,,,,,,,,,,,,,,,,,,,,205.9217,206.8412,l,1,0.2561,1,206.8414,207.3414,,,,,,31,FEM,WORD,DIS,150,ropa,,el,,0.2561,,207.3416,207.3417,0.066666685,-0.200595256,0,0,0,,0,75,75,30,1,bova,,,,
,,,,,,5eb0cb5afb9e2418da928edb,676192165fb32c2e1fb7aee6,67d1e801d7dcbca4f75a97ca,2025-03-12_14h01.18.642,Tarea de decisión léxica,2024.2.5,Win32,90.09009009,,,,,,,,,,,,,,,,,,,,,,,207.3427,208.3191,l,1,0.3124,1,208.3192,208.8194,,,,,,367,MAS,WORD,DIS,150,reloj,,la,,0.3124,,208.8195,208.8196,0.066666685,-0.200595256,0,0,0,,0,76,76,366,1,rerob,,,,
,,,,,,5eb0cb5afb9e2418da928edb,676192165fb32c2e1fb7aee6,67d1e801d7dcbca4f75a97ca,2025-03-12_14h01.18.642,Tarea de decisión léxica,2024.2.5,Win32,90.09009009,,,,,,,,,,,,,,,,,,,,,,,208.8207,209.797,l,1,0.3116,1,209.797,210.2971,,,,,,431,MAS,WORD,DIS,150,motor,,la,,0.3116,,210.2971,210.2972,0.066666685,-0.200595256,0,0,0,,0,77,77,430,1,tetor,,,,
,,,,,,5eb0cb5afb9e2418da928edb,676192165fb32c2e1fb7aee6,67d1e801d7dcbca4f75a97ca,2025-03-12_14h01.18.642,Tarea de decisión léxica,2024.2.5,Win32,90.09009009,,,,,,,,,,,,,,,,,,,,,,,210.2984,211.2414,l,1,0.2784,1,211.2415,211.7415,,,,,,441,FEM,WORD,AGR,150,selva,,la,,0.2784,,211.7415,211.7416,0.066666685,-0.200595256,0,0,0,,0,78,78,440,1,telza,,,,
,,,,,,5eb0cb5afb9e2418da928edb,676192165fb32c2e1fb7aee6,67d1e801d7dcbca4f75a97ca,2025-03-12_14h01.18.642,Tarea de decisión léxica,2024.2.5,Win32,90.09009009,,,,,,,,,,,,,,,,,,,,,,,211.7427,212.7078,l,1,0.3041,1,212.7079,213.2083,,,,,,403,FEM,WORD,DIS,150,prima,,el,,0.3041,,213.2092,213.21,0.066666685,-0.200595256,0,0,0,,0,79,79,402,1,grisa,,,,
,,,,,,5eb0cb5afb9e2418da928edb,676192165fb32c2e1fb7aee6,67d1e801d7dcbca4f75a97ca,2025-03-12_14h01.18.642,Tarea de decisión léxica,2024.2.5,Win32,90.09009009,,,,,,,,,,,,,,,,,,,,,,,213.2104,214.1856,l,1,0.3155,1,214.1857,214.6859,,,,,,263,FEM,WORD,DIS,150,vista,,el,,0.3155,,214.686,214.6861,0.066666685,-0.200595256,0,0,0,,0,80,80,262,1,dosta,,,,
,,,,,,5eb0cb5afb9e2418da928edb,676192165fb32c2e1fb7aee6,67d1e801d7dcbca4f75a97ca,2025-03-12_14h01.18.642,Tarea de decisión léxica,2024.2.5,Win32,90.09009009,,,,,,,,,,,,,,,,,,,,,,,214.6868,215.7524,a,1,0.4031,1,215.7525,216.2528,,,,,,334,FEM,NOWORD,AGR,150,dalea,,la,,0.4031,,216.2528,216.2529,0.066666685,-0.200595256,0,0,0,,0,81,81,333,1,tarea,,,,
,,,,,,5eb0cb5afb9e2418da928edb,676192165fb32c2e1fb7aee6,67d1e801d7dcbca4f75a97ca,2025-03-12_14h01.18.642,Tarea de decisión léxica,2024.2.5,Win32,90.09009009,,,,,,,,,,,,,,,,,,,,,,,216.254,217.2082,l,1,0.2906,1,217.2083,217.7084,,,,,,259,MAS,WORD,DIS,150,juego,,la,,0.2906,,217.7085,217.7086,0.066666685,-0.200595256,0,0,0,,0,82,82,258,1,jaumo,,,,
,,,,,,5eb0cb5afb9e2418da928edb,676192165fb32c2e1fb7aee6,67d1e801d7dcbca4f75a97ca,2025-03-12_14h01.18.642,Tarea de decisión léxica,2024.2.5,Win32,90.09009009,,,,,,,,,,,,,,,,,,,,,,,217.7098,218.5858,l,1,0.2115,1,218.5858,219.0861,,,,,,3,FEM,WORD,DIS,150,vida,,el,,0.2115,,219.0874,219.0881,0.066666685,-0.200595256,0,0,0,,0,83,83,2,1,dica,,,,
,,,,,,5eb0cb5afb9e2418da928edb,676192165fb32c2e1fb7aee6,67d1e801d7dcbca4f75a97ca,2025-03-12_14h01.18.642,Tarea de decisión léxica,2024.2.5,Win32,90.09009009,,,,,,,,,,,,,,,,,,,,,,,219.0887,220.1746,a,1,0.4271,1,220.1747,220.6747,,,,,,156,FEM,NOWORD,DIS,150,luma,,el,,0.4271,,220.6747,220.6749,0.066666685,-0.200595256,0,0,0,,0,84,84,155,1,fuga,,,,
,,,,,,5eb0cb5afb9e2418da928edb,676192165fb32c2e1fb7aee6,67d1e801d7dcbca4f75a97ca,2025-03-12_14h01.18.642,Tarea de decisión léxica,2024.2.5,Win32,90.09009009,,,,,,,,,,,,,,,,,,,,,,,220.676,221.6081,l,1,0.267,1,221.6082,222.1082,,,,,,273,FEM,WORD,AGR,150,broma,,la,,0.267,,222.1082,222.1083,0.066666685,-0.200595256,0,0,0,,0,85,85,272,1,frosa,,,,
,,,,,,5eb0cb5afb9e2418da928edb,676192165fb32c2e1fb7aee6,67d1e801d7dcbca4f75a97ca,2025-03-12_14h01.18.642,Tarea de decisión léxica,2024.2.5,Win32,90.09009009,,,,,,,,,,,,,,,,,,,,,,,222.1095,223.0749,l,1,0.3062,1,223.075,223.5746,,,,,,5,FEM,WORD,AGR,150,cosa,,la,,0.3062,,223.5747,223.5748,0.066666685,-0.200595256,0,0,0,,0,86,86,4,1,poga,,,,
,,,,,,5eb0cb5afb9e2418da928edb,676192165fb32c2e1fb7aee6,67d1e801d7dcbca4f75a97ca,2025-03-12_14h01.18.642,Tarea de decisión léxica,2024.2.5,Win32,90.09009009,,,,,,,,,,,,,,,,,,,,,,,223.5759,224.575,l,1,0.3339,1,224.5751,225.0746,,,,,,209,MAS,WORD,AGR,150,velo,,el,,0.3339,,225.0746,225.0748,0.066666685,-0.200595256,0,0,0,,0,87,87,208,1,dero,,,,
,,,,,,5eb0cb5afb9e2418da928edb,676192165fb32c2e1fb7aee6,67d1e801d7dcbca4f75a97ca,2025-03-12_14h01.18.642,Tarea de decisión léxica,2024.2.5,Win32,90.09009009,,,,,,,,,,,,,,,,,,,,,,,225.0759,226.2196,a,1,0.4777,1,226.2197,226.7191,,,,,,386,FEM,NOWORD,AGR,150,febra,,la,,0.4777,,226.7202,226.7207,0.066666685,-0.200595256,0,0,0,,0,88,88,385,1,letra,,,,
,,,,,,5eb0cb5afb9e2418da928edb,676192165fb32c2e1fb7aee6,67d1e801d7dcbca4f75a97ca,2025-03-12_14h01.18.642,Tarea de decisión léxica,2024.2.5,Win32,90.09009009,,,,,,,,,,,,,,,,,,,,,,,226.721,227.6746,l,0,0.2925,0,227.6755,228.1753,,,,,,84,FEM,NOWORD,DIS,150,taga,,el,,0.2925,,228.1753,228.1755,0.066666685,-0.200595256,0,0,0,,0,89,89,83,1,bala,,,,
,,,,,,5eb0cb5afb9e2418da928edb,676192165fb32c2e1fb7aee6,67d1e801d7dcbca4f75a97ca,2025-03-12_14h01.18.642,Tarea de decisión léxica,2024.2.5,Win32,90.09009009,,,,,,,,,,,,,,,,,,,,,,,228.1771,229.3081,l,1,0.4676,1,229.3087,229.8083,,,,,,389,MAS,WORD,AGR,150,cerdo,,el,,0.4676,,229.8083,229.8084,0.066666685,-0.200595256,0,0,0,,0,90,90,388,1,cenco,,,,
,,,,,,5eb0cb5afb9e2418da928edb,676192165fb32c2e1fb7aee6,67d1e801d7dcbca4f75a97ca,2025-03-12_14h01.18.642,Tarea de decisión léxica,2024.2.5,Win32,90.09009009,,,,,,,,,,,,,,,,,,,,,,,229.8094,230.9413,a,1,0.4671,1,230.9413,231.4415,,,,,,470,MAS,NOWORD,AGR,150,matia,,el,,0.4671,,231.4415,231.4415,0.066666685,-0.200595256,0,0,0,,0,91,91,469,1,patio,,,,
,,,,,,5eb0cb5afb9e2418da928edb,676192165fb32c2e1fb7aee6,67d1e801d7dcbca4f75a97ca,2025-03-12_14h01.18.642,Tarea de decisión léxica,2024.2.5,Win32,90.09009009,,,,,,,,,,,,,,,,,,,,,,,231.4426,232.5303,a,1,0.4275,1,232.5304,233.0304,,,,,,98,MAS,NOWORD,AGR,150,fopo,,el,,0.4275,,233.0305,233.0305,0.066666685,-0.200595256,0,0,0,,0,92,92,97,1,mono,,,,
,,,,,,5eb0cb5afb9e2418da928edb,676192165fb32c2e1fb7aee6,67d1e801d7dcbca4f75a97ca,2025-03-12_14h01.18.642,Tarea de decisión léxica,2024.2.5,Win32,90.09009009,,,,,,,,,,,,,,,,,,,,,,,233.0316,234.008,l,1,0.3104,1,234.0081,234.5083,,,,,,347,FEM,WORD,DIS,150,pieza,,el,,0.3104,,234.5098,234.5106,0.066666685,-0.200595256,0,0,0,,0,93,93,346,1,mueza,,,,
,,,,,,5eb0cb5afb9e2418da928edb,676192165fb32c2e1fb7aee6,67d1e801d7dcbca4f75a97ca,2025-03-12_14h01.18.642,Tarea de decisión léxica,2024.2.5,Win32,90.09009009,,,,,,,,,,,,,,,,,,,,,,,234.5115,235.4969,l,1,0.323,1,235.497,235.9971,,,,,,45,FEM,WORD,AGR,150,mesa,,la,,0.323,,235.9972,235.9972,0.066666685,-0.200595256,0,0,0,,0,94,94,44,1,pema,,,,
,,,,,,5eb0cb5afb9e2418da928edb,676192165fb32c2e1fb7aee6,67d1e801d7dcbca4f75a97ca,2025-03-12_14h01.18.642,Tarea de decisión léxica,2024.2.5,Win32,90.09009009,,,,,,,,,,,,,,,,,,,,,,,235.9983,237.0526,l,1,0.389,1,237.0526,237.5573,,,,,,269,MAS,WORD,AGR,150,perro,,el,,0.389,,237.5573,237.5573,0.066666685,-0.200595256,0,0,0,,0,95,95,268,1,mello,,,,
,,,,,,5eb0cb5afb9e2418da928edb,676192165fb32c2e1fb7aee6,67d1e801d7dcbca4f75a97ca,2025-03-12_14h01.18.642,Tarea de decisión léxica,2024.2.5,Win32,90.09009009,,,,,,,,,,,,,,,,,,,,,,,237.5582,238.508,l,1,0.2893,1,238.5081,239.0079,,,,,,267,MAS,WORD,DIS,150,libro,,la,,0.2893,,239.008,239.0081,0.066666685,-0.200595256,0,0,0,,0,96,96,266,1,figro,,,,
,,,,,,5eb0cb5afb9e2418da928edb,676192165fb32c2e1fb7aee6,67d1e801d7dcbca4f75a97ca,2025-03-12_14h01.18.642,Tarea de decisión léxica,2024.2.5,Win32,90.09009009,,,,,,,,,,,,,,,,,,,,,,,239.0094,239.9971,l,1,0.3236,1,239.9972,240.4966,,,,,,381,MAS,WORD,AGR,150,humor,,el,,0.3236,,240.4967,240.4967,0.066666685,-0.200595256,0,0,0,,0,97,97,380,1,nusor,,,,
,,,,,,5eb0cb5afb9e2418da928edb,676192165fb32c2e1fb7aee6,67d1e801d7dcbca4f75a97ca,2025-03-12_14h01.18.642,Tarea de decisión léxica,2024.2.5,Win32,90.09009009,,,,,,,,,,,,,,,,,,,,,,,240.4978,241.5858,a,1,0.4234,1,241.5858,242.0859,,,,,,478,MAS,NOWORD,AGR,150,hocon,,el,,0.4234,,242.0869,242.0874,0.066666685,-0.200595256,0,0,0,,0,98,98,477,1,botón,,,,
,,,,,,5eb0cb5afb9e2418da928edb,676192165fb32c2e1fb7aee6,67d1e801d7dcbca4f75a97ca,2025-03-12_14h01.18.642,Tarea de decisión léxica,2024.2.5,Win32,90.09009009,,,,,,,,,,,,,,,,,,,,,,,242.0878,243.1974,a,1,0.4446,1,243.1975,243.6971,,,,,,170,MAS,NOWORD,AGR,150,mibo,,el,,0.4446,,243.6971,243.6973,0.066666685,-0.200595256,0,0,0,,0,99,99,169,1,cubo,,,,
,,,,,,5eb0cb5afb9e2418da928edb,676192165fb32c2e1fb7aee6,67d1e801d7dcbca4f75a97ca,2025-03-12_14h01.18.642,Tarea de decisión léxica,2024.2.5,Win32,90.09009009,,,,,,,,,,,,,,,,,,,,,,,243.6987,244.7196,l,1,0.3587,1,244.7196,245.2191,,,,,,185,MAS,WORD,AGR,150,baúl,,el,,0.3587,,245.2191,245.2192,0.066666685,-0.200595256,0,0,0,,0,100,100,184,1,raol,,,,
,,,,,,5eb0cb5afb9e2418da928edb,676192165fb32c2e1fb7aee6,67d1e801d7dcbca4f75a97ca,2025-03-12_14h01.18.642,Tarea de decisión léxica,2024.2.5,Win32,90.09009009,,,,,,,,,,,,,,,,,,,,,,,245.2204,246.353,l,1,0.4673,1,246.3531,246.8527,,,,,,225,MAS,WORD,AGR,150,lodo,,el,,0.4673,,246.8527,246.8528,0.066666685,-0.200595256,0,0,0,,0,101,101,224,1,boco,,,,
,,,,,,5eb0cb5afb9e2418da928edb,676192165fb32c2e1fb7aee6,67d1e801d7dcbca4f75a97ca,2025-03-12_14h01.18.642,Tarea de decisión léxica,2024.2.5,Win32,90.09009009,,,,,,,,,,,,,,,,,,,,,,,246.8538,247.9083,a,1,0.3898,1,247.9084,248.4081,,,,,,468,MAS,NOWORD,DIS,150,peiso,,la,,0.3898,,248.4081,248.4082,0.066666685,-0.200595256,0,0,0,,0,102,102,467,1,piano,,,,
,,,,,,5eb0cb5afb9e2418da928edb,676192165fb32c2e1fb7aee6,67d1e801d7dcbca4f75a97ca,2025-03-12_14h01.18.642,Tarea de decisión léxica,2024.2.5,Win32,90.09009009,,,,,,,,,,,,,,,,,,,,,,,248.4094,249.5195,a,1,0.4456,1,249.5196,250.0192,,,,,,198,MAS,NOWORD,AGR,150,dade,,el,,0.4456,,250.0205,250.021,0.066666685,-0.200595256,0,0,0,,0,103,103,197,1,bate,,,,
,,,,,,5eb0cb5afb9e2418da928edb,676192165fb32c2e1fb7aee6,67d1e801d7dcbca4f75a97ca,2025-03-12_14h01.18.642,Tarea de decisión léxica,2024.2.5,Win32,90.09009009,,,,,,,,,,,,,,,,,,,,,,,250.022,251.0859,a,1,0.4062,1,251.086,251.5862,,,,,,194,FEM,NOWORD,AGR,150,foda,,la,,0.4062,,251.5862,251.5863,0.066666685,-0.200595256,0,0,0,,0,104,104,193,1,loca,,,,
,,,,,,5eb0cb5afb9e2418da928edb,676192165fb32c2e1fb7aee6,67d1e801d7dcbca4f75a97ca,2025-03-12_14h01.18.642,Tarea de decisión léxica,2024.2.5,Win32,90.09009009,,,,,,,,,,,,,,,,,,,,,,,251.5876,252.664,a,1,0.4123,1,252.6641,253.164,,,,,,124,FEM,NOWORD,DIS,150,maba,,el,,0.4123,,253.1641,253.1641,0.066666685,-0.200595256,0,0,0,,0,105,105,123,1,flor,,,,
,,,,,,5eb0cb5afb9e2418da928edb,676192165fb32c2e1fb7aee6,67d1e801d7dcbca4f75a97ca,2025-03-12_14h01.18.642,Tarea de decisión léxica,2024.2.5,Win32,90.09009009,,,,,,,,,,,,,,,,,,,,,,,253.1653,254.186,l,1,0.3595,1,254.1861,254.6857,,,,,,205,FEM,WORD,AGR,150,rana,,la,,0.3595,,254.6858,254.6859,0.066666685,-0.200595256,0,0,0,,0,106,106,204,1,bara,,,,
,,,,,,5eb0cb5afb9e2418da928edb,676192165fb32c2e1fb7aee6,67d1e801d7dcbca4f75a97ca,2025-03-12_14h01.18.642,Tarea de decisión léxica,2024.2.5,Win32,90.09009009,,,,,,,,,,,,,,,,,,,,,,,254.6869,255.9193,l,1,0.5671,1,255.9193,256.4194,,,,,,149,MAS,WORD,AGR,150,cabo,,el,,0.5671,,256.4203,256.4208,0.066666685,-0.200595256,0,0,0,,0,107,107,148,1,pafo,,,,
,,,,,,5eb0cb5afb9e2418da928edb,676192165fb32c2e1fb7aee6,67d1e801d7dcbca4f75a97ca,2025-03-12_14h01.18.642,Tarea de decisión léxica,2024.2.5,Win32,90.09009009,,,,,,,,,,,,,,,,,,,,,,,256.4213,257.4969,a,1,0.4159,1,257.4971,257.9973,,,,,,248,FEM,NOWORD,DIS,150,trida,,el,,0.4159,,257.9973,257.9974,0.066666685,-0.200595256,0,0,0,,0,108,108,247,1,chica,,,,
,,,,,,5eb0cb5afb9e2418da928edb,676192165fb32c2e1fb7aee6,67d1e801d7dcbca4f75a97ca,2025-03-12_14h01.18.642,Tarea de decisión léxica,2024.2.5,Win32,90.09009009,,,,,,,,,,,,,,,,,,,,,,,257.9986,259.0417,l,1,0.38,1,259.0417,259.5414,,,,,,137,MAS,WORD,AGR,150,nene,,el,,0.38,,259.5415,259.5416,0.066666685,-0.200595256,0,0,0,,0,109,109,136,1,pamo,,,,
,,,,,,5eb0cb5afb9e2418da928edb,676192165fb32c2e1fb7aee6,67d1e801d7dcbca4f75a97ca,2025-03-12_14h01.18.642,Tarea de decisión léxica,2024.2.5,Win32,90.09009009,,,,,,,,,,,,,,,,,,,,,,,259.5429,260.5195,l,1,0.3108,1,260.5195,261.0193,,,,,,319,MAS,WORD,DIS,150,suelo,,la,,0.3108,,261.0193,261.0194,0.066666685,-0.200595256,0,0,0,,0,110,110,318,1,tuero,,,,
,,,,,,5eb0cb5afb9e2418da928edb,676192165fb32c2e1fb7aee6,67d1e801d7dcbca4f75a97ca,2025-03-12_14h01.18.642,Tarea de decisión léxica,2024.2.5,Win32,90.09009009,,,,,,,,,,,,,,,,,,,,,,,261.0203,262.0859,a,1,0.4009,1,262.086,262.5858,,,,,,310,FEM,NOWORD,AGR,150,tirra,,la,,0.4009,,262.5858,262.5859,0.066666685,-0.200595256,0,0,0,,0,111,111,309,1,silla,,,,
,,,,,,5eb0cb5afb9e2418da928edb,676192165fb32c2e1fb7aee6,67d1e801d7dcbca4f75a97ca,2025-03-12_14h01.18.642,Tarea de decisión léxica,2024.2.5,Win32,90.09009009,,,,,,,,,,,,,,,,,,,,,,,262.5871,263.5527,l,1,0.3055,1,263.5529,264.0525,,,,,,101,MAS,WORD,AGR,150,tono,,el,,0.3055,,264.054,264.0545,0.066666685,-0.200595256,0,0,0,,0,112,112,100,1,gito,,,,
,,,,,,5eb0cb5afb9e2418da928edb,676192165fb32c2e1fb7aee6,67d1e801d7dcbca4f75a97ca,2025-03-12_14h01.18.642,Tarea de decisión léxica,2024.2.5,Win32,90.09009009,,,,,,,,,,,,,,,,,,,,,,,264.055,265.0864,l,1,0.3673,1,265.0865,265.5861,,,,,,309,FEM,WORD,AGR,150,silla,,la,,0.3673,,265.5862,265.5863,0.066666685,-0.200595256,0,0,0,,0,113,113,308,1,tirra,,,,
,,,,,,5eb0cb5afb9e2418da928edb,676192165fb32c2e1fb7aee6,67d1e801d7dcbca4f75a97ca,2025-03-12_14h01.18.642,Tarea de decisión léxica,2024.2.5,Win32,90.09009009,,,,,,,,,,,,,,,,,,,,,,,265.5873,266.764,a,1,0.5136,1,266.7641,267.2639,,,,,,264,FEM,NOWORD,DIS,150,dosta,,el,,0.5136,,267.2639,267.264,0.066666685,-0.200595256,0,0,0,,0,114,114,263,1,vista,,,,
,,,,,,5eb0cb5afb9e2418da928edb,676192165fb32c2e1fb7aee6,67d1e801d7dcbca4f75a97ca,2025-03-12_14h01.18.642,Tarea de decisión léxica,2024.2.5,Win32,90.09009009,,,,,,,,,,,,,,,,,,,,,,,267.2649,268.2861,a,1,0.3563,1,268.2863,268.7862,,,,,,50,FEM,NOWORD,AGR,150,ecat,,la,,0.3563,,268.7862,268.7863,0.066666685,-0.200595256,0,0,0,,0,115,115,49,1,edad,,,,
,,,,,,5eb0cb5afb9e2418da928edb,676192165fb32c2e1fb7aee6,67d1e801d7dcbca4f75a97ca,2025-03-12_14h01.18.642,Tarea de decisión léxica,2024.2.5,Win32,90.09009009,,,,,,,,,,,,,,,,,,,,,,,268.7872,269.7971,l,1,0.3448,1,269.7971,270.2972,,,,,,75,MAS,WORD,DIS,150,olor,,la,,0.3448,,270.2973,270.2974,0.066666685,-0.200595256,0,0,0,,0,116,116,74,1,ocer,,,,
,,,,,,5eb0cb5afb9e2418da928edb,676192165fb32c2e1fb7aee6,67d1e801d7dcbca4f75a97ca,2025-03-12_14h01.18.642,Tarea de decisión léxica,2024.2.5,Win32,90.09009009,,,,,,,,,,,,,,,,,,,,,,,270.2984,271.2747,l,1,0.3108,1,271.2747,271.7751,,,,,,311,MAS,WORD,DIS,150,honor,,la,,0.3108,,271.7761,271.7765,0.066666685,-0.200595256,0,0,0,,0,117,117,310,1,nosor,,,,
,,,,,,5eb0cb5afb9e2418da928edb,676192165fb32c2e1fb7aee6,67d1e801d7dcbca4f75a97ca,2025-03-12_14h01.18.642,Tarea de decisión léxica,2024.2.5,Win32,90.09009009,,,,,,,,,,,,,,,,,,,,,,,271.777,272.9303,a,1,0.4893,1,272.9304,273.4306,,,,,,216,FEM,NOWORD,DIS,150,raua,,el,,0.4893,,273.4307,273.4308,0.066666685,-0.200595256,0,0,0,,0,118,118,215,1,raíz,,,,
,,,,,,5eb0cb5afb9e2418da928edb,676192165fb32c2e1fb7aee6,67d1e801d7dcbca4f75a97ca,2025-03-12_14h01.18.642,Tarea de decisión léxica,2024.2.5,Win32,90.09009009,,,,,,,,,,,,,,,,,,,,,,,273.4318,274.3858,l,1,0.2889,1,274.3859,274.8859,,,,,,43,FEM,WORD,DIS,150,pena,,el,,0.2889,,274.886,274.8861,0.066666685,-0.200595256,0,0,0,,0,119,119,42,1,meda,,,,
,,,,,,5eb0cb5afb9e2418da928edb,676192165fb32c2e1fb7aee6,67d1e801d7dcbca4f75a97ca,2025-03-12_14h01.18.642,Tarea de decisión léxica,2024.2.5,Win32,90.09009009,,,,,,,,,,,,,,,,,,,,,,,274.8871,275.975,a,0,0.4223,0,275.9758,276.475,,,,,,223,FEM,WORD,DIS,150,cera,,el,,0.4223,,276.4751,276.4751,0.066666685,-0.200595256,0,0,0,,0,120,120,222,1,cira,,,,
,,,,,,5eb0cb5afb9e2418da928edb,676192165fb32c2e1fb7aee6,67d1e801d7dcbca4f75a97ca,2025-03-12_14h01.18.642,Tarea de decisión léxica,2024.2.5,Win32,90.09009009,,,,,,,,,,,,,,,,,,,,,,,276.4762,277.4971,l,1,0.3585,1,277.498,277.9968,,,,,,297,MAS,WORD,AGR,150,grupo,,el,,0.3585,,277.9968,277.9968,0.066666685,-0.200595256,0,0,0,,0,121,121,296,1,brubo,,,,
,,,,,,5eb0cb5afb9e2418da928edb,676192165fb32c2e1fb7aee6,67d1e801d7dcbca4f75a97ca,2025-03-12_14h01.18.642,Tarea de decisión léxica,2024.2.5,Win32,90.09009009,,,,,,,,,,,,,,,,,,,,,,,277.9977,279.086,a,1,0.4213,1,279.0861,279.5895,,,,,,436,MAS,NOWORD,DIS,150,ricno,,la,,0.4213,,279.5903,279.591,0.066666685,-0.200595256,0,0,0,,0,122,122,435,1,ritmo,,,,
,,,,,,5eb0cb5afb9e2418da928edb,676192165fb32c2e1fb7aee6,67d1e801d7dcbca4f75a97ca,2025-03-12_14h01.18.642,Tarea de decisión léxica,2024.2.5,Win32,90.09009009,,,,,,,,,,,,,,,,,,,,,,,279.5916,280.5083,l,1,0.2556,1,280.5085,281.008,,,,,,93,FEM,WORD,AGR,150,bola,,la,,0.2556,,281.0081,281.0082,0.066666685,-0.200595256,0,0,0,,0,123,123,92,1,rona,,,,
,,,,,,5eb0cb5afb9e2418da928edb,676192165fb32c2e1fb7aee6,67d1e801d7dcbca4f75a97ca,2025-03-12_14h01.18.642,Tarea de decisión léxica,2024.2.5,Win32,90.09009009,,,,,,,,,,,,,,,,,,,,,,,281.0093,281.9748,l,1,0.3007,1,281.9748,282.4749,,,,,,129,MAS,WORD,AGR,150,oído,,el,,0.3007,,282.4749,282.4749,0.066666685,-0.200595256,0,0,0,,0,124,124,128,1,pima,,,,
,,,,,,5eb0cb5afb9e2418da928edb,676192165fb32c2e1fb7aee6,67d1e801d7dcbca4f75a97ca,2025-03-12_14h01.18.642,Tarea de decisión léxica,2024.2.5,Win32,90.09009009,,,,,,,,,,,,,,,,,,,,,,,282.4761,283.6098,l,1,0.4745,1,283.6099,284.1082,,,,,,323,FEM,WORD,DIS,150,cinta,,el,,0.4745,,284.1082,284.1083,0.066666685,-0.200595256,0,0,0,,0,125,125,322,1,certa,,,,
,,,,,,5eb0cb5afb9e2418da928edb,676192165fb32c2e1fb7aee6,67d1e801d7dcbca4f75a97ca,2025-03-12_14h01.18.642,Tarea de decisión léxica,2024.2.5,Win32,90.09009009,,,,,,,,,,,,,,,,,,,,,,,284.1097,285.2751,a,1,0.5031,1,285.2753,285.775,,,,,,36,MAS,NOWORD,DIS,150,meno,,la,,0.5031,,285.7751,285.7752,0.066666685,-0.200595256,0,0,0,,0,126,126,35,1,pelo,,,,
,,,,,,5eb0cb5afb9e2418da928edb,676192165fb32c2e1fb7aee6,67d1e801d7dcbca4f75a97ca,2025-03-12_14h01.18.642,Tarea de decisión léxica,2024.2.5,Win32,90.09009009,,,,,,,,,,,,,,,,,,,,,,,285.7761,286.7305,l,1,0.2931,1,286.7305,287.2305,,,,,,299,FEM,WORD,DIS,150,bolsa,,el,,0.2931,,287.2316,287.2322,0.066666685,-0.200595256,0,0,0,,0,127,127,298,1,bosga,,,,
,,,,,,5eb0cb5afb9e2418da928edb,676192165fb32c2e1fb7aee6,67d1e801d7dcbca4f75a97ca,2025-03-12_14h01.18.642,Tarea de decisión léxica,2024.2.5,Win32,90.09009009,,,,,,,,,,,,,,,,,,,,,,,287.2327,288.1864,l,1,0.2918,1,288.1865,288.6864,,,,,,195,FEM,WORD,DIS,150,tela,,el,,0.2918,,288.6864,288.6865,0.066666685,-0.200595256,0,0,0,,0,128,128,194,1,sira,,,,
,,,,,,5eb0cb5afb9e2418da928edb,676192165fb32c2e1fb7aee6,67d1e801d7dcbca4f75a97ca,2025-03-12_14h01.18.642,Tarea de decisión léxica,2024.2.5,Win32,90.09009009,,,,,,,,,,,,,,,,,,,,,,,288.6876,289.797,a,1,0.4458,1,289.7971,290.3019,,,,,,206,FEM,NOWORD,AGR,150,bara,,la,,0.4458,,290.302,290.302,0.066666685,-0.200595256,0,0,0,,0,129,129,205,1,rana,,,,
,,,,,,5eb0cb5afb9e2418da928edb,676192165fb32c2e1fb7aee6,67d1e801d7dcbca4f75a97ca,2025-03-12_14h01.18.642,Tarea de decisión léxica,2024.2.5,Win32,90.09009009,,,,,,,,,,,,,,,,,,,,,,,290.3028,291.3081,l,1,0.3447,1,291.3082,291.8085,,,,,,165,FEM,WORD,AGR,150,vela,,la,,0.3447,,291.8086,291.8086,0.066666685,-0.200595256,0,0,0,,0,130,130,164,1,dera,,,,
,,,,,,5eb0cb5afb9e2418da928edb,676192165fb32c2e1fb7aee6,67d1e801d7dcbca4f75a97ca,2025-03-12_14h01.18.642,Tarea de decisión léxica,2024.2.5,Win32,90.09009009,,,,,,,,,,,,,,,,,,,,,,,291.8099,292.7531,l,1,0.2778,1,292.7533,293.2528,,,,,,133,FEM,WORD,AGR,150,vaca,,la,,0.2778,,293.2539,293.2545,0.066666685,-0.200595256,0,0,0,,0,131,131,132,1,vesa,,,,
,,,,,,5eb0cb5afb9e2418da928edb,676192165fb32c2e1fb7aee6,67d1e801d7dcbca4f75a97ca,2025-03-12_14h01.18.642,Tarea de decisión léxica,2024.2.5,Win32,90.09009009,,,,,,,,,,,,,,,,,,,,,,,293.2553,294.8747,l,1,0.9576,1,294.8748,295.3752,,,,,,335,FEM,WORD,DIS,150,costa,,el,,0.9576,,295.3753,295.3754,0.066666685,-0.200595256,0,0,0,,0,132,132,334,1,pesta,,,,
,,,,,,5eb0cb5afb9e2418da928edb,676192165fb32c2e1fb7aee6,67d1e801d7dcbca4f75a97ca,2025-03-12_14h01.18.642,Tarea de decisión léxica,2024.2.5,Win32,90.09009009,,,,,,,,,,,,,,,,,,,,,,,295.3767,296.586,a,1,0.5454,1,296.5861,297.0861,,,,,,56,MAS,NOWORD,DIS,150,jado,,la,,0.5454,,297.0863,297.0864,0.066666685,-0.200595256,0,0,0,,0,133,133,55,1,gato,,,,
,,,,,,5eb0cb5afb9e2418da928edb,676192165fb32c2e1fb7aee6,67d1e801d7dcbca4f75a97ca,2025-03-12_14h01.18.642,Tarea de decisión léxica,2024.2.5,Win32,90.09009009,,,,,,,,,,,,,,,,,,,,,,,297.0874,298.0086,l,1,0.2575,1,298.0087,298.508,,,,,,477,MAS,WORD,AGR,150,botón,,el,,0.2575,,298.5081,298.5083,0.066666685,-0.200595256,0,0,0,,0,134,134,476,1,hocon,,,,
,,,,,,5eb0cb5afb9e2418da928edb,676192165fb32c2e1fb7aee6,67d1e801d7dcbca4f75a97ca,2025-03-12_14h01.18.642,Tarea de decisión léxica,2024.2.5,Win32,90.09009009,,,,,,,,,,,,,,,,,,,,,,,298.5101,299.6527,l,0,0.4814,0,299.6537,300.1527,,,,,,214,FEM,NOWORD,AGR,150,bana,,la,,0.4814,,300.1528,300.1529,0.066666685,-0.200595256,0,0,0,,0,135,135,213,1,rama,,,,
,,,,,,5eb0cb5afb9e2418da928edb,676192165fb32c2e1fb7aee6,67d1e801d7dcbca4f75a97ca,2025-03-12_14h01.18.642,Tarea de decisión léxica,2024.2.5,Win32,90.09009009,,,,,,,,,,,,,,,,,,,,,,,300.1538,301.4858,a,1,0.6674,1,301.4866,301.9859,,,,,,350,MAS,NOWORD,AGR,150,cosir,,el,,0.6674,,301.9868,301.9872,0.066666685,-0.200595256,0,0,0,,0,136,136,349,1,color,,,,
,,,,,,5eb0cb5afb9e2418da928edb,676192165fb32c2e1fb7aee6,67d1e801d7dcbca4f75a97ca,2025-03-12_14h01.18.642,Tarea de decisión léxica,2024.2.5,Win32,90.09009009,,,,,,,,,,,,,,,,,,,,,,,301.9878,303.0078,a,1,0.3578,1,303.0079,303.5085,,,,,,410,MAS,NOWORD,AGR,150,pafro,,el,,0.3578,,303.5086,303.5087,0.066666685,-0.200595256,0,0,0,,0,137,137,409,1,carro,,,,
,,,,,,5eb0cb5afb9e2418da928edb,676192165fb32c2e1fb7aee6,67d1e801d7dcbca4f75a97ca,2025-03-12_14h01.18.642,Tarea de decisión léxica,2024.2.5,Win32,90.09009009,,,,,,,,,,,,,,,,,,,,,,,303.5101,304.7081,a,1,0.5353,1,304.7082,305.2085,,,,,,330,MAS,NOWORD,AGR,150,nueno,,el,,0.5353,,305.2085,305.2087,0.066666685,-0.200595256,0,0,0,,0,138,138,329,1,hueso,,,,
,,,,,,5eb0cb5afb9e2418da928edb,676192165fb32c2e1fb7aee6,67d1e801d7dcbca4f75a97ca,2025-03-12_14h01.18.642,Tarea de decisión léxica,2024.2.5,Win32,90.09009009,,,,,,,,,,,,,,,,,,,,,,,305.2097,306.1971,l,1,0.3239,1,306.1972,306.6971,,,,,,89,MAS,WORD,AGR,150,humo,,el,,0.3239,,306.6972,306.6972,0.066666685,-0.200595256,0,0,0,,0,139,139,88,1,guso,,,,
,,,,,,5eb0cb5afb9e2418da928edb,676192165fb32c2e1fb7aee6,67d1e801d7dcbca4f75a97ca,2025-03-12_14h01.18.642,Tarea de decisión léxica,2024.2.5,Win32,90.09009009,,,,,,,,,,,,,,,,,,,,,,,306.6984,307.7303,l,1,0.3668,1,307.7304,308.2305,,,,,,1,FEM,WORD,AGR,150,casa,,la,,0.3668,,308.2305,308.2306,0.066666685,-0.200595256,0,0,0,,0,140,140,0,1,mada,,,,
,,,,,,5eb0cb5afb9e2418da928edb,676192165fb32c2e1fb7aee6,67d1e801d7dcbca4f75a97ca,2025-03-12_14h01.18.642,Tarea de decisión léxica,2024.2.5,Win32,90.09009009,,,,,,,,,,,,,,,,,,,,,,,308.2319,309.264,a,1,0.373,1,309.2642,309.7636,,,,,,140,MAS,NOWORD,DIS,150,nila,,la,,0.373,,309.7648,309.7655,0.066666685,-0.200595256,0,0,0,,0,141,141,139,1,mago,,,,
,,,,,,5eb0cb5afb9e2418da928edb,676192165fb32c2e1fb7aee6,67d1e801d7dcbca4f75a97ca,2025-03-12_14h01.18.642,Tarea de decisión léxica,2024.2.5,Win32,90.09009009,,,,,,,,,,,,,,,,,,,,,,,309.7662,310.686,l,1,0.259,1,310.686,311.1861,,,,,,355,FEM,WORD,DIS,150,regla,,el,,0.259,,311.1862,311.1862,0.066666685,-0.200595256,0,0,0,,0,142,142,354,1,bepla,,,,
,,,,,,5eb0cb5afb9e2418da928edb,676192165fb32c2e1fb7aee6,67d1e801d7dcbca4f75a97ca,2025-03-12_14h01.18.642,Tarea de decisión léxica,2024.2.5,Win32,90.09009009,,,,,,,,,,,,,,,,,,,,,,,311.1873,312.1525,l,1,0.3059,1,312.1526,312.6526,,,,,,37,MAS,WORD,AGR,150,rato,,el,,0.3059,,312.6527,312.6528,0.066666685,-0.200595256,0,0,0,,0,143,143,36,1,gaco,,,,
,,,,,,5eb0cb5afb9e2418da928edb,676192165fb32c2e1fb7aee6,67d1e801d7dcbca4f75a97ca,2025-03-12_14h01.18.642,Tarea de decisión léxica,2024.2.5,Win32,90.09009009,,,,,,,,,,,,,,,,,,,,,,,312.6538,313.675,a,1,0.3571,1,313.6752,314.1751,,,,,,328,MAS,NOWORD,DIS,150,lendo,,la,,0.3571,,314.1752,314.1753,0.066666685,-0.200595256,0,0,0,,0,144,144,327,1,fondo,,,,
,,,,,,5eb0cb5afb9e2418da928edb,676192165fb32c2e1fb7aee6,67d1e801d7dcbca4f75a97ca,2025-03-12_14h01.18.642,Tarea de decisión léxica,2024.2.5,Win32,90.09009009,,,,,,,,,,,,,,,,,,,,,,,314.1764,315.2415,a,1,0.4018,1,315.2416,315.7421,,,,,,424,MAS,NOWORD,DIS,150,quigo,,la,,0.4018,,315.7421,315.7423,0.066666685,-0.200595256,0,0,0,,0,145,145,423,1,queso,,,,
,,,,,,5eb0cb5afb9e2418da928edb,676192165fb32c2e1fb7aee6,67d1e801d7dcbca4f75a97ca,2025-03-12_14h01.18.642,Tarea de decisión léxica,2024.2.5,Win32,90.09009009,,,,,,,,,,,,,,,,,,,,,,,315.7436,316.7084,l,1,0.3009,1,316.7084,317.2084,,,,,,243,MAS,WORD,DIS,150,amigo,,la,,0.3009,,317.2097,317.2102,0.066666685,-0.200595256,0,0,0,,0,146,146,242,1,asamo,,,,
,,,,,,5eb0cb5afb9e2418da928edb,676192165fb32c2e1fb7aee6,67d1e801d7dcbca4f75a97ca,2025-03-12_14h01.18.642,Tarea de decisión léxica,2024.2.5,Win32,90.09009009,,,,,,,,,,,,,,,,,,,,,,,317.2109,318.2303,l,1,0.3564,1,318.2303,318.7306,,,,,,359,MAS,WORD,DIS,150,calor,,la,,0.3564,,318.7306,318.7307,0.066666685,-0.200595256,0,0,0,,0,147,147,358,1,cacer,,,,
,,,,,,5eb0cb5afb9e2418da928edb,676192165fb32c2e1fb7aee6,67d1e801d7dcbca4f75a97ca,2025-03-12_14h01.18.642,Tarea de decisión léxica,2024.2.5,Win32,90.09009009,,,,,,,,,,,,,,,,,,,,,,,318.7316,319.8083,a,1,0.4143,1,319.8084,320.3084,,,,,,66,MAS,NOWORD,AGR,150,nios,,el,,0.4143,,320.3084,320.3085,0.066666685,-0.200595256,0,0,0,,0,148,148,65,1,dios,,,,
,,,,,,5eb0cb5afb9e2418da928edb,676192165fb32c2e1fb7aee6,67d1e801d7dcbca4f75a97ca,2025-03-12_14h01.18.642,Tarea de decisión léxica,2024.2.5,Win32,90.09009009,,,,,,,,,,,,,,,,,,,,,,,320.3097,321.2746,l,1,0.305,1,321.2746,321.7744,,,,,,435,MAS,WORD,DIS,150,ritmo,,la,,0.305,,321.7745,321.7746,0.066666685,-0.200595256,0,0,0,,0,149,149,434,1,ricno,,,,
,,,,,,5eb0cb5afb9e2418da928edb,676192165fb32c2e1fb7aee6,67d1e801d7dcbca4f75a97ca,2025-03-12_14h01.18.642,Tarea de decisión léxica,2024.2.5,Win32,90.09009009,,,,,,,,,,,,,,,,,,,,,,,321.7757,323.2856,l,1,0.8404,1,323.2858,323.786,,,,,,219,FEM,WORD,DIS,150,pipa,,el,,0.8404,,323.7861,323.7863,0.066666685,-0.200595256,0,0,0,,0,150,150,218,1,miva,,,,
,,,,,,5eb0cb5afb9e2418da928edb,676192165fb32c2e1fb7aee6,67d1e801d7dcbca4f75a97ca,2025-03-12_14h01.18.642,Tarea de decisión léxica,2024.2.5,Win32,90.09009009,,,,,,,,,,,,,,,,,,,,,,,323.7876,324.7635,l,0,0.3112,0,324.7641,325.2637,,,,,,20,MAS,NOWORD,DIS,150,himo,,la,,0.3112,,325.2645,325.2649,0.066666685,-0.200595256,0,0,0,,0,151,151,19,1,niño,,,,
,,,,,,5eb0cb5afb9e2418da928edb,676192165fb32c2e1fb7aee6,67d1e801d7dcbca4f75a97ca,2025-03-12_14h01.18.642,Tarea de decisión léxica,2024.2.5,Win32,90.09009009,,,,,,,,,,,,,,,,,,,,,,,325.2655,326.3634,l,1,0.4373,1,326.3643,326.8637,,,,,,131,FEM,WORD,DIS,150,mina,,el,,0.4373,,326.8637,326.8638,0.066666685,-0.200595256,0,0,0,,0,152,152,130,1,fada,,,,
,,,,,,5eb0cb5afb9e2418da928edb,676192165fb32c2e1fb7aee6,67d1e801d7dcbca4f75a97ca,2025-03-12_14h01.18.642,Tarea de decisión léxica,2024.2.5,Win32,90.09009009,,,,,,,,,,,,,,,,,,,,,,,326.8645,328.2973,a,1,0.7681,1,328.2973,328.7969,,,,,,196,FEM,NOWORD,DIS,150,sira,,el,,0.7681,,328.7969,328.797,0.066666685,-0.200595256,0,0,0,,0,153,153,195,1,tela,,,,
,,,,,,5eb0cb5afb9e2418da928edb,676192165fb32c2e1fb7aee6,67d1e801d7dcbca4f75a97ca,2025-03-12_14h01.18.642,Tarea de decisión léxica,2024.2.5,Win32,90.09009009,,,,,,,,,,,,,,,,,,,,,,,328.7979,329.8303,a,1,0.3666,1,329.8304,330.3305,,,,,,314,MAS,NOWORD,AGR,150,govio,,el,,0.3666,,330.3306,330.3307,0.066666685,-0.200595256,0,0,0,,0,154,154,313,1,novio,,,,
,,,,,,5eb0cb5afb9e2418da928edb,676192165fb32c2e1fb7aee6,67d1e801d7dcbca4f75a97ca,2025-03-12_14h01.18.642,Tarea de decisión léxica,2024.2.5,Win32,90.09009009,,,,,,,,,,,,,,,,,,,,,,,330.332,331.497,l,1,0.5052,1,331.4972,331.9974,,,,,,227,MAS,WORD,DIS,150,faro,,la,,0.5052,,331.9983,331.9989,0.066666685,-0.200595256,0,0,0,,0,155,155,226,1,laro,,,,
,,,,,,5eb0cb5afb9e2418da928edb,676192165fb32c2e1fb7aee6,67d1e801d7dcbca4f75a97ca,2025-03-12_14h01.18.642,Tarea de decisión léxica,2024.2.5,Win32,90.09009009,,,,,,,,,,,,,,,,,,,,,,,331.9996,333.3528,a,1,0.6898,1,333.3528,333.8527,,,,,,444,MAS,NOWORD,DIS,150,taron,,la,,0.6898,,333.8528,333.8528,0.066666685,-0.200595256,0,0,0,,0,156,156,443,1,salón,,,,
,,,,,,5eb0cb5afb9e2418da928edb,676192165fb32c2e1fb7aee6,67d1e801d7dcbca4f75a97ca,2025-03-12_14h01.18.642,Tarea de decisión léxica,2024.2.5,Win32,90.09009009,,,,,,,,,,,,,,,,,,,,,,,333.8537,334.9971,l,1,0.4781,1,334.9971,335.4974,,,,,,63,FEM,WORD,DIS,150,luna,,el,,0.4781,,335.4976,335.4976,0.066666685,-0.200595256,0,0,0,,0,157,157,62,1,funa,,,,
,,,,,,5eb0cb5afb9e2418da928edb,676192165fb32c2e1fb7aee6,67d1e801d7dcbca4f75a97ca,2025-03-12_14h01.18.642,Tarea de decisión léxica,2024.2.5,Win32,90.09009009,,,,,,,,,,,,,,,,,,,,,,,335.4986,336.7861,a,1,0.6227,1,336.7862,337.2859,,,,,,286,MAS,NOWORD,AGR,150,echor,,el,,0.6227,,337.2859,337.286,0.066666685,-0.200595256,0,0,0,,0,158,158,285,1,error,,,,
,,,,,,5eb0cb5afb9e2418da928edb,676192165fb32c2e1fb7aee6,67d1e801d7dcbca4f75a97ca,2025-03-12_14h01.18.642,Tarea de decisión léxica,2024.2.5,Win32,90.09009009,,,,,,,,,,,,,,,,,,,,,,,337.2869,338.3195,l,1,0.3676,1,338.3196,338.8191,,,,,,113,FEM,WORD,AGR,150,miel,,la,,0.3676,,338.8192,338.8192,0.066666685,-0.200595256,0,0,0,,0,159,159,112,1,tada,,,,
,,,,,,5eb0cb5afb9e2418da928edb,676192165fb32c2e1fb7aee6,67d1e801d7dcbca4f75a97ca,2025-03-12_14h01.18.642,Tarea de decisión léxica,2024.2.5,Win32,90.09009009,,,,,,,,,,,,,,,,,,,,,,,338.82,339.8635,l,1,0.3783,1,339.8637,340.364,,,,,,291,FEM,WORD,DIS,150,pista,,el,,0.3783,,340.3649,343.5861,0.066666685,-0.200595256,0,0,0,space,0,160,160,290,1,mesta,3.2016,,,
,,,,,,5eb0cb5afb9e2418da928edb,676192165fb32c2e1fb7aee6,67d1e801d7dcbca4f75a97ca,2025-03-12_14h01.18.642,Tarea de decisión léxica,2024.2.5,Win32,90.09009009,,,,,,,,,,,,,,,,,,,,,,,343.5872,344.786,l,1,0.5332,1,344.786,345.2862,,,,,,215,FEM,WORD,DIS,150,raíz,,el,,0.5332,,345.2862,345.2862,0.066666685,-0.200595256,0,0,0,,0,161,161,214,1,raua,,,,
,,,,,,5eb0cb5afb9e2418da928edb,676192165fb32c2e1fb7aee6,67d1e801d7dcbca4f75a97ca,2025-03-12_14h01.18.642,Tarea de decisión léxica,2024.2.5,Win32,90.09009009,,,,,,,,,,,,,,,,,,,,,,,345.2869,346.2303,l,1,0.28,1,346.2304,346.7301,,,,,,305,MAS,WORD,AGR,150,avión,,el,,0.28,,346.7302,346.7303,0.066666685,-0.200595256,0,0,0,,0,162,162,304,1,adiol,,,,
,,,,,,5eb0cb5afb9e2418da928edb,676192165fb32c2e1fb7aee6,67d1e801d7dcbca4f75a97ca,2025-03-12_14h01.18.642,Tarea de decisión léxica,2024.2.5,Win32,90.09009009,,,,,,,,,,,,,,,,,,,,,,,346.7313,347.6862,l,1,0.2903,1,347.6863,348.186,,,,,,469,MAS,WORD,AGR,150,patio,,el,,0.2903,,348.186,348.1861,0.066666685,-0.200595256,0,0,0,,0,163,163,468,1,matia,,,,
,,,,,,5eb0cb5afb9e2418da928edb,676192165fb32c2e1fb7aee6,67d1e801d7dcbca4f75a97ca,2025-03-12_14h01.18.642,Tarea de decisión léxica,2024.2.5,Win32,90.09009009,,,,,,,,,,,,,,,,,,,,,,,348.1871,349.2863,a,1,0.4343,1,349.2864,349.786,,,,,,392,MAS,NOWORD,DIS,150,dievo,,la,,0.4343,,349.786,349.786,0.066666685,-0.200595256,0,0,0,,0,164,164,391,1,dueño,,,,
,,,,,,5eb0cb5afb9e2418da928edb,676192165fb32c2e1fb7aee6,67d1e801d7dcbca4f75a97ca,2025-03-12_14h01.18.642,Tarea de decisión léxica,2024.2.5,Win32,90.09009009,,,,,,,,,,,,,,,,,,,,,,,349.7868,350.9418,a,1,0.4897,1,350.9419,351.4418,,,,,,14,FEM,NOWORD,AGR,150,nola,,la,,0.4897,,351.4432,351.4439,0.066666685,-0.200595256,0,0,0,,0,165,165,13,1,hora,,,,
,,,,,,5eb0cb5afb9e2418da928edb,676192165fb32c2e1fb7aee6,67d1e801d7dcbca4f75a97ca,2025-03-12_14h01.18.642,Tarea de decisión léxica,2024.2.5,Win32,90.09009009,,,,,,,,,,,,,,,,,,,,,,,351.4446,352.5084,a,1,0.4009,1,352.5085,353.0084,,,,,,428,FEM,NOWORD,DIS,150,oseva,,el,,0.4009,,353.0085,353.0085,0.066666685,-0.200595256,0,0,0,,0,166,166,427,1,oreja,,,,
,,,,,,5eb0cb5afb9e2418da928edb,676192165fb32c2e1fb7aee6,67d1e801d7dcbca4f75a97ca,2025-03-12_14h01.18.642,Tarea de decisión léxica,2024.2.5,Win32,90.09009009,,,,,,,,,,,,,,,,,,,,,,,353.0095,354.0974,l,1,0.4233,1,354.0976,354.5976,,,,,,301,FEM,WORD,AGR,150,banda,,la,,0.4233,,354.5976,354.5978,0.066666685,-0.200595256,0,0,0,,0,167,167,300,1,ranga,,,,
,,,,,,5eb0cb5afb9e2418da928edb,676192165fb32c2e1fb7aee6,67d1e801d7dcbca4f75a97ca,2025-03-12_14h01.18.642,Tarea de decisión léxica,2024.2.5,Win32,90.09009009,,,,,,,,,,,,,,,,,,,,,,,354.5993,355.5526,l,1,0.2888,1,355.5527,356.053,,,,,,307,MAS,WORD,DIS,150,hotel,,la,,0.2888,,356.0531,356.0532,0.066666685,-0.200595256,0,0,0,,0,168,168,306,1,holol,,,,
,,,,,,5eb0cb5afb9e2418da928edb,676192165fb32c2e1fb7aee6,67d1e801d7dcbca4f75a97ca,2025-03-12_14h01.18.642,Tarea de decisión léxica,2024.2.5,Win32,90.09009009,,,,,,,,,,,,,,,,,,,,,,,356.0541,357.0637,a,1,0.3451,1,357.0638,357.5641,,,,,,142,FEM,NOWORD,AGR,150,sina,,la,,0.3451,,357.5641,357.5642,0.066666685,-0.200595256,0,0,0,,0,169,169,141,1,cruz,,,,
,,,,,,5eb0cb5afb9e2418da928edb,676192165fb32c2e1fb7aee6,67d1e801d7dcbca4f75a97ca,2025-03-12_14h01.18.642,Tarea de decisión léxica,2024.2.5,Win32,90.09009009,,,,,,,,,,,,,,,,,,,,,,,357.5652,358.6524,a,1,0.4246,1,358.6525,359.1527,,,,,,280,FEM,NOWORD,DIS,150,grina,,el,,0.4246,,359.1534,359.1539,0.066666685,-0.200595256,0,0,0,,0,170,170,279,1,prisa,,,,
,,,,,,5eb0cb5afb9e2418da928edb,676192165fb32c2e1fb7aee6,67d1e801d7dcbca4f75a97ca,2025-03-12_14h01.18.642,Tarea de decisión léxica,2024.2.5,Win32,90.09009009,,,,,,,,,,,,,,,,,,,,,,,359.1549,360.108,l,1,0.2896,1,360.1081,360.6119,,,,,,251,MAS,WORD,DIS,150,señor,,la,,0.2896,,360.612,360.612,0.066666685,-0.200595256,0,0,0,,0,171,171,250,1,refor,,,,
,,,,,,5eb0cb5afb9e2418da928edb,676192165fb32c2e1fb7aee6,67d1e801d7dcbca4f75a97ca,2025-03-12_14h01.18.642,Tarea de decisión léxica,2024.2.5,Win32,90.09009009,,,,,,,,,,,,,,,,,,,,,,,360.613,361.7082,a,1,0.4332,1,361.7083,362.208,,,,,,104,FEM,NOWORD,DIS,150,rova,,el,,0.4332,,362.2081,362.2081,0.066666685,-0.200595256,0,0,0,,0,172,172,103,1,ruta,,,,
,,,,,,5eb0cb5afb9e2418da928edb,676192165fb32c2e1fb7aee6,67d1e801d7dcbca4f75a97ca,2025-03-12_14h01.18.642,Tarea de decisión léxica,2024.2.5,Win32,90.09009009,,,,,,,,,,,,,,,,,,,,,,,362.2088,363.2528,l,1,0.378,1,363.2528,363.7525,,,,,,409,MAS,WORD,AGR,150,carro,,el,,0.378,,363.7525,363.7526,0.066666685,-0.200595256,0,0,0,,0,173,173,408,1,pafro,,,,
,,,,,,5eb0cb5afb9e2418da928edb,676192165fb32c2e1fb7aee6,67d1e801d7dcbca4f75a97ca,2025-03-12_14h01.18.642,Tarea de decisión léxica,2024.2.5,Win32,90.09009009,,,,,,,,,,,,,,,,,,,,,,,363.7534,364.7416,l,1,0.3206,1,364.7417,365.2414,,,,,,357,FEM,WORD,AGR,150,bruja,,la,,0.3206,,365.2415,365.2416,0.066666685,-0.200595256,0,0,0,,0,174,174,356,1,gruba,,,,
,,,,,,5eb0cb5afb9e2418da928edb,676192165fb32c2e1fb7aee6,67d1e801d7dcbca4f75a97ca,2025-03-12_14h01.18.642,Tarea de decisión léxica,2024.2.5,Win32,90.09009009,,,,,,,,,,,,,,,,,,,,,,,365.2423,366.2528,a,1,0.3481,1,366.2529,366.7528,,,,,,304,MAS,NOWORD,DIS,150,lanco,,la,,0.3481,,366.7539,366.7547,0.066666685,-0.200595256,0,0,0,,0,175,175,303,1,barco,,,,
,,,,,,5eb0cb5afb9e2418da928edb,676192165fb32c2e1fb7aee6,67d1e801d7dcbca4f75a97ca,2025-03-12_14h01.18.642,Tarea de decisión léxica,2024.2.5,Win32,90.09009009,,,,,,,,,,,,,,,,,,,,,,,366.7553,367.8972,a,1,0.478,1,367.8973,368.3973,,,,,,174,FEM,NOWORD,AGR,150,boma,,la,,0.478,,368.3974,368.3975,0.066666685,-0.200595256,0,0,0,,0,176,176,173,1,rosa,,,,
,,,,,,5eb0cb5afb9e2418da928edb,676192165fb32c2e1fb7aee6,67d1e801d7dcbca4f75a97ca,2025-03-12_14h01.18.642,Tarea de decisión léxica,2024.2.5,Win32,90.09009009,,,,,,,,,,,,,,,,,,,,,,,368.3986,369.4194,a,1,0.3569,1,369.4194,369.9195,,,,,,380,MAS,NOWORD,DIS,150,tunso,,la,,0.3569,,369.9196,369.9196,0.066666685,-0.200595256,0,0,0,,0,177,177,379,1,turno,,,,
,,,,,,5eb0cb5afb9e2418da928edb,676192165fb32c2e1fb7aee6,67d1e801d7dcbca4f75a97ca,2025-03-12_14h01.18.642,Tarea de decisión léxica,2024.2.5,Win32,90.09009009,,,,,,,,,,,,,,,,,,,,,,,369.9205,370.9524,l,1,0.3676,1,370.9526,371.4527,,,,,,379,MAS,WORD,DIS,150,turno,,la,,0.3676,,371.4527,371.4528,0.066666685,-0.200595256,0,0,0,,0,178,178,378,1,tunso,,,,
,,,,,,5eb0cb5afb9e2418da928edb,676192165fb32c2e1fb7aee6,67d1e801d7dcbca4f75a97ca,2025-03-12_14h01.18.642,Tarea de decisión léxica,2024.2.5,Win32,90.09009009,,,,,,,,,,,,,,,,,,,,,,,371.4539,372.5305,l,1,0.4118,1,372.5305,373.0306,,,,,,321,MAS,WORD,AGR,150,banco,,el,,0.4118,,373.0314,373.0319,0.066666685,-0.200595256,0,0,0,,0,179,179,320,1,rarco,,,,
,,,,,,5eb0cb5afb9e2418da928edb,676192165fb32c2e1fb7aee6,67d1e801d7dcbca4f75a97ca,2025-03-12_14h01.18.642,Tarea de decisión léxica,2024.2.5,Win32,90.09009009,,,,,,,,,,,,,,,,,,,,,,,373.0325,374.0859,a,1,0.3906,1,374.086,374.5864,,,,,,480,MAS,NOWORD,DIS,150,rimpo,,la,,0.3906,,374.5864,374.5866,0.066666685,-0.200595256,0,0,0,,0,180,180,479,1,rumbo,,,,
,,,,,,5eb0cb5afb9e2418da928edb,676192165fb32c2e1fb7aee6,67d1e801d7dcbca4f75a97ca,2025-03-12_14h01.18.642,Tarea de decisión léxica,2024.2.5,Win32,90.09009009,,,,,,,,,,,,,,,,,,,,,,,374.5877,375.5972,l,1,0.345,1,375.5973,376.0972,,,,,,449,FEM,WORD,AGR,150,pluma,,la,,0.345,,376.0973,376.0973,0.066666685,-0.200595256,0,0,0,,0,181,181,448,1,crusa,,,,
,,,,,,5eb0cb5afb9e2418da928edb,676192165fb32c2e1fb7aee6,67d1e801d7dcbca4f75a97ca,2025-03-12_14h01.18.642,Tarea de decisión léxica,2024.2.5,Win32,90.09009009,,,,,,,,,,,,,,,,,,,,,,,376.0986,377.2305,a,1,0.4666,1,377.2306,377.7238,,,,,,418,FEM,NOWORD,AGR,150,banja,,la,,0.4666,,377.7239,377.724,0.066666685,-0.200595256,0,0,0,,0,182,182,417,1,barba,,,,
,,,,,,5eb0cb5afb9e2418da928edb,676192165fb32c2e1fb7aee6,67d1e801d7dcbca4f75a97ca,2025-03-12_14h01.18.642,Tarea de decisión léxica,2024.2.5,Win32,90.09009009,,,,,,,,,,,,,,,,,,,,,,,377.725,378.7637,a,1,0.3812,1,378.7638,379.2638,,,,,,188,MAS,NOWORD,DIS,150,suto,,la,,0.3812,,379.2638,379.264,0.066666685,-0.200595256,0,0,0,,0,183,183,187,1,mito,,,,
,,,,,,5eb0cb5afb9e2418da928edb,676192165fb32c2e1fb7aee6,67d1e801d7dcbca4f75a97ca,2025-03-12_14h01.18.642,Tarea de decisión léxica,2024.2.5,Win32,90.09009009,,,,,,,,,,,,,,,,,,,,,,,379.2654,380.2861,a,1,0.3564,1,380.2861,380.786,,,,,,268,MAS,NOWORD,DIS,150,figro,,la,,0.3564,,380.7867,380.7872,0.066666685,-0.200595256,0,0,0,,0,184,184,267,1,libro,,,,
,,,,,,5eb0cb5afb9e2418da928edb,676192165fb32c2e1fb7aee6,67d1e801d7dcbca4f75a97ca,2025-03-12_14h01.18.642,Tarea de decisión léxica,2024.2.5,Win32,90.09009009,,,,,,,,,,,,,,,,,,,,,,,380.7881,381.775,a,1,0.3227,1,381.7752,382.2748,,,,,,176,FEM,NOWORD,DIS,150,hosa,,el,,0.3227,,382.2748,382.2749,0.066666685,-0.200595256,0,0,0,,0,185,185,175,1,goma,,,,
,,,,,,5eb0cb5afb9e2418da928edb,676192165fb32c2e1fb7aee6,67d1e801d7dcbca4f75a97ca,2025-03-12_14h01.18.642,Tarea de decisión léxica,2024.2.5,Win32,90.09009009,,,,,,,,,,,,,,,,,,,,,,,382.2757,383.2862,a,1,0.3465,1,383.2863,383.7861,,,,,,440,FEM,NOWORD,DIS,150,prema,,el,,0.3465,,383.7862,383.7862,0.066666685,-0.200595256,0,0,0,,0,186,186,439,1,presa,,,,
,,,,,,5eb0cb5afb9e2418da928edb,676192165fb32c2e1fb7aee6,67d1e801d7dcbca4f75a97ca,2025-03-12_14h01.18.642,Tarea de decisión léxica,2024.2.5,Win32,90.09009009,,,,,,,,,,,,,,,,,,,,,,,383.787,384.786,a,1,0.3372,1,384.7861,385.2862,,,,,,344,FEM,NOWORD,DIS,150,trada,,el,,0.3372,,385.2863,385.2864,0.066666685,-0.200595256,0,0,0,,0,187,187,343,1,plata,,,,
,,,,,,5eb0cb5afb9e2418da928edb,676192165fb32c2e1fb7aee6,67d1e801d7dcbca4f75a97ca,2025-03-12_14h01.18.642,Tarea de decisión léxica,2024.2.5,Win32,90.09009009,,,,,,,,,,,,,,,,,,,,,,,385.2871,386.286,l,1,0.3344,1,386.2861,386.7863,,,,,,201,FEM,WORD,AGR,150,cuna,,la,,0.3344,,386.7863,386.7864,0.066666685,-0.200595256,0,0,0,,0,188,188,200,1,cusa,,,,
,,,,,,5eb0cb5afb9e2418da928edb,676192165fb32c2e1fb7aee6,67d1e801d7dcbca4f75a97ca,2025-03-12_14h01.18.642,Tarea de decisión léxica,2024.2.5,Win32,90.09009009,,,,,,,,,,,,,,,,,,,,,,,386.7873,387.8752,a,1,0.4225,1,387.8752,388.375,,,,,,186,MAS,NOWORD,AGR,150,raol,,el,,0.4225,,388.3764,388.3772,0.066666685,-0.200595256,0,0,0,,0,189,189,185,1,baúl,,,,
,,,,,,5eb0cb5afb9e2418da928edb,676192165fb32c2e1fb7aee6,67d1e801d7dcbca4f75a97ca,2025-03-12_14h01.18.642,Tarea de decisión léxica,2024.2.5,Win32,90.09009009,,,,,,,,,,,,,,,,,,,,,,,388.3779,389.4082,a,1,0.3667,1,389.4083,389.9087,,,,,,394,FEM,NOWORD,AGR,150,ashea,,la,,0.3667,,389.9087,389.9088,0.066666685,-0.200595256,0,0,0,,0,190,190,393,1,aldea,,,,
,,,,,,5eb0cb5afb9e2418da928edb,676192165fb32c2e1fb7aee6,67d1e801d7dcbca4f75a97ca,2025-03-12_14h01.18.642,Tarea de decisión léxica,2024.2.5,Win32,90.09009009,,,,,,,,,,,,,,,,,,,,,,,389.9097,390.8084,l,1,0.2344,1,390.8085,391.3086,,,,,,277,MAS,WORD,AGR,150,fuego,,el,,0.2344,,391.3086,391.3087,0.066666685,-0.200595256,0,0,0,,0,191,191,276,1,vuemo,,,,
,,,,,,5eb0cb5afb9e2418da928edb,676192165fb32c2e1fb7aee6,67d1e801d7dcbca4f75a97ca,2025-03-12_14h01.18.642,Tarea de decisión léxica,2024.2.5,Win32,90.09009009,,,,,,,,,,,,,,,,,,,,,,,391.3096,392.2971,a,1,0.3219,1,392.2971,392.7969,,,,,,70,FEM,NOWORD,AGR,150,ñola,,la,,0.3219,,392.797,392.797,0.066666685,-0.200595256,0,0,0,,0,192,192,69,1,zona,,,,
,,,,,,5eb0cb5afb9e2418da928edb,676192165fb32c2e1fb7aee6,67d1e801d7dcbca4f75a97ca,2025-03-12_14h01.18.642,Tarea de decisión léxica,2024.2.5,Win32,90.09009009,,,,,,,,,,,,,,,,,,,,,,,392.7978,393.8306,l,1,0.3687,1,393.8306,394.3303,,,,,,293,MAS,WORD,AGR,150,campo,,el,,0.3687,,394.3304,394.3305,0.066666685,-0.200595256,0,0,0,,0,193,193,292,1,cacso,,,,
,,,,,,5eb0cb5afb9e2418da928edb,676192165fb32c2e1fb7aee6,67d1e801d7dcbca4f75a97ca,2025-03-12_14h01.18.642,Tarea de decisión léxica,2024.2.5,Win32,90.09009009,,,,,,,,,,,,,,,,,,,,,,,394.3316,395.3526,l,1,0.3565,1,395.3526,395.8527,,,,,,473,FEM,WORD,AGR,150,feria,,la,,0.3565,,395.8535,395.8541,0.066666685,-0.200595256,0,0,0,,0,194,194,472,1,felia,,,,
,,,,,,5eb0cb5afb9e2418da928edb,676192165fb32c2e1fb7aee6,67d1e801d7dcbca4f75a97ca,2025-03-12_14h01.18.642,Tarea de decisión léxica,2024.2.5,Win32,90.09009009,,,,,,,,,,,,,,,,,,,,,,,395.8548,396.9865,a,1,0.4693,1,396.9866,397.4858,,,,,,202,FEM,NOWORD,AGR,150,cusa,,la,,0.4693,,397.4859,397.4859,0.066666685,-0.200595256,0,0,0,,0,195,195,201,1,cuna,,,,
,,,,,,5eb0cb5afb9e2418da928edb,676192165fb32c2e1fb7aee6,67d1e801d7dcbca4f75a97ca,2025-03-12_14h01.18.642,Tarea de decisión léxica,2024.2.5,Win32,90.09009009,,,,,,,,,,,,,,,,,,,,,,,397.4867,398.4418,l,1,0.2899,1,398.4419,398.9417,,,,,,421,MAS,WORD,AGR,150,primo,,el,,0.2899,,398.9418,398.9419,0.066666685,-0.200595256,0,0,0,,0,196,196,420,1,griso,,,,
,,,,,,5eb0cb5afb9e2418da928edb,676192165fb32c2e1fb7aee6,67d1e801d7dcbca4f75a97ca,2025-03-12_14h01.18.642,Tarea de decisión léxica,2024.2.5,Win32,90.09009009,,,,,,,,,,,,,,,,,,,,,,,398.9435,399.9968,a,1,0.3925,1,399.9969,400.4976,,,,,,220,FEM,NOWORD,DIS,150,miva,,el,,0.3925,,400.4977,400.4978,0.066666685,-0.200595256,0,0,0,,0,197,197,219,1,pipa,,,,
,,,,,,5eb0cb5afb9e2418da928edb,676192165fb32c2e1fb7aee6,67d1e801d7dcbca4f75a97ca,2025-03-12_14h01.18.642,Tarea de decisión léxica,2024.2.5,Win32,90.09009009,,,,,,,,,,,,,,,,,,,,,,,400.4988,401.4641,l,1,0.3013,1,401.4643,401.9641,,,,,,391,MAS,WORD,DIS,150,dueño,,la,,0.3013,,401.9641,401.9642,0.066666685,-0.200595256,0,0,0,,0,198,198,390,1,dievo,,,,
,,,,,,5eb0cb5afb9e2418da928edb,676192165fb32c2e1fb7aee6,67d1e801d7dcbca4f75a97ca,2025-03-12_14h01.18.642,Tarea de decisión léxica,2024.2.5,Win32,90.09009009,,,,,,,,,,,,,,,,,,,,,,,401.9652,403.3084,a,1,0.6788,1,403.3085,403.808,,,,,,6,FEM,NOWORD,AGR,150,poga,,la,,0.6788,,403.8088,403.8095,0.066666685,-0.200595256,0,0,0,,0,199,199,5,1,cosa,,,,
,,,,,,5eb0cb5afb9e2418da928edb,676192165fb32c2e1fb7aee6,67d1e801d7dcbca4f75a97ca,2025-03-12_14h01.18.642,Tarea de decisión léxica,2024.2.5,Win32,90.09009009,,,,,,,,,,,,,,,,,,,,,,,403.8101,404.864,a,1,0.3905,1,404.8641,405.364,,,,,,452,FEM,NOWORD,DIS,150,clita,,el,,0.3905,,405.3641,405.3642,0.066666685,-0.200595256,0,0,0,,0,200,200,451,1,fruta,,,,
,,,,,,5eb0cb5afb9e2418da928edb,676192165fb32c2e1fb7aee6,67d1e801d7dcbca4f75a97ca,2025-03-12_14h01.18.642,Tarea de decisión léxica,2024.2.5,Win32,90.09009009,,,,,,,,,,,,,,,,,,,,,,,405.3652,406.4749,a,1,0.4458,1,406.475,406.9749,,,,,,190,MAS,NOWORD,AGR,150,muvo,,el,,0.4458,,406.975,406.9751,0.066666685,-0.200595256,0,0,0,,0,201,201,189,1,puño,,,,
,,,,,,5eb0cb5afb9e2418da928edb,676192165fb32c2e1fb7aee6,67d1e801d7dcbca4f75a97ca,2025-03-12_14h01.18.642,Tarea de decisión léxica,2024.2.5,Win32,90.09009009,,,,,,,,,,,,,,,,,,,,,,,406.9759,407.9863,a,1,0.3476,1,407.9863,408.4864,,,,,,388,FEM,NOWORD,DIS,150,bresa,,el,,0.3476,,408.4864,408.4865,0.066666685,-0.200595256,0,0,0,,0,202,202,387,1,crema,,,,
,,,,,,5eb0cb5afb9e2418da928edb,676192165fb32c2e1fb7aee6,67d1e801d7dcbca4f75a97ca,2025-03-12_14h01.18.642,Tarea de decisión léxica,2024.2.5,Win32,90.09009009,,,,,,,,,,,,,,,,,,,,,,,408.4875,409.4749,l,1,0.3221,1,409.475,409.9749,,,,,,337,MAS,WORD,AGR,150,huevo,,el,,0.3221,,409.976,409.9769,0.066666685,-0.200595256,0,0,0,,0,203,203,336,1,nuejo,,,,
,,,,,,5eb0cb5afb9e2418da928edb,676192165fb32c2e1fb7aee6,67d1e801d7dcbca4f75a97ca,2025-03-12_14h01.18.642,Tarea de decisión léxica,2024.2.5,Win32,90.09009009,,,,,,,,,,,,,,,,,,,,,,,409.9776,411.2525,a,1,0.6128,1,411.2525,411.7528,,,,,,82,FEM,NOWORD,AGR,150,vasa,,la,,0.6128,,411.7529,411.753,0.066666685,-0.200595256,0,0,0,,0,204,204,81,1,dama,,,,
,,,,,,5eb0cb5afb9e2418da928edb,676192165fb32c2e1fb7aee6,67d1e801d7dcbca4f75a97ca,2025-03-12_14h01.18.642,Tarea de decisión léxica,2024.2.5,Win32,90.09009009,,,,,,,,,,,,,,,,,,,,,,,411.7536,412.7526,a,1,0.3335,1,412.7528,413.2528,,,,,,362,FEM,NOWORD,AGR,150,solle,,la,,0.3335,,413.2529,413.253,0.066666685,-0.200595256,0,0,0,,0,205,205,361,1,torre,,,,
,,,,,,5eb0cb5afb9e2418da928edb,676192165fb32c2e1fb7aee6,67d1e801d7dcbca4f75a97ca,2025-03-12_14h01.18.642,Tarea de decisión léxica,2024.2.5,Win32,90.09009009,,,,,,,,,,,,,,,,,,,,,,,413.2542,414.3527,a,1,0.4342,1,414.3529,414.8528,,,,,,250,FEM,NOWORD,AGR,150,plane,,la,,0.4342,,414.8529,414.8529,0.066666685,-0.200595256,0,0,0,,0,206,206,249,1,clase,,,,
,,,,,,5eb0cb5afb9e2418da928edb,676192165fb32c2e1fb7aee6,67d1e801d7dcbca4f75a97ca,2025-03-12_14h01.18.642,Tarea de decisión léxica,2024.2.5,Win32,90.09009009,,,,,,,,,,,,,,,,,,,,,,,414.8535,415.8526,l,1,0.3368,1,415.8526,416.3527,,,,,,73,MAS,WORD,AGR,150,odio,,el,,0.3368,,416.353,416.3531,0.066666685,-0.200595256,0,0,0,,0,207,207,72,1,omio,,,,
,,,,,,5eb0cb5afb9e2418da928edb,676192165fb32c2e1fb7aee6,67d1e801d7dcbca4f75a97ca,2025-03-12_14h01.18.642,Tarea de decisión léxica,2024.2.5,Win32,90.09009009,,,,,,,,,,,,,,,,,,,,,,,416.3545,417.3865,a,1,0.3686,1,417.3866,417.8859,,,,,,116,FEM,NOWORD,DIS,150,haca,,el,,0.3686,,417.8869,417.8875,0.066666685,-0.200595256,0,0,0,,0,208,208,115,1,pata,,,,
,,,,,,5eb0cb5afb9e2418da928edb,676192165fb32c2e1fb7aee6,67d1e801d7dcbca4f75a97ca,2025-03-12_14h01.18.642,Tarea de decisión léxica,2024.2.5,Win32,90.09009009,,,,,,,,,,,,,,,,,,,,,,,417.888,418.9307,l,1,0.3779,1,418.9307,419.4306,,,,,,199,MAS,WORD,DIS,150,lazo,,la,,0.3779,,419.4307,419.4308,0.066666685,-0.200595256,0,0,0,,0,209,209,198,1,fano,,,,
,,,,,,5eb0cb5afb9e2418da928edb,676192165fb32c2e1fb7aee6,67d1e801d7dcbca4f75a97ca,2025-03-12_14h01.18.642,Tarea de decisión léxica,2024.2.5,Win32,90.09009009,,,,,,,,,,,,,,,,,,,,,,,419.4318,420.5087,l,1,0.4146,1,420.5088,421.0085,,,,,,233,FEM,WORD,AGR,150,lana,,la,,0.4146,,421.0086,421.0087,0.066666685,-0.200595256,0,0,0,,0,210,210,232,1,fasa,,,,
,,,,,,5eb0cb5afb9e2418da928edb,676192165fb32c2e1fb7aee6,67d1e801d7dcbca4f75a97ca,2025-03-12_14h01.18.642,Tarea de decisión léxica,2024.2.5,Win32,90.09009009,,,,,,,,,,,,,,,,,,,,,,,421.0096,422.042,a,1,0.3683,1,422.0421,422.5417,,,,,,90,MAS,NOWORD,AGR,150,guso,,el,,0.3683,,422.5417,422.5418,0.066666685,-0.200595256,0,0,0,,0,211,211,89,1,humo,,,,
,,,,,,5eb0cb5afb9e2418da928edb,676192165fb32c2e1fb7aee6,67d1e801d7dcbca4f75a97ca,2025-03-12_14h01.18.642,Tarea de decisión léxica,2024.2.5,Win32,90.09009009,,,,,,,,,,,,,,,,,,,,,,,422.5427,423.5971,a,1,0.3893,1,423.5972,424.0974,,,,,,408,FEM,NOWORD,DIS,150,cauba,,el,,0.3893,,424.0974,424.0975,0.066666685,-0.200595256,0,0,0,,0,212,212,407,1,cueva,,,,
,,,,,,5eb0cb5afb9e2418da928edb,676192165fb32c2e1fb7aee6,67d1e801d7dcbca4f75a97ca,2025-03-12_14h01.18.642,Tarea de decisión léxica,2024.2.5,Win32,90.09009009,,,,,,,,,,,,,,,,,,,,,,,424.0983,425.175,a,1,0.4136,1,425.1751,425.6752,,,,,,8,MAS,NOWORD,DIS,150,nivo,,la,,0.4136,,425.676,425.6764,0.066666685,-0.200595256,0,0,0,,0,213,213,7,1,hijo,,,,
,,,,,,5eb0cb5afb9e2418da928edb,676192165fb32c2e1fb7aee6,67d1e801d7dcbca4f75a97ca,2025-03-12_14h01.18.642,Tarea de decisión léxica,2024.2.5,Win32,90.09009009,,,,,,,,,,,,,,,,,,,,,,,425.6771,426.6304,l,1,0.2894,1,426.6306,427.1307,,,,,,385,FEM,WORD,AGR,150,letra,,la,,0.2894,,427.1308,427.1308,0.066666685,-0.200595256,0,0,0,,0,214,214,384,1,febra,,,,
,,,,,,5eb0cb5afb9e2418da928edb,676192165fb32c2e1fb7aee6,67d1e801d7dcbca4f75a97ca,2025-03-12_14h01.18.642,Tarea de decisión léxica,2024.2.5,Win32,90.09009009,,,,,,,,,,,,,,,,,,,,,,,427.1318,428.1748,a,1,0.3796,1,428.1749,428.675,,,,,,118,MAS,NOWORD,AGR,150,movo,,el,,0.3796,,428.675,428.6751,0.066666685,-0.200595256,0,0,0,,0,215,215,117,1,palo,,,,
,,,,,,5eb0cb5afb9e2418da928edb,676192165fb32c2e1fb7aee6,67d1e801d7dcbca4f75a97ca,2025-03-12_14h01.18.642,Tarea de decisión léxica,2024.2.5,Win32,90.09009009,,,,,,,,,,,,,,,,,,,,,,,428.6764,429.775,l,1,0.4355,1,429.7751,430.275,,,,,,429,FEM,WORD,AGR,150,tarta,,la,,0.4355,,430.2751,430.2751,0.066666685,-0.200595256,0,0,0,,0,216,216,428,1,tenta,,,,
,,,,,,5eb0cb5afb9e2418da928edb,676192165fb32c2e1fb7aee6,67d1e801d7dcbca4f75a97ca,2025-03-12_14h01.18.642,Tarea de decisión léxica,2024.2.5,Win32,90.09009009,,,,,,,,,,,,,,,,,,,,,,,430.2761,431.3637,a,1,0.4228,1,431.3637,431.8638,,,,,,10,MAS,NOWORD,AGR,150,sibo,,el,,0.4228,,431.8638,431.8638,0.066666685,-0.200595256,0,0,0,,0,217,217,9,1,tipo,,,,
,,,,,,5eb0cb5afb9e2418da928edb,676192165fb32c2e1fb7aee6,67d1e801d7dcbca4f75a97ca,2025-03-12_14h01.18.642,Tarea de decisión léxica,2024.2.5,Win32,90.09009009,,,,,,,,,,,,,,,,,,,,,,,431.8646,432.9083,l,1,0.3809,1,432.9083,433.4083,,,,,,377,MAS,WORD,AGR,150,hielo,,el,,0.3809,,433.4092,433.4097,0.066666685,-0.200595256,0,0,0,,0,218,218,376,1,gaulo,,,,
,,,,,,5eb0cb5afb9e2418da928edb,676192165fb32c2e1fb7aee6,67d1e801d7dcbca4f75a97ca,2025-03-12_14h01.18.642,Tarea de decisión léxica,2024.2.5,Win32,90.09009009,,,,,,,,,,,,,,,,,,,,,,,433.4105,434.4422,l,1,0.3683,1,434.4423,434.9416,,,,,,303,MAS,WORD,DIS,150,barco,,la,,0.3683,,434.9417,434.9418,0.066666685,-0.200595256,0,0,0,,0,219,219,302,1,lanco,,,,
,,,,,,5eb0cb5afb9e2418da928edb,676192165fb32c2e1fb7aee6,67d1e801d7dcbca4f75a97ca,2025-03-12_14h01.18.642,Tarea de decisión léxica,2024.2.5,Win32,90.09009009,,,,,,,,,,,,,,,,,,,,,,,434.9429,435.9641,l,1,0.3559,1,435.9642,436.4641,,,,,,49,FEM,WORD,AGR,150,edad,,la,,0.3559,,436.4641,436.4641,0.066666685,-0.200595256,0,0,0,,0,220,220,48,1,ecat,,,,
,,,,,,5eb0cb5afb9e2418da928edb,676192165fb32c2e1fb7aee6,67d1e801d7dcbca4f75a97ca,2025-03-12_14h01.18.642,Tarea de decisión léxica,2024.2.5,Win32,90.09009009,,,,,,,,,,,,,,,,,,,,,,,436.4651,437.4416,l,1,0.3112,1,437.4417,437.9421,,,,,,99,MAS,WORD,DIS,150,lobo,,la,,0.3112,,437.9422,437.9422,0.066666685,-0.200595256,0,0,0,,0,221,221,98,1,soro,,,,
,,,,,,5eb0cb5afb9e2418da928edb,676192165fb32c2e1fb7aee6,67d1e801d7dcbca4f75a97ca,2025-03-12_14h01.18.642,Tarea de decisión léxica,2024.2.5,Win32,90.09009009,,,,,,,,,,,,,,,,,,,,,,,437.9434,438.9638,l,1,0.3558,1,438.9638,439.464,,,,,,177,MAS,WORD,AGR,150,reto,,el,,0.3558,,439.4641,439.4641,0.066666685,-0.200595256,0,0,0,,0,222,222,176,1,bito,,,,
,,,,,,5eb0cb5afb9e2418da928edb,676192165fb32c2e1fb7aee6,67d1e801d7dcbca4f75a97ca,2025-03-12_14h01.18.642,Tarea de decisión léxica,2024.2.5,Win32,90.09009009,,,,,,,,,,,,,,,,,,,,,,,439.4651,440.5865,l,1,0.456,1,440.5866,441.086,,,,,,245,FEM,WORD,AGR,150,madre,,la,,0.456,,441.0871,441.0878,0.066666685,-0.200595256,0,0,0,,0,223,223,244,1,pafle,,,,
,,,,,,5eb0cb5afb9e2418da928edb,676192165fb32c2e1fb7aee6,67d1e801d7dcbca4f75a97ca,2025-03-12_14h01.18.642,Tarea de decisión léxica,2024.2.5,Win32,90.09009009,,,,,,,,,,,,,,,,,,,,,,,441.0885,442.1305,l,1,0.3782,1,442.1305,442.6308,,,,,,119,MAS,WORD,DIS,150,pozo,,la,,0.3782,,442.6309,442.631,0.066666685,-0.200595256,0,0,0,,0,224,224,118,1,hooy,,,,
,,,,,,5eb0cb5afb9e2418da928edb,676192165fb32c2e1fb7aee6,67d1e801d7dcbca4f75a97ca,2025-03-12_14h01.18.642,Tarea de decisión léxica,2024.2.5,Win32,90.09009009,,,,,,,,,,,,,,,,,,,,,,,442.6319,444.0754,a,1,0.7806,1,444.0756,444.5754,,,,,,274,FEM,NOWORD,AGR,150,frosa,,la,,0.7806,,444.5754,444.5755,0.066666685,-0.200595256,0,0,0,,0,225,225,273,1,broma,,,,
,,,,,,5eb0cb5afb9e2418da928edb,676192165fb32c2e1fb7aee6,67d1e801d7dcbca4f75a97ca,2025-03-12_14h01.18.642,Tarea de decisión léxica,2024.2.5,Win32,90.09009009,,,,,,,,,,,,,,,,,,,,,,,444.5767,445.6307,a,1,0.3899,1,445.6309,446.1308,,,,,,266,FEM,NOWORD,AGR,150,pitat,,la,,0.3899,,446.131,446.1311,0.066666685,-0.200595256,0,0,0,,0,226,226,265,1,mitad,,,,
,,,,,,5eb0cb5afb9e2418da928edb,676192165fb32c2e1fb7aee6,67d1e801d7dcbca4f75a97ca,2025-03-12_14h01.18.642,Tarea de decisión léxica,2024.2.5,Win32,90.09009009,,,,,,,,,,,,,,,,,,,,,,,446.1322,447.1859,a,1,0.3923,1,447.186,447.6865,,,,,,288,FEM,NOWORD,DIS,150,fosta,,el,,0.3923,,447.6877,447.6884,0.066666685,-0.200595256,0,0,0,,0,227,227,287,1,lista,,,,
,,,,,,5eb0cb5afb9e2418da928edb,676192165fb32c2e1fb7aee6,67d1e801d7dcbca4f75a97ca,2025-03-12_14h01.18.642,Tarea de decisión léxica,2024.2.5,Win32,90.09009009,,,,,,,,,,,,,,,,,,,,,,,447.6891,448.7303,l,1,0.3835,1,448.7303,449.2305,,,,,,467,MAS,WORD,DIS,150,piano,,la,,0.3835,,449.2306,449.2306,0.066666685,-0.200595256,0,0,0,,0,228,228,466,1,peiso,,,,
,,,,,,5eb0cb5afb9e2418da928edb,676192165fb32c2e1fb7aee6,67d1e801d7dcbca4f75a97ca,2025-03-12_14h01.18.642,Tarea de decisión léxica,2024.2.5,Win32,90.09009009,,,,,,,,,,,,,,,,,,,,,,,449.2317,450.1524,l,1,0.2553,1,450.1525,450.6528,,,,,,363,FEM,WORD,DIS,150,deuda,,el,,0.2553,,450.6528,450.6529,0.066666685,-0.200595256,0,0,0,,0,229,229,362,1,veida,,,,
,,,,,,5eb0cb5afb9e2418da928edb,676192165fb32c2e1fb7aee6,67d1e801d7dcbca4f75a97ca,2025-03-12_14h01.18.642,Tarea de decisión léxica,2024.2.5,Win32,90.09009009,,,,,,,,,,,,,,,,,,,,,,,450.6536,451.5861,a,1,0.2702,1,451.5862,452.0864,,,,,,132,FEM,NOWORD,DIS,150,fada,,el,,0.2702,,452.0864,452.0864,0.066666685,-0.200595256,0,0,0,,0,230,230,131,1,mina,,,,
,,,,,,5eb0cb5afb9e2418da928edb,676192165fb32c2e1fb7aee6,67d1e801d7dcbca4f75a97ca,2025-03-12_14h01.18.642,Tarea de decisión léxica,2024.2.5,Win32,90.09009009,,,,,,,,,,,,,,,,,,,,,,,452.0872,453.064,l,1,0.3118,1,453.0641,453.5638,,,,,,375,FEM,WORD,DIS,150,salsa,,el,,0.3118,,453.5639,453.5639,0.066666685,-0.200595256,0,0,0,,0,231,231,374,1,sasna,,,,
,,,,,,5eb0cb5afb9e2418da928edb,676192165fb32c2e1fb7aee6,67d1e801d7dcbca4f75a97ca,2025-03-12_14h01.18.642,Tarea de decisión léxica,2024.2.5,Win32,90.09009009,,,,,,,,,,,,,,,,,,,,,,,453.5645,454.5863,a,1,0.3562,1,454.5864,455.0861,,,,,,300,FEM,NOWORD,DIS,150,bosga,,el,,0.3562,,455.0868,455.0871,0.066666685,-0.200595256,0,0,0,,0,232,232,299,1,bolsa,,,,
,,,,,,5eb0cb5afb9e2418da928edb,676192165fb32c2e1fb7aee6,67d1e801d7dcbca4f75a97ca,2025-03-12_14h01.18.642,Tarea de decisión léxica,2024.2.5,Win32,90.09009009,,,,,,,,,,,,,,,,,,,,,,,455.0876,456.008,l,0,0.2576,0,456.0088,456.5083,,,,,,430,FEM,NOWORD,AGR,150,tenta,,la,,0.2576,,456.5083,456.5083,0.066666685,-0.200595256,0,0,0,,0,233,233,429,1,tarta,,,,
,,,,,,5eb0cb5afb9e2418da928edb,676192165fb32c2e1fb7aee6,67d1e801d7dcbca4f75a97ca,2025-03-12_14h01.18.642,Tarea de decisión léxica,2024.2.5,Win32,90.09009009,,,,,,,,,,,,,,,,,,,,,,,456.509,457.4753,l,1,0.3015,1,457.476,457.9754,,,,,,55,MAS,WORD,DIS,150,gato,,la,,0.3015,,457.9754,457.9755,0.066666685,-0.200595256,0,0,0,,0,234,234,54,1,jado,,,,
,,,,,,5eb0cb5afb9e2418da928edb,676192165fb32c2e1fb7aee6,67d1e801d7dcbca4f75a97ca,2025-03-12_14h01.18.642,Tarea de decisión léxica,2024.2.5,Win32,90.09009009,,,,,,,,,,,,,,,,,,,,,,,457.9765,459.075,a,1,0.4336,1,459.0751,459.5756,,,,,,254,MAS,NOWORD,AGR,150,trido,,el,,0.4336,,459.5756,459.5756,0.066666685,-0.200595256,0,0,0,,0,235,235,253,1,chico,,,,
,,,,,,5eb0cb5afb9e2418da928edb,676192165fb32c2e1fb7aee6,67d1e801d7dcbca4f75a97ca,2025-03-12_14h01.18.642,Tarea de decisión léxica,2024.2.5,Win32,90.09009009,,,,,,,,,,,,,,,,,,,,,,,459.5767,460.6416,a,1,0.4008,1,460.6417,461.142,,,,,,296,MAS,NOWORD,DIS,150,goler,,la,,0.4008,,461.142,461.142,0.066666685,-0.200595256,0,0,0,,0,236,236,295,1,dolor,,,,
,,,,,,5eb0cb5afb9e2418da928edb,676192165fb32c2e1fb7aee6,67d1e801d7dcbca4f75a97ca,2025-03-12_14h01.18.642,Tarea de decisión léxica,2024.2.5,Win32,90.09009009,,,,,,,,,,,,,,,,,,,,,,,461.1431,462.364,l,1,0.5555,1,462.3641,462.8638,,,,,,157,MAS,WORD,AGR,150,nido,,el,,0.5555,,462.865,462.866,0.066666685,-0.200595256,0,0,0,,0,237,237,156,1,hico,,,,
,,,,,,5eb0cb5afb9e2418da928edb,676192165fb32c2e1fb7aee6,67d1e801d7dcbca4f75a97ca,2025-03-12_14h01.18.642,Tarea de decisión léxica,2024.2.5,Win32,90.09009009,,,,,,,,,,,,,,,,,,,,,,,462.8667,463.8859,a,0,0.356,0,463.8867,464.3868,,,,,,135,MAS,WORD,DIS,150,tubo,,la,,0.356,,464.3868,464.3869,0.066666685,-0.200595256,0,0,0,,0,238,238,134,1,geso,,,,
,,,,,,5eb0cb5afb9e2418da928edb,676192165fb32c2e1fb7aee6,67d1e801d7dcbca4f75a97ca,2025-03-12_14h01.18.642,Tarea de decisión léxica,2024.2.5,Win32,90.09009009,,,,,,,,,,,,,,,,,,,,,,,464.388,465.3637,l,1,0.3147,1,465.3642,465.8636,,,,,,27,MAS,WORD,DIS,150,baño,,la,,0.3147,,465.8637,465.8638,0.066666685,-0.200595256,0,0,0,,0,239,239,26,1,ravo,,,,
,,,,,,5eb0cb5afb9e2418da928edb,676192165fb32c2e1fb7aee6,67d1e801d7dcbca4f75a97ca,2025-03-12_14h01.18.642,Tarea de decisión léxica,2024.2.5,Win32,90.09009009,,,,,,,,,,,,,,,,,,,,,,,465.865,466.9191,l,1,0.3897,1,466.9193,467.4195,,,,,,475,FEM,WORD,DIS,150,manta,,el,,0.3897,,467.4196,467.4196,0.066666685,-0.200595256,0,0,0,,0,240,240,474,1,mucta,,,,
,,,,,,5eb0cb5afb9e2418da928edb,676192165fb32c2e1fb7aee6,67d1e801d7dcbca4f75a97ca,2025-03-12_14h01.18.642,Tarea de decisión léxica,2024.2.5,Win32,90.09009009,,,,,,,,,,,,,,,,,,,,,,,467.4205,468.7749,l,1,0.6903,1,468.7749,469.2749,,,,,,191,FEM,WORD,DIS,150,pila,,el,,0.6903,,469.2749,469.275,0.066666685,-0.200595256,0,0,0,,0,241,241,190,1,bila,,,,
,,,,,,5eb0cb5afb9e2418da928edb,676192165fb32c2e1fb7aee6,67d1e801d7dcbca4f75a97ca,2025-03-12_14h01.18.642,Tarea de decisión léxica,2024.2.5,Win32,90.09009009,,,,,,,,,,,,,,,,,,,,,,,469.276,470.3862,a,1,0.4464,1,470.3863,470.8861,,,,,,130,MAS,NOWORD,AGR,150,pima,,el,,0.4464,,470.8869,470.8875,0.066666685,-0.200595256,0,0,0,,0,242,242,129,1,oído,,,,
,,,,,,5eb0cb5afb9e2418da928edb,676192165fb32c2e1fb7aee6,67d1e801d7dcbca4f75a97ca,2025-03-12_14h01.18.642,Tarea de decisión léxica,2024.2.5,Win32,90.09009009,,,,,,,,,,,,,,,,,,,,,,,470.8881,471.9419,l,1,0.3894,1,471.942,472.4418,,,,,,187,MAS,WORD,DIS,150,mito,,la,,0.3894,,472.4418,472.4419,0.066666685,-0.200595256,0,0,0,,0,243,243,186,1,suto,,,,
,,,,,,5eb0cb5afb9e2418da928edb,676192165fb32c2e1fb7aee6,67d1e801d7dcbca4f75a97ca,2025-03-12_14h01.18.642,Tarea de decisión léxica,2024.2.5,Win32,90.09009009,,,,,,,,,,,,,,,,,,,,,,,472.4426,473.6529,a,0,0.5447,0,473.6536,474.1527,,,,,,175,FEM,WORD,DIS,150,goma,,el,,0.5447,,474.1528,474.1528,0.066666685,-0.200595256,0,0,0,,0,244,244,174,1,hosa,,,,
,,,,,,5eb0cb5afb9e2418da928edb,676192165fb32c2e1fb7aee6,67d1e801d7dcbca4f75a97ca,2025-03-12_14h01.18.642,Tarea de decisión léxica,2024.2.5,Win32,90.09009009,,,,,,,,,,,,,,,,,,,,,,,474.1536,475.5751,a,1,0.7552,1,475.5757,476.0751,,,,,,38,MAS,NOWORD,AGR,150,gaco,,el,,0.7552,,476.0751,476.0752,0.066666685,-0.200595256,0,0,0,,0,245,245,37,1,rato,,,,
,,,,,,5eb0cb5afb9e2418da928edb,676192165fb32c2e1fb7aee6,67d1e801d7dcbca4f75a97ca,2025-03-12_14h01.18.642,Tarea de decisión léxica,2024.2.5,Win32,90.09009009,,,,,,,,,,,,,,,,,,,,,,,476.076,477.1972,a,1,0.4576,1,477.1973,477.697,,,,,,464,FEM,NOWORD,DIS,150,matla,,el,,0.4576,,477.6971,477.6971,0.066666685,-0.200595256,0,0,0,,0,246,246,463,1,cabra,,,,
,,,,,,5eb0cb5afb9e2418da928edb,676192165fb32c2e1fb7aee6,67d1e801d7dcbca4f75a97ca,2025-03-12_14h01.18.642,Tarea de decisión léxica,2024.2.5,Win32,90.09009009,,,,,,,,,,,,,,,,,,,,,,,477.6978,478.7528,a,1,0.3898,1,478.7529,479.2527,,,,,,44,FEM,NOWORD,DIS,150,meda,,el,,0.3898,,479.2533,479.2538,0.066666685,-0.200595256,0,0,0,,0,247,247,43,1,pena,,,,
,,,,,,5eb0cb5afb9e2418da928edb,676192165fb32c2e1fb7aee6,67d1e801d7dcbca4f75a97ca,2025-03-12_14h01.18.642,Tarea de decisión léxica,2024.2.5,Win32,90.09009009,,,,,,,,,,,,,,,,,,,,,,,479.2543,480.197,l,1,0.2822,1,480.1971,480.6973,,,,,,393,FEM,WORD,AGR,150,aldea,,la,,0.2822,,480.6973,480.6974,0.066666685,-0.200595256,0,0,0,,0,248,248,392,1,ashea,,,,
,,,,,,5eb0cb5afb9e2418da928edb,676192165fb32c2e1fb7aee6,67d1e801d7dcbca4f75a97ca,2025-03-12_14h01.18.642,Tarea de decisión léxica,2024.2.5,Win32,90.09009009,,,,,,,,,,,,,,,,,,,,,,,480.698,481.6859,l,1,0.3226,1,481.6859,482.1865,,,,,,327,MAS,WORD,DIS,150,fondo,,la,,0.3226,,482.1865,482.1866,0.066666685,-0.200595256,0,0,0,,0,249,249,326,1,lendo,,,,
,,,,,,5eb0cb5afb9e2418da928edb,676192165fb32c2e1fb7aee6,67d1e801d7dcbca4f75a97ca,2025-03-12_14h01.18.642,Tarea de decisión léxica,2024.2.5,Win32,90.09009009,,,,,,,,,,,,,,,,,,,,,,,482.1878,483.2863,a,1,0.4358,1,483.2864,483.7863,,,,,,240,MAS,NOWORD,DIS,150,poño,,la,,0.4358,,483.7863,483.7864,0.066666685,-0.200595256,0,0,0,,0,250,250,239,1,mozo,,,,
,,,,,,5eb0cb5afb9e2418da928edb,676192165fb32c2e1fb7aee6,67d1e801d7dcbca4f75a97ca,2025-03-12_14h01.18.642,Tarea de decisión léxica,2024.2.5,Win32,90.09009009,,,,,,,,,,,,,,,,,,,,,,,483.7871,484.7198,l,1,0.267,1,484.7199,485.2196,,,,,,383,FEM,WORD,DIS,150,frase,,el,,0.267,,485.2205,485.221,0.066666685,-0.200595256,0,0,0,,0,251,251,382,1,brame,,,,
,,,,,,5eb0cb5afb9e2418da928edb,676192165fb32c2e1fb7aee6,67d1e801d7dcbca4f75a97ca,2025-03-12_14h01.18.642,Tarea de decisión léxica,2024.2.5,Win32,90.09009009,,,,,,,,,,,,,,,,,,,,,,,485.2216,486.1748,l,1,0.2906,1,486.1749,486.6751,,,,,,211,FEM,WORD,DIS,150,joya,,el,,0.2906,,486.6751,486.6751,0.066666685,-0.200595256,0,0,0,,0,252,252,210,1,joad,,,,
,,,,,,5eb0cb5afb9e2418da928edb,676192165fb32c2e1fb7aee6,67d1e801d7dcbca4f75a97ca,2025-03-12_14h01.18.642,Tarea de decisión léxica,2024.2.5,Win32,90.09009009,,,,,,,,,,,,,,,,,,,,,,,486.6761,487.7528,a,1,0.4109,1,487.7528,488.253,,,,,,290,FEM,NOWORD,AGR,150,bumpa,,la,,0.4109,,488.2531,488.2531,0.066666685,-0.200595256,0,0,0,,0,253,253,289,1,bomba,,,,
,,,,,,5eb0cb5afb9e2418da928edb,676192165fb32c2e1fb7aee6,67d1e801d7dcbca4f75a97ca,2025-03-12_14h01.18.642,Tarea de decisión léxica,2024.2.5,Win32,90.09009009,,,,,,,,,,,,,,,,,,,,,,,488.2543,489.3419,a,1,0.4225,1,489.3419,489.8415,,,,,,346,FEM,NOWORD,AGR,150,anera,,la,,0.4225,,489.8415,489.8417,0.066666685,-0.200595256,0,0,0,,0,254,254,345,1,arena,,,,
,,,,,,5eb0cb5afb9e2418da928edb,676192165fb32c2e1fb7aee6,67d1e801d7dcbca4f75a97ca,2025-03-12_14h01.18.642,Tarea de decisión léxica,2024.2.5,Win32,90.09009009,,,,,,,,,,,,,,,,,,,,,,,489.8427,490.9418,l,1,0.4356,1,490.9418,491.4419,,,,,,79,FEM,WORD,DIS,150,piel,,el,,0.4356,,491.442,491.4421,0.066666685,-0.200595256,0,0,0,,0,255,255,78,1,ciel,,,,
,,,,,,5eb0cb5afb9e2418da928edb,676192165fb32c2e1fb7aee6,67d1e801d7dcbca4f75a97ca,2025-03-12_14h01.18.642,Tarea de decisión léxica,2024.2.5,Win32,90.09009009,,,,,,,,,,,,,,,,,,,,,,,491.4432,492.4638,l,1,0.3611,1,492.4638,492.9642,,,,,,427,FEM,WORD,DIS,150,oreja,,el,,0.3611,,492.9654,492.9663,0.066666685,-0.200595256,0,0,0,,0,256,256,426,1,oseva,,,,
,,,,,,5eb0cb5afb9e2418da928edb,676192165fb32c2e1fb7aee6,67d1e801d7dcbca4f75a97ca,2025-03-12_14h01.18.642,Tarea de decisión léxica,2024.2.5,Win32,90.09009009,,,,,,,,,,,,,,,,,,,,,,,492.9671,493.9417,l,1,0.3117,1,493.9418,494.4417,,,,,,397,FEM,WORD,AGR,150,tribu,,la,,0.3117,,494.4417,494.4418,0.066666685,-0.200595256,0,0,0,,0,257,257,396,1,trigi,,,,
,,,,,,5eb0cb5afb9e2418da928edb,676192165fb32c2e1fb7aee6,67d1e801d7dcbca4f75a97ca,2025-03-12_14h01.18.642,Tarea de decisión léxica,2024.2.5,Win32,90.09009009,,,,,,,,,,,,,,,,,,,,,,,494.443,495.4087,l,1,0.3009,1,495.4088,495.9083,,,,,,395,FEM,WORD,DIS,150,caída,,el,,0.3009,,495.9084,495.9084,0.066666685,-0.200595256,0,0,0,,0,258,258,394,1,paeda,,,,
,,,,,,5eb0cb5afb9e2418da928edb,676192165fb32c2e1fb7aee6,67d1e801d7dcbca4f75a97ca,2025-03-12_14h01.18.642,Tarea de decisión léxica,2024.2.5,Win32,90.09009009,,,,,,,,,,,,,,,,,,,,,,,495.9091,496.9754,l,1,0.4006,1,496.9756,497.4752,,,,,,471,FEM,WORD,DIS,150,grasa,,el,,0.4006,,497.4752,497.4753,0.066666685,-0.200595256,0,0,0,,0,259,259,470,1,prana,,,,
,,,,,,5eb0cb5afb9e2418da928edb,676192165fb32c2e1fb7aee6,67d1e801d7dcbca4f75a97ca,2025-03-12_14h01.18.642,Tarea de decisión léxica,2024.2.5,Win32,90.09009009,,,,,,,,,,,,,,,,,,,,,,,497.476,498.5309,l,1,0.3901,1,498.531,499.0308,,,,,,341,MAS,WORD,AGR,150,valor,,el,,0.3901,,499.0308,499.0309,0.066666685,-0.200595256,0,0,0,,0,260,260,340,1,daror,,,,
,,,,,,5eb0cb5afb9e2418da928edb,676192165fb32c2e1fb7aee6,67d1e801d7dcbca4f75a97ca,2025-03-12_14h01.18.642,Tarea de decisión léxica,2024.2.5,Win32,90.09009009,,,,,,,,,,,,,,,,,,,,,,,499.0319,499.9974,l,0,0.3002,0,499.9982,500.4974,,,,,,404,FEM,NOWORD,DIS,150,grisa,,el,,0.3002,,500.4983,500.4988,0.066666685,-0.200595256,0,0,0,,0,261,261,403,1,prima,,,,
,,,,,,5eb0cb5afb9e2418da928edb,676192165fb32c2e1fb7aee6,67d1e801d7dcbca4f75a97ca,2025-03-12_14h01.18.642,Tarea de decisión léxica,2024.2.5,Win32,90.09009009,,,,,,,,,,,,,,,,,,,,,,,500.4994,501.8417,a,1,0.6828,1,501.8422,502.3417,,,,,,238,MAS,NOWORD,AGR,150,huco,,el,,0.6828,,502.3417,502.3417,0.066666685,-0.200595256,0,0,0,,0,262,262,237,1,nudo,,,,
,,,,,,5eb0cb5afb9e2418da928edb,676192165fb32c2e1fb7aee6,67d1e801d7dcbca4f75a97ca,2025-03-12_14h01.18.642,Tarea de decisión léxica,2024.2.5,Win32,90.09009009,,,,,,,,,,,,,,,,,,,,,,,502.3425,503.4419,l,1,0.4342,1,503.4419,503.9419,,,,,,271,FEM,WORD,DIS,150,señal,,el,,0.4342,,503.942,503.9421,0.066666685,-0.200595256,0,0,0,,0,263,263,270,1,refal,,,,
,,,,,,5eb0cb5afb9e2418da928edb,676192165fb32c2e1fb7aee6,67d1e801d7dcbca4f75a97ca,2025-03-12_14h01.18.642,Tarea de decisión léxica,2024.2.5,Win32,90.09009009,,,,,,,,,,,,,,,,,,,,,,,503.9429,504.9862,l,1,0.3786,1,504.9863,505.4863,,,,,,249,FEM,WORD,AGR,150,clase,,la,,0.3786,,505.4863,505.4864,0.066666685,-0.200595256,0,0,0,,0,264,264,248,1,plane,,,,
