counterbalancing_condition,consent_prescreening.block_1/declare_consent,consent_prescreening.block_1/age_years,consent_prescreening.block_1/gender,consent_prescreening.block_1/language_disorder,consent_prescreening.block_1/first_language,PROLIFIC_PID,STUDY_ID,SESSION_ID,date,expName,psychopyVersion,OS,frameRate,check_prescreening_answers.started,check_prescreening_answers.stopped,Instructions.started,Instructions.stopped,instr_done_keyboard.keys,instr_done_keyboard.rt,instr_done_keyboard.duration,instr_done_touch.x,instr_done_touch.y,instr_done_touch.leftButton,instr_done_touch.midButton,instr_done_touch.rightButton,instruction_pages.thisRepN,instruction_pages.thisTrialN,instruction_pages.thisN,instruction_pages.thisIndex,instruction_pages.ran,pageN,phase,instruct_text,has_image,instruct_image,presentTrial.started,presentTrial.stopped,response.keys,response.corr,rt,corr,feedback.started,feedback.stopped,practice_trials.thisRepN,practice_trials.thisTrialN,practice_trials.thisN,practice_trials.thisIndex,practice_trials.ran,TrialID,Gender,StimulusType,Condition,PrimeDuration,Prime,len,Flanker,corrAns,response.rt,response.duration,Break.started,Break.stopped,break_done_touch.x,break_done_touch.y,break_done_touch.leftButton,break_done_touch.midButton,break_done_touch.rightButton,break_done_keyboard.keys,experiment_trials.thisRepN,experiment_trials.thisTrialN,experiment_trials.thisN,experiment_trials.thisIndex,experiment_trials.ran,PairedWith,break_done_keyboard.rt,break_done_keyboard.duration,End.started,End.stopped
1,"[""over_18"",""comfortable"",""read_info"",""consent_given""]",26,M,"[""none""]","[""spanish""]",5ede78997dfcae0df3dedd9b,676192165fb32c2e1fb7aee6,67d172a53bb4312f534da168,2025-03-12_12h40.35.649,Tarea de decisión léxica,2024.2.5,Win32,59.88023952,,,,,,,,,,,,,,,,,,,,,,,,,,,,,,,,,,,,,,,,,,,,,,,,,,,,,,,,,,,,,,,,
,,,,,,5ede78997dfcae0df3dedd9b,676192165fb32c2e1fb7aee6,67d172a53bb4312f534da168,2025-03-12_12h40.35.649,Tarea de decisión léxica,2024.2.5,Win32,59.88023952,16.0138,16.0139,,,,,,,,,,,,,,,,,,,,,,,,,,,,,,,,,,,,,,,,,,,,,,,,,,,,,,,,,,,,,,
,,,,,,5ede78997dfcae0df3dedd9b,676192165fb32c2e1fb7aee6,67d172a53bb4312f534da168,2025-03-12_12h40.35.649,Tarea de decisión léxica,2024.2.5,Win32,59.88023952,,,16.0261,18.8271,space,2.7704,,0.142592593,-0.117592593,0,0,0,0,0,0,0,1,1,instructions,"INSTRUCCIONES
Va a realizar una prueba de decisión léxica. Desde el comienzo de la prueba mire siempre al centro de la pantalla. Se presentará una serie de cadenas de letras, una a la vez, en la pantalla. Su tarea consiste en determinar si cada cadena de letras constituye una palabra real en español o una no-palabra (una secuencia de letras que no constituye una palabra real). 

Pulse la tecla ESPACIO para continuar.",0,keyboardresponseNW.png,,,,,,,,,,,,,,,,,,,,,,,,,,,,,,,,,,,,,,,,,,
,,,,,,5ede78997dfcae0df3dedd9b,676192165fb32c2e1fb7aee6,67d172a53bb4312f534da168,2025-03-12_12h40.35.649,Tarea de decisión léxica,2024.2.5,Win32,59.88023952,,,18.829,28.87,space,10.0304,,0.142592593,-0.117592593,0,0,0,0,1,1,1,1,2,instructions,"El procedimiento es el siguiente: Aparecerán dos barras verticales posicionadas en el centro de la pantalla, separadas por un pequeño espacio.Por favor, enfoque su atención en el espacio entre las barras. Esto preparará sus ojos para la siguiente cadena de letras, que aparecerá entre las dos barras durante un instante.

Pulse la tecla ESPACIO para continuar.",0,keyboardresponseNW.png,,,,,,,,,,,,,,,,,,,,,,,,,,,,,,,,,,,,,,,,,,
,,,,,,5ede78997dfcae0df3dedd9b,676192165fb32c2e1fb7aee6,67d172a53bb4312f534da168,2025-03-12_12h40.35.649,Tarea de decisión léxica,2024.2.5,Win32,59.88023952,,,28.8715,31.656,space,2.7534,,0.142592593,-0.117592593,0,0,0,0,2,2,2,1,3,instructions,"En el teclado de su dispositivo, pulse la tecla ""L"" si la cadena de letras es una palabra real en español (por ejemplo: ""mano"") y la tecla ""A"" si la cadena de letras es una no-palabra (por ejemplo: ""minu"").
Pulse la tecla ESPACIO para continuar.",1,keyboardresponseNW.png,,,,,,,,,,,,,,,,,,,,,,,,,,,,,,,,,,,,,,,,,,
,,,,,,5ede78997dfcae0df3dedd9b,676192165fb32c2e1fb7aee6,67d172a53bb4312f534da168,2025-03-12_12h40.35.649,Tarea de decisión léxica,2024.2.5,Win32,59.88023952,,,31.6576,33.5912,space,1.9093,,0.142592593,-0.117592593,0,0,0,0,3,3,3,1,4,instructions,"Es muy importante que responda con la mayor rapidez y precisión posibles. Si no responde dentro de 2 segundos, aparecerá el mensaje ""Muy lento"" y el experimento pasará a la siguiente palabra. Inmediatamente después de su respuesta se indicará si fue correcta o no. Los primeros 15 intentos serán de práctica y habrá dos descansos durante la prueba.

Pulse la tecla ESPACIO  para iniciar la parte de práctica.",0,keyboardresponseNW.png,,,,,,,,,,,,,,,,,,,,,,,,,,,,,,,,,,,,,,,,,,
,,,,,,5ede78997dfcae0df3dedd9b,676192165fb32c2e1fb7aee6,67d172a53bb4312f534da168,2025-03-12_12h40.35.649,Tarea de decisión léxica,2024.2.5,Win32,59.88023952,,,,,,,,,,,,,,,,,,,,,,,33.6019,36.244,,0,,-1,36.2442,36.7444,0,0,0,0,1,1001,FEM,NOWORD,AGR,150,croz,4,la,a,,,,,,,,,,,,,,,,,,,,
,,,,,,5ede78997dfcae0df3dedd9b,676192165fb32c2e1fb7aee6,67d172a53bb4312f534da168,2025-03-12_12h40.35.649,Tarea de decisión léxica,2024.2.5,Win32,59.88023952,,,,,,,,,,,,,,,,,,,,,,,36.7456,39.1134,a,1,1.7034,1,39.1175,39.6139,0,1,1,2,1,1003,FEM,NOWORD,DIS,150,muvor,5,el,a,1.7034,,,,,,,,,,,,,,,,,,,
,,,,,,5ede78997dfcae0df3dedd9b,676192165fb32c2e1fb7aee6,67d172a53bb4312f534da168,2025-03-12_12h40.35.649,Tarea de decisión léxica,2024.2.5,Win32,59.88023952,,,,,,,,,,,,,,,,,,,,,,,39.6146,40.8485,l,1,0.5716,1,40.8486,41.3489,0,2,2,6,1,1007,MAS,WORD,DIS,150,masa,4,la,l,0.5716,,,,,,,,,,,,,,,,,,,
,,,,,,5ede78997dfcae0df3dedd9b,676192165fb32c2e1fb7aee6,67d172a53bb4312f534da168,2025-03-12_12h40.35.649,Tarea de decisión léxica,2024.2.5,Win32,59.88023952,,,,,,,,,,,,,,,,,,,,,,,41.3496,42.6503,l,1,0.6343,1,42.6504,43.154,0,3,3,5,1,1006,FEM,WORD,AGR,150,cara,4,la,l,0.6343,,,,,,,,,,,,,,,,,,,
,,,,,,5ede78997dfcae0df3dedd9b,676192165fb32c2e1fb7aee6,67d172a53bb4312f534da168,2025-03-12_12h40.35.649,Tarea de decisión léxica,2024.2.5,Win32,59.88023952,,,,,,,,,,,,,,,,,,,,,,,43.1549,44.4687,a,1,0.6381,1,44.4687,44.9691,0,4,4,3,1,1004,FEM,NOWORD,AGR,150,bireo,5,la,a,0.6381,,,,,,,,,,,,,,,,,,,
,,,,,,5ede78997dfcae0df3dedd9b,676192165fb32c2e1fb7aee6,67d172a53bb4312f534da168,2025-03-12_12h40.35.649,Tarea de decisión léxica,2024.2.5,Win32,59.88023952,,,,,,,,,,,,,,,,,,,,,,,44.9699,46.2372,l,1,0.6007,1,46.2372,46.7376,0,5,5,8,1,1009,FEM,WORD,AGR,150,viejo,5,la,l,0.6007,,,,,,,,,,,,,,,,,,,
,,,,,,5ede78997dfcae0df3dedd9b,676192165fb32c2e1fb7aee6,67d172a53bb4312f534da168,2025-03-12_12h40.35.649,Tarea de decisión léxica,2024.2.5,Win32,59.88023952,,,,,,,,,,,,,,,,,,,,,,,46.7382,48.0723,a,1,0.6675,1,48.0723,48.5728,0,6,6,1,1,1002,FEM,NOWORD,DIS,150,mabo,4,el,a,0.6675,,,,,,,,,,,,,,,,,,,
,,,,,,5ede78997dfcae0df3dedd9b,676192165fb32c2e1fb7aee6,67d172a53bb4312f534da168,2025-03-12_12h40.35.649,Tarea de decisión léxica,2024.2.5,Win32,59.88023952,,,,,,,,,,,,,,,,,,,,,,,48.5736,49.7072,l,1,0.4798,1,49.7072,50.2078,0,7,7,9,1,1010,MAS,WORD,DIS,150,video,5,la,l,0.4798,,,,,,,,,,,,,,,,,,,
,,,,,,5ede78997dfcae0df3dedd9b,676192165fb32c2e1fb7aee6,67d172a53bb4312f534da168,2025-03-12_12h40.35.649,Tarea de decisión léxica,2024.2.5,Win32,59.88023952,,,,,,,,,,,,,,,,,,,,,,,50.2086,51.5591,a,1,0.6842,1,51.5592,52.0596,0,8,8,4,1,1005,MAS,NOWORD,DIS,150,nobad,5,la,a,0.6842,,,,,,,,,,,,,,,,,,,
,,,,,,5ede78997dfcae0df3dedd9b,676192165fb32c2e1fb7aee6,67d172a53bb4312f534da168,2025-03-12_12h40.35.649,Tarea de decisión léxica,2024.2.5,Win32,59.88023952,,,,,,,,,,,,,,,,,,,,,,,52.0605,53.1274,l,1,0.3943,1,53.1274,53.6278,0,9,9,7,1,1008,MAS,WORD,DIS,150,frío,4,la,l,0.3943,,,,,,,,,,,,,,,,,,,
,,,,,,5ede78997dfcae0df3dedd9b,676192165fb32c2e1fb7aee6,67d172a53bb4312f534da168,2025-03-12_12h40.35.649,Tarea de decisión léxica,2024.2.5,Win32,59.88023952,,,54.7638,55.5131,space,0.7175,,0.142592593,-0.117592593,0,0,0,,,,,,,,,,,55.5384,56.8477,a,1,0.6341,1,56.8478,57.3482,,,,,,364,FEM,NOWORD,DIS,150,veida,,el,,0.6341,,57.3485,57.3506,0.142592593,-0.117592593,0,0,0,,0,0,0,363,1,deuda,,,,
,,,,,,5ede78997dfcae0df3dedd9b,676192165fb32c2e1fb7aee6,67d172a53bb4312f534da168,2025-03-12_12h40.35.649,Tarea de decisión léxica,2024.2.5,Win32,59.88023952,,,,,,,,,,,,,,,,,,,,,,,57.3513,58.4827,l,1,0.4635,1,58.4828,58.9832,,,,,,327,MAS,WORD,DIS,150,fondo,,la,,0.4635,,58.9832,58.9833,0.142592593,-0.117592593,0,0,0,,0,1,1,326,1,lendo,,,,
,,,,,,5ede78997dfcae0df3dedd9b,676192165fb32c2e1fb7aee6,67d172a53bb4312f534da168,2025-03-12_12h40.35.649,Tarea de decisión léxica,2024.2.5,Win32,59.88023952,,,,,,,,,,,,,,,,,,,,,,,58.9839,60.1844,a,1,0.5384,1,60.1844,60.6848,,,,,,172,MAS,NOWORD,DIS,150,niro,,la,,0.5384,,60.6856,60.6861,0.142592593,-0.117592593,0,0,0,,0,2,2,171,1,hilo,,,,
,,,,,,5ede78997dfcae0df3dedd9b,676192165fb32c2e1fb7aee6,67d172a53bb4312f534da168,2025-03-12_12h40.35.649,Tarea de decisión léxica,2024.2.5,Win32,59.88023952,,,,,,,,,,,,,,,,,,,,,,,60.6864,61.9528,a,1,0.589,1,61.9528,62.4532,,,,,,386,FEM,NOWORD,AGR,150,febra,,la,,0.589,,62.4534,62.4534,0.142592593,-0.117592593,0,0,0,,0,3,3,385,1,letra,,,,
,,,,,,5ede78997dfcae0df3dedd9b,676192165fb32c2e1fb7aee6,67d172a53bb4312f534da168,2025-03-12_12h40.35.649,Tarea de decisión léxica,2024.2.5,Win32,59.88023952,,,,,,,,,,,,,,,,,,,,,,,62.4543,63.788,l,0,0.6742,0,63.7888,64.2884,,,,,,374,FEM,NOWORD,AGR,150,pogza,,la,,0.6742,,64.2885,64.2885,0.142592593,-0.117592593,0,0,0,,0,4,4,373,1,pizza,,,,
,,,,,,5ede78997dfcae0df3dedd9b,676192165fb32c2e1fb7aee6,67d172a53bb4312f534da168,2025-03-12_12h40.35.649,Tarea de decisión léxica,2024.2.5,Win32,59.88023952,,,,,,,,,,,,,,,,,,,,,,,64.2892,65.4563,l,1,0.5011,1,65.4567,65.9568,,,,,,129,MAS,WORD,AGR,150,oído,,el,,0.5011,,65.9568,65.9569,0.142592593,-0.117592593,0,0,0,,0,5,5,128,1,pima,,,,
,,,,,,5ede78997dfcae0df3dedd9b,676192165fb32c2e1fb7aee6,67d172a53bb4312f534da168,2025-03-12_12h40.35.649,Tarea de decisión léxica,2024.2.5,Win32,59.88023952,,,,,,,,,,,,,,,,,,,,,,,65.9574,67.3582,a,1,0.7368,1,67.3583,67.8587,,,,,,370,MAS,NOWORD,AGR,150,rioco,,el,,0.7368,,67.8588,67.8589,0.142592593,-0.117592593,0,0,0,,0,6,6,369,1,ruido,,,,
,,,,,,5ede78997dfcae0df3dedd9b,676192165fb32c2e1fb7aee6,67d172a53bb4312f534da168,2025-03-12_12h40.35.649,Tarea de decisión léxica,2024.2.5,Win32,59.88023952,,,,,,,,,,,,,,,,,,,,,,,67.8596,69.0933,a,1,0.5768,1,69.0933,69.5938,,,,,,292,FEM,NOWORD,DIS,150,mesta,,el,,0.5768,,69.5945,69.5947,0.142592593,-0.117592593,0,0,0,,0,7,7,291,1,pista,,,,
,,,,,,5ede78997dfcae0df3dedd9b,676192165fb32c2e1fb7aee6,67d172a53bb4312f534da168,2025-03-12_12h40.35.649,Tarea de decisión léxica,2024.2.5,Win32,59.88023952,,,,,,,,,,,,,,,,,,,,,,,69.5952,71.162,a,1,0.8845,1,71.162,71.6624,,,,,,164,FEM,NOWORD,DIS,150,laga,,el,,0.8845,,71.6625,71.6626,0.142592593,-0.117592593,0,0,0,,0,8,8,163,1,fama,,,,
,,,,,,5ede78997dfcae0df3dedd9b,676192165fb32c2e1fb7aee6,67d172a53bb4312f534da168,2025-03-12_12h40.35.649,Tarea de decisión léxica,2024.2.5,Win32,59.88023952,,,,,,,,,,,,,,,,,,,,,,,71.6631,73.0806,a,1,0.7509,1,73.0806,73.5811,,,,,,316,FEM,NOWORD,DIS,150,riosa,,el,,0.7509,,73.5811,73.5812,0.142592593,-0.117592593,0,0,0,,0,9,9,315,1,reina,,,,
,,,,,,5ede78997dfcae0df3dedd9b,676192165fb32c2e1fb7aee6,67d172a53bb4312f534da168,2025-03-12_12h40.35.649,Tarea de decisión léxica,2024.2.5,Win32,59.88023952,,,,,,,,,,,,,,,,,,,,,,,73.5817,74.799,a,1,0.5545,1,74.799,75.2995,,,,,,346,FEM,NOWORD,AGR,150,anera,,la,,0.5545,,75.2995,75.2996,0.142592593,-0.117592593,0,0,0,,0,10,10,345,1,arena,,,,
,,,,,,5ede78997dfcae0df3dedd9b,676192165fb32c2e1fb7aee6,67d172a53bb4312f534da168,2025-03-12_12h40.35.649,Tarea de decisión léxica,2024.2.5,Win32,59.88023952,,,,,,,,,,,,,,,,,,,,,,,75.3,76.5507,l,1,0.5852,1,76.5508,77.0511,,,,,,179,MAS,WORD,DIS,150,toro,,la,,0.5852,,77.052,77.0524,0.142592593,-0.117592593,0,0,0,,0,11,11,178,1,sono,,,,
,,,,,,5ede78997dfcae0df3dedd9b,676192165fb32c2e1fb7aee6,67d172a53bb4312f534da168,2025-03-12_12h40.35.649,Tarea de decisión léxica,2024.2.5,Win32,59.88023952,,,,,,,,,,,,,,,,,,,,,,,77.0527,78.8029,l,1,1.0707,1,78.803,79.3034,,,,,,353,FEM,WORD,DIS,150,celda,,el,,1.0707,,79.3034,79.3034,0.142592593,-0.117592593,0,0,0,,0,12,12,352,1,cezca,,,,
,,,,,,5ede78997dfcae0df3dedd9b,676192165fb32c2e1fb7aee6,67d172a53bb4312f534da168,2025-03-12_12h40.35.649,Tarea de decisión léxica,2024.2.5,Win32,59.88023952,,,,,,,,,,,,,,,,,,,,,,,79.304,80.5546,a,1,0.588,1,80.5548,81.0551,,,,,,200,MAS,NOWORD,DIS,150,fano,,la,,0.588,,81.0552,81.0552,0.142592593,-0.117592593,0,0,0,,0,13,13,199,1,lazo,,,,
,,,,,,5ede78997dfcae0df3dedd9b,676192165fb32c2e1fb7aee6,67d172a53bb4312f534da168,2025-03-12_12h40.35.649,Tarea de decisión léxica,2024.2.5,Win32,59.88023952,,,,,,,,,,,,,,,,,,,,,,,81.0558,82.2063,l,1,0.4945,1,82.2064,82.7069,,,,,,301,FEM,WORD,AGR,150,banda,,la,,0.4945,,82.7069,82.707,0.142592593,-0.117592593,0,0,0,,0,14,14,300,1,ranga,,,,
,,,,,,5ede78997dfcae0df3dedd9b,676192165fb32c2e1fb7aee6,67d172a53bb4312f534da168,2025-03-12_12h40.35.649,Tarea de decisión léxica,2024.2.5,Win32,59.88023952,,,,,,,,,,,,,,,,,,,,,,,82.7075,84.1082,l,1,0.7357,1,84.1082,84.6087,,,,,,475,FEM,WORD,AGR,150,manta,,la,,0.7357,,84.6087,84.6087,0.142592593,-0.117592593,0,0,0,,0,15,15,474,1,mucta,,,,
,,,,,,5ede78997dfcae0df3dedd9b,676192165fb32c2e1fb7aee6,67d172a53bb4312f534da168,2025-03-12_12h40.35.649,Tarea de decisión léxica,2024.2.5,Win32,59.88023952,,,,,,,,,,,,,,,,,,,,,,,84.6093,85.8099,a,1,0.534,1,85.81,86.3104,,,,,,114,FEM,NOWORD,AGR,150,tada,,la,,0.534,,86.3111,86.3114,0.142592593,-0.117592593,0,0,0,,0,16,16,113,1,miel,,,,
,,,,,,5ede78997dfcae0df3dedd9b,676192165fb32c2e1fb7aee6,67d172a53bb4312f534da168,2025-03-12_12h40.35.649,Tarea de decisión léxica,2024.2.5,Win32,59.88023952,,,,,,,,,,,,,,,,,,,,,,,86.3119,87.4782,l,1,0.4894,1,87.4783,87.9786,,,,,,317,FEM,WORD,DIS,150,playa,,el,,0.4894,,87.9787,87.9787,0.142592593,-0.117592593,0,0,0,,0,17,17,316,1,plaad,,,,
,,,,,,5ede78997dfcae0df3dedd9b,676192165fb32c2e1fb7aee6,67d172a53bb4312f534da168,2025-03-12_12h40.35.649,Tarea de decisión léxica,2024.2.5,Win32,59.88023952,,,,,,,,,,,,,,,,,,,,,,,87.9794,89.1299,a,1,0.4858,1,89.13,89.6303,,,,,,204,FEM,NOWORD,DIS,150,beja,,el,,0.4858,,89.6304,89.6304,0.142592593,-0.117592593,0,0,0,,0,18,18,203,1,leña,,,,
,,,,,,5ede78997dfcae0df3dedd9b,676192165fb32c2e1fb7aee6,67d172a53bb4312f534da168,2025-03-12_12h40.35.649,Tarea de decisión léxica,2024.2.5,Win32,59.88023952,,,,,,,,,,,,,,,,,,,,,,,89.631,91.8493,l,1,1.5533,1,91.8493,92.3498,,,,,,169,MAS,WORD,AGR,150,cubo,,el,,1.5533,,92.3498,92.3499,0.142592593,-0.117592593,0,0,0,,0,19,19,168,1,mibo,,,,
,,,,,,5ede78997dfcae0df3dedd9b,676192165fb32c2e1fb7aee6,67d172a53bb4312f534da168,2025-03-12_12h40.35.649,Tarea de decisión léxica,2024.2.5,Win32,59.88023952,,,,,,,,,,,,,,,,,,,,,,,92.3503,93.6176,l,1,0.6099,1,93.6178,94.1181,,,,,,193,FEM,WORD,DIS,150,loca,,el,,0.6099,,94.1182,94.1183,0.142592593,-0.117592593,0,0,0,,0,20,20,192,1,foda,,,,
,,,,,,5ede78997dfcae0df3dedd9b,676192165fb32c2e1fb7aee6,67d172a53bb4312f534da168,2025-03-12_12h40.35.649,Tarea de decisión léxica,2024.2.5,Win32,59.88023952,,,,,,,,,,,,,,,,,,,,,,,94.1188,95.2192,l,1,0.4197,1,95.2192,95.7197,,,,,,61,FEM,WORD,AGR,150,obra,,la,,0.4197,,95.7204,95.7208,0.142592593,-0.117592593,0,0,0,,0,21,21,60,1,efla,,,,
,,,,,,5ede78997dfcae0df3dedd9b,676192165fb32c2e1fb7aee6,67d172a53bb4312f534da168,2025-03-12_12h40.35.649,Tarea de decisión léxica,2024.2.5,Win32,59.88023952,,,,,,,,,,,,,,,,,,,,,,,95.7212,96.921,l,1,0.5261,1,96.921,97.4215,,,,,,391,MAS,WORD,AGR,150,dueño,,el,,0.5261,,97.4215,97.4216,0.142592593,-0.117592593,0,0,0,,0,22,22,390,1,dievo,,,,
,,,,,,5ede78997dfcae0df3dedd9b,676192165fb32c2e1fb7aee6,67d172a53bb4312f534da168,2025-03-12_12h40.35.649,Tarea de decisión léxica,2024.2.5,Win32,59.88023952,,,,,,,,,,,,,,,,,,,,,,,97.4221,98.8395,l,0,0.7514,0,98.84,99.34,,,,,,326,FEM,NOWORD,AGR,150,mabia,,la,,0.7514,,99.34,99.34,0.142592593,-0.117592593,0,0,0,,0,23,23,325,1,magia,,,,
,,,,,,5ede78997dfcae0df3dedd9b,676192165fb32c2e1fb7aee6,67d172a53bb4312f534da168,2025-03-12_12h40.35.649,Tarea de decisión léxica,2024.2.5,Win32,59.88023952,,,,,,,,,,,,,,,,,,,,,,,99.3408,100.5245,a,1,0.5295,1,100.5249,101.025,,,,,,154,MAS,NOWORD,AGR,150,tado,,el,,0.5295,,101.025,101.0251,0.142592593,-0.117592593,0,0,0,,0,24,24,153,1,pato,,,,
,,,,,,5ede78997dfcae0df3dedd9b,676192165fb32c2e1fb7aee6,67d172a53bb4312f534da168,2025-03-12_12h40.35.649,Tarea de decisión léxica,2024.2.5,Win32,59.88023952,,,,,,,,,,,,,,,,,,,,,,,101.0257,102.5098,l,1,0.8176,1,102.5099,103.0103,,,,,,139,MAS,WORD,DIS,150,mago,,la,,0.8176,,103.0103,103.0104,0.142592593,-0.117592593,0,0,0,,0,25,25,138,1,nila,,,,
,,,,,,5ede78997dfcae0df3dedd9b,676192165fb32c2e1fb7aee6,67d172a53bb4312f534da168,2025-03-12_12h40.35.649,Tarea de decisión léxica,2024.2.5,Win32,59.88023952,,,,,,,,,,,,,,,,,,,,,,,103.011,104.4117,l,1,0.7411,1,104.4117,104.9122,,,,,,239,MAS,WORD,AGR,150,mozo,,el,,0.7411,,104.913,104.9133,0.142592593,-0.117592593,0,0,0,,0,26,26,238,1,poño,,,,
,,,,,,5ede78997dfcae0df3dedd9b,676192165fb32c2e1fb7aee6,67d172a53bb4312f534da168,2025-03-12_12h40.35.649,Tarea de decisión léxica,2024.2.5,Win32,59.88023952,,,,,,,,,,,,,,,,,,,,,,,104.9137,106.08,a,1,0.4672,1,106.0801,106.5805,,,,,,48,MAS,NOWORD,DIS,150,chub,,la,,0.4672,,106.5805,106.5806,0.142592593,-0.117592593,0,0,0,,0,27,27,47,1,club,,,,
,,,,,,5ede78997dfcae0df3dedd9b,676192165fb32c2e1fb7aee6,67d172a53bb4312f534da168,2025-03-12_12h40.35.649,Tarea de decisión léxica,2024.2.5,Win32,59.88023952,,,,,,,,,,,,,,,,,,,,,,,106.5812,107.5649,l,1,0.3189,1,107.5649,108.0654,,,,,,99,MAS,WORD,AGR,150,lobo,,el,,0.3189,,108.0654,108.0654,0.142592593,-0.117592593,0,0,0,,0,28,28,98,1,soro,,,,
,,,,,,5ede78997dfcae0df3dedd9b,676192165fb32c2e1fb7aee6,67d172a53bb4312f534da168,2025-03-12_12h40.35.649,Tarea de decisión léxica,2024.2.5,Win32,59.88023952,,,,,,,,,,,,,,,,,,,,,,,108.0659,109.1665,l,1,0.4413,1,109.1665,109.667,,,,,,425,FEM,WORD,AGR,150,viuda,,la,,0.4413,,109.667,109.667,0.142592593,-0.117592593,0,0,0,,0,29,29,424,1,virca,,,,
,,,,,,5ede78997dfcae0df3dedd9b,676192165fb32c2e1fb7aee6,67d172a53bb4312f534da168,2025-03-12_12h40.35.649,Tarea de decisión léxica,2024.2.5,Win32,59.88023952,,,,,,,,,,,,,,,,,,,,,,,109.6676,110.7849,l,1,0.4555,1,110.785,111.2853,,,,,,205,FEM,WORD,DIS,150,rana,,el,,0.4555,,111.2853,111.2854,0.142592593,-0.117592593,0,0,0,,0,30,30,204,1,bara,,,,
,,,,,,5ede78997dfcae0df3dedd9b,676192165fb32c2e1fb7aee6,67d172a53bb4312f534da168,2025-03-12_12h40.35.649,Tarea de decisión léxica,2024.2.5,Win32,59.88023952,,,,,,,,,,,,,,,,,,,,,,,111.2859,112.3363,l,1,0.3922,1,112.3364,112.8368,,,,,,463,FEM,WORD,AGR,150,cabra,,la,,0.3922,,112.8376,112.8379,0.142592593,-0.117592593,0,0,0,,0,31,31,462,1,matla,,,,
,,,,,,5ede78997dfcae0df3dedd9b,676192165fb32c2e1fb7aee6,67d172a53bb4312f534da168,2025-03-12_12h40.35.649,Tarea de decisión léxica,2024.2.5,Win32,59.88023952,,,,,,,,,,,,,,,,,,,,,,,112.8382,113.8378,l,1,0.3249,1,113.8379,114.3416,,,,,,411,MAS,WORD,AGR,150,pollo,,el,,0.3249,,114.3416,114.3417,0.142592593,-0.117592593,0,0,0,,0,32,32,410,1,mobro,,,,
,,,,,,5ede78997dfcae0df3dedd9b,676192165fb32c2e1fb7aee6,67d172a53bb4312f534da168,2025-03-12_12h40.35.649,Tarea de decisión léxica,2024.2.5,Win32,59.88023952,,,,,,,,,,,,,,,,,,,,,,,114.3422,115.2726,l,0,0.2503,0,115.273,115.7731,,,,,,26,FEM,NOWORD,AGR,150,paza,,la,,0.2503,,115.7731,115.7731,0.142592593,-0.117592593,0,0,0,,0,33,33,25,1,cama,,,,
,,,,,,5ede78997dfcae0df3dedd9b,676192165fb32c2e1fb7aee6,67d172a53bb4312f534da168,2025-03-12_12h40.35.649,Tarea de decisión léxica,2024.2.5,Win32,59.88023952,,,,,,,,,,,,,,,,,,,,,,,115.7737,117.0743,a,1,0.6404,1,117.0749,117.5748,,,,,,310,FEM,NOWORD,AGR,150,tirra,,la,,0.6404,,117.5748,117.5749,0.142592593,-0.117592593,0,0,0,,0,34,34,309,1,silla,,,,
,,,,,,5ede78997dfcae0df3dedd9b,676192165fb32c2e1fb7aee6,67d172a53bb4312f534da168,2025-03-12_12h40.35.649,Tarea de decisión léxica,2024.2.5,Win32,59.88023952,,,,,,,,,,,,,,,,,,,,,,,117.5754,118.8261,a,1,0.5938,1,118.8262,119.3266,,,,,,390,MAS,NOWORD,AGR,150,cenco,,el,,0.5938,,119.3274,119.3276,0.142592593,-0.117592593,0,0,0,,0,35,35,389,1,cerdo,,,,
,,,,,,5ede78997dfcae0df3dedd9b,676192165fb32c2e1fb7aee6,67d172a53bb4312f534da168,2025-03-12_12h40.35.649,Tarea de decisión léxica,2024.2.5,Win32,59.88023952,,,,,,,,,,,,,,,,,,,,,,,119.328,120.728,l,1,0.7175,1,120.728,121.2285,,,,,,217,MAS,WORD,DIS,150,luto,,la,,0.7175,,121.2285,121.2286,0.142592593,-0.117592593,0,0,0,,0,36,36,216,1,budo,,,,
,,,,,,5ede78997dfcae0df3dedd9b,676192165fb32c2e1fb7aee6,67d172a53bb4312f534da168,2025-03-12_12h40.35.649,Tarea de decisión léxica,2024.2.5,Win32,59.88023952,,,,,,,,,,,,,,,,,,,,,,,121.2292,122.4297,a,1,0.547,1,122.4297,122.9302,,,,,,436,MAS,NOWORD,DIS,150,ricno,,la,,0.547,,122.9302,122.9303,0.142592593,-0.117592593,0,0,0,,0,37,37,435,1,ritmo,,,,
,,,,,,5ede78997dfcae0df3dedd9b,676192165fb32c2e1fb7aee6,67d172a53bb4312f534da168,2025-03-12_12h40.35.649,Tarea de decisión léxica,2024.2.5,Win32,59.88023952,,,,,,,,,,,,,,,,,,,,,,,122.9309,124.2315,a,1,0.6423,1,124.2315,124.732,,,,,,408,FEM,NOWORD,DIS,150,cauba,,el,,0.6423,,124.7321,124.7321,0.142592593,-0.117592593,0,0,0,,0,38,38,407,1,cueva,,,,
,,,,,,5ede78997dfcae0df3dedd9b,676192165fb32c2e1fb7aee6,67d172a53bb4312f534da168,2025-03-12_12h40.35.649,Tarea de decisión léxica,2024.2.5,Win32,59.88023952,,,,,,,,,,,,,,,,,,,,,,,124.7328,125.8497,l,1,0.4557,1,125.8498,126.3502,,,,,,449,FEM,WORD,AGR,150,pluma,,la,,0.4557,,126.3503,126.3504,0.142592593,-0.117592593,0,0,0,,0,39,39,448,1,crusa,,,,
,,,,,,5ede78997dfcae0df3dedd9b,676192165fb32c2e1fb7aee6,67d172a53bb4312f534da168,2025-03-12_12h40.35.649,Tarea de decisión léxica,2024.2.5,Win32,59.88023952,,,,,,,,,,,,,,,,,,,,,,,126.3509,127.5682,a,0,0.5507,0,127.5686,128.0687,,,,,,321,MAS,WORD,AGR,150,banco,,el,,0.5507,,128.0694,128.0697,0.142592593,-0.117592593,0,0,0,,0,40,40,320,1,rarco,,,,
,,,,,,5ede78997dfcae0df3dedd9b,676192165fb32c2e1fb7aee6,67d172a53bb4312f534da168,2025-03-12_12h40.35.649,Tarea de decisión léxica,2024.2.5,Win32,59.88023952,,,,,,,,,,,,,,,,,,,,,,,128.0701,129.1697,l,1,0.4252,1,129.1702,129.6703,,,,,,419,MAS,WORD,DIS,150,truco,,la,,0.4252,,129.6703,129.6704,0.142592593,-0.117592593,0,0,0,,0,41,41,418,1,chudo,,,,
,,,,,,5ede78997dfcae0df3dedd9b,676192165fb32c2e1fb7aee6,67d172a53bb4312f534da168,2025-03-12_12h40.35.649,Tarea de decisión léxica,2024.2.5,Win32,59.88023952,,,,,,,,,,,,,,,,,,,,,,,129.6709,130.7212,l,1,0.3924,1,130.7213,131.2217,,,,,,303,MAS,WORD,AGR,150,barco,,el,,0.3924,,131.2218,131.2219,0.142592593,-0.117592593,0,0,0,,0,42,42,302,1,lanco,,,,
,,,,,,5ede78997dfcae0df3dedd9b,676192165fb32c2e1fb7aee6,67d172a53bb4312f534da168,2025-03-12_12h40.35.649,Tarea de decisión léxica,2024.2.5,Win32,59.88023952,,,,,,,,,,,,,,,,,,,,,,,131.2224,132.3229,l,1,0.4447,1,132.323,132.8234,,,,,,471,FEM,WORD,AGR,150,grasa,,la,,0.4447,,132.8234,132.8234,0.142592593,-0.117592593,0,0,0,,0,43,43,470,1,prana,,,,
,,,,,,5ede78997dfcae0df3dedd9b,676192165fb32c2e1fb7aee6,67d172a53bb4312f534da168,2025-03-12_12h40.35.649,Tarea de decisión léxica,2024.2.5,Win32,59.88023952,,,,,,,,,,,,,,,,,,,,,,,132.824,133.8911,a,1,0.4111,1,133.8912,134.3915,,,,,,358,FEM,NOWORD,AGR,150,gruba,,la,,0.4111,,134.3916,134.3916,0.142592593,-0.117592593,0,0,0,,0,44,44,357,1,bruja,,,,
,,,,,,5ede78997dfcae0df3dedd9b,676192165fb32c2e1fb7aee6,67d172a53bb4312f534da168,2025-03-12_12h40.35.649,Tarea de decisión léxica,2024.2.5,Win32,59.88023952,,,,,,,,,,,,,,,,,,,,,,,134.3923,135.476,a,1,0.4239,1,135.4761,135.9766,,,,,,152,MAS,NOWORD,DIS,150,sogo,,la,,0.4239,,135.9773,135.9776,0.142592593,-0.117592593,0,0,0,,0,45,45,151,1,tomo,,,,
,,,,,,5ede78997dfcae0df3dedd9b,676192165fb32c2e1fb7aee6,67d172a53bb4312f534da168,2025-03-12_12h40.35.649,Tarea de decisión léxica,2024.2.5,Win32,59.88023952,,,,,,,,,,,,,,,,,,,,,,,135.978,137.1109,a,1,0.4524,1,137.111,137.6115,,,,,,214,FEM,NOWORD,AGR,150,bana,,la,,0.4524,,137.6115,137.6115,0.142592593,-0.117592593,0,0,0,,0,46,46,213,1,rama,,,,
,,,,,,5ede78997dfcae0df3dedd9b,676192165fb32c2e1fb7aee6,67d172a53bb4312f534da168,2025-03-12_12h40.35.649,Tarea de decisión léxica,2024.2.5,Win32,59.88023952,,,,,,,,,,,,,,,,,,,,,,,137.6121,138.6958,l,1,0.4172,1,138.696,139.1964,,,,,,81,FEM,WORD,AGR,150,dama,,la,,0.4172,,139.1964,139.1965,0.142592593,-0.117592593,0,0,0,,0,47,47,80,1,vasa,,,,
,,,,,,5ede78997dfcae0df3dedd9b,676192165fb32c2e1fb7aee6,67d172a53bb4312f534da168,2025-03-12_12h40.35.649,Tarea de decisión léxica,2024.2.5,Win32,59.88023952,,,,,,,,,,,,,,,,,,,,,,,139.197,140.2474,l,1,0.3963,1,140.2475,140.7479,,,,,,55,MAS,WORD,AGR,150,gato,,el,,0.3963,,140.7479,140.7481,0.142592593,-0.117592593,0,0,0,,0,48,48,54,1,jado,,,,
,,,,,,5ede78997dfcae0df3dedd9b,676192165fb32c2e1fb7aee6,67d172a53bb4312f534da168,2025-03-12_12h40.35.649,Tarea de decisión léxica,2024.2.5,Win32,59.88023952,,,,,,,,,,,,,,,,,,,,,,,140.7486,142.0159,a,1,0.6136,1,142.0159,142.5163,,,,,,68,FEM,NOWORD,DIS,150,gesa,,el,,0.6136,,142.5164,142.5164,0.142592593,-0.117592593,0,0,0,,0,49,49,67,1,nena,,,,
,,,,,,5ede78997dfcae0df3dedd9b,676192165fb32c2e1fb7aee6,67d172a53bb4312f534da168,2025-03-12_12h40.35.649,Tarea de decisión léxica,2024.2.5,Win32,59.88023952,,,,,,,,,,,,,,,,,,,,,,,142.517,143.6341,a,1,0.4531,1,143.6342,144.1346,,,,,,424,MAS,NOWORD,DIS,150,quigo,,la,,0.4531,,144.1352,144.1356,0.142592593,-0.117592593,0,0,0,,0,50,50,423,1,queso,,,,
,,,,,,5ede78997dfcae0df3dedd9b,676192165fb32c2e1fb7aee6,67d172a53bb4312f534da168,2025-03-12_12h40.35.649,Tarea de decisión léxica,2024.2.5,Win32,59.88023952,,,,,,,,,,,,,,,,,,,,,,,144.1362,145.2691,l,1,0.4532,1,145.2692,145.7696,,,,,,89,MAS,WORD,AGR,150,humo,,el,,0.4532,,145.7696,145.7696,0.142592593,-0.117592593,0,0,0,,0,51,51,88,1,guso,,,,
,,,,,,5ede78997dfcae0df3dedd9b,676192165fb32c2e1fb7aee6,67d172a53bb4312f534da168,2025-03-12_12h40.35.649,Tarea de decisión léxica,2024.2.5,Win32,59.88023952,,,,,,,,,,,,,,,,,,,,,,,145.7702,146.8541,l,1,0.4301,1,146.8542,147.3546,,,,,,367,MAS,WORD,AGR,150,reloj,,el,,0.4301,,147.3546,147.3546,0.142592593,-0.117592593,0,0,0,,0,52,52,366,1,rerob,,,,
,,,,,,5ede78997dfcae0df3dedd9b,676192165fb32c2e1fb7aee6,67d172a53bb4312f534da168,2025-03-12_12h40.35.649,Tarea de decisión léxica,2024.2.5,Win32,59.88023952,,,,,,,,,,,,,,,,,,,,,,,147.3552,148.489,a,1,0.4731,1,148.4891,148.9895,,,,,,246,FEM,NOWORD,AGR,150,pafle,,la,,0.4731,,148.9895,148.9896,0.142592593,-0.117592593,0,0,0,,0,53,53,245,1,madre,,,,
,,,,,,5ede78997dfcae0df3dedd9b,676192165fb32c2e1fb7aee6,67d172a53bb4312f534da168,2025-03-12_12h40.35.649,Tarea de decisión léxica,2024.2.5,Win32,59.88023952,,,,,,,,,,,,,,,,,,,,,,,148.9901,150.0739,l,0,0.426,0,150.0744,150.5744,,,,,,336,FEM,NOWORD,DIS,150,pesta,,el,,0.426,,150.5744,150.5744,0.142592593,-0.117592593,0,0,0,,0,54,54,335,1,costa,,,,
,,,,,,5ede78997dfcae0df3dedd9b,676192165fb32c2e1fb7aee6,67d172a53bb4312f534da168,2025-03-12_12h40.35.649,Tarea de decisión léxica,2024.2.5,Win32,59.88023952,,,,,,,,,,,,,,,,,,,,,,,150.575,152.0091,a,1,0.7675,1,152.0096,152.5097,,,,,,16,FEM,NOWORD,DIS,150,odea,,el,,0.7675,,152.5104,152.5107,0.142592593,-0.117592593,0,0,0,,0,55,55,15,1,idea,,,,
,,,,,,5ede78997dfcae0df3dedd9b,676192165fb32c2e1fb7aee6,67d172a53bb4312f534da168,2025-03-12_12h40.35.649,Tarea de decisión léxica,2024.2.5,Win32,59.88023952,,,,,,,,,,,,,,,,,,,,,,,152.5113,153.7442,a,1,0.5508,1,153.7443,154.2447,,,,,,188,MAS,NOWORD,DIS,150,suto,,la,,0.5508,,154.2448,154.2449,0.142592593,-0.117592593,0,0,0,,0,56,56,187,1,mito,,,,
,,,,,,5ede78997dfcae0df3dedd9b,676192165fb32c2e1fb7aee6,67d172a53bb4312f534da168,2025-03-12_12h40.35.649,Tarea de decisión léxica,2024.2.5,Win32,59.88023952,,,,,,,,,,,,,,,,,,,,,,,154.2454,155.2457,a,1,0.3222,1,155.2458,155.7462,,,,,,170,MAS,NOWORD,AGR,150,mibo,,el,,0.3222,,155.7463,155.7463,0.142592593,-0.117592593,0,0,0,,0,57,57,169,1,cubo,,,,
,,,,,,5ede78997dfcae0df3dedd9b,676192165fb32c2e1fb7aee6,67d172a53bb4312f534da168,2025-03-12_12h40.35.649,Tarea de decisión léxica,2024.2.5,Win32,59.88023952,,,,,,,,,,,,,,,,,,,,,,,155.7468,156.864,l,1,0.4339,1,156.8641,157.3645,,,,,,257,FEM,WORD,AGR,150,amiga,,la,,0.4339,,157.3645,157.3645,0.142592593,-0.117592593,0,0,0,,0,58,58,256,1,asama,,,,
,,,,,,5ede78997dfcae0df3dedd9b,676192165fb32c2e1fb7aee6,67d172a53bb4312f534da168,2025-03-12_12h40.35.649,Tarea de decisión léxica,2024.2.5,Win32,59.88023952,,,,,,,,,,,,,,,,,,,,,,,157.3651,158.4989,l,1,0.4672,1,158.499,158.9995,,,,,,11,MAS,WORD,DIS,150,lado,,la,,0.4672,,159.0001,159.0006,0.142592593,-0.117592593,0,0,0,,0,59,59,10,1,bapo,,,,
,,,,,,5ede78997dfcae0df3dedd9b,676192165fb32c2e1fb7aee6,67d172a53bb4312f534da168,2025-03-12_12h40.35.649,Tarea de decisión léxica,2024.2.5,Win32,59.88023952,,,,,,,,,,,,,,,,,,,,,,,159.001,160.0672,l,1,0.4066,1,160.0673,160.5676,,,,,,247,FEM,WORD,AGR,150,chica,,la,,0.4066,,160.5677,160.5677,0.142592593,-0.117592593,0,0,0,,0,60,60,246,1,trida,,,,
,,,,,,5ede78997dfcae0df3dedd9b,676192165fb32c2e1fb7aee6,67d172a53bb4312f534da168,2025-03-12_12h40.35.649,Tarea de decisión léxica,2024.2.5,Win32,59.88023952,,,,,,,,,,,,,,,,,,,,,,,160.5683,161.6354,a,1,0.4128,1,161.6354,162.1359,,,,,,10,MAS,NOWORD,AGR,150,sibo,,el,,0.4128,,162.1359,162.136,0.142592593,-0.117592593,0,0,0,,0,61,61,9,1,tipo,,,,
,,,,,,5ede78997dfcae0df3dedd9b,676192165fb32c2e1fb7aee6,67d172a53bb4312f534da168,2025-03-12_12h40.35.649,Tarea de decisión léxica,2024.2.5,Win32,59.88023952,,,,,,,,,,,,,,,,,,,,,,,162.1365,163.3872,a,1,0.5876,1,163.3872,163.8877,,,,,,176,FEM,NOWORD,DIS,150,hosa,,el,,0.5876,,163.8877,163.8878,0.142592593,-0.117592593,0,0,0,,0,62,62,175,1,goma,,,,
,,,,,,5ede78997dfcae0df3dedd9b,676192165fb32c2e1fb7aee6,67d172a53bb4312f534da168,2025-03-12_12h40.35.649,Tarea de decisión léxica,2024.2.5,Win32,59.88023952,,,,,,,,,,,,,,,,,,,,,,,163.8884,164.972,l,1,0.4229,1,164.9721,165.4726,,,,,,199,MAS,WORD,AGR,150,lazo,,el,,0.4229,,165.4726,165.4727,0.142592593,-0.117592593,0,0,0,,0,63,63,198,1,fano,,,,
,,,,,,5ede78997dfcae0df3dedd9b,676192165fb32c2e1fb7aee6,67d172a53bb4312f534da168,2025-03-12_12h40.35.649,Tarea de decisión léxica,2024.2.5,Win32,59.88023952,,,,,,,,,,,,,,,,,,,,,,,165.4732,166.557,a,0,0.42,0,166.5574,167.0575,,,,,,297,MAS,WORD,DIS,150,grupo,,la,,0.42,,167.058,167.0584,0.142592593,-0.117592593,0,0,0,,0,64,64,296,1,brubo,,,,
,,,,,,5ede78997dfcae0df3dedd9b,676192165fb32c2e1fb7aee6,67d172a53bb4312f534da168,2025-03-12_12h40.35.649,Tarea de decisión léxica,2024.2.5,Win32,59.88023952,,,,,,,,,,,,,,,,,,,,,,,167.0587,168.1585,l,1,0.4263,1,168.159,168.6591,,,,,,407,FEM,WORD,AGR,150,cueva,,la,,0.4263,,168.6591,168.6591,0.142592593,-0.117592593,0,0,0,,0,65,65,406,1,cauba,,,,
,,,,,,5ede78997dfcae0df3dedd9b,676192165fb32c2e1fb7aee6,67d172a53bb4312f534da168,2025-03-12_12h40.35.649,Tarea de decisión léxica,2024.2.5,Win32,59.88023952,,,,,,,,,,,,,,,,,,,,,,,168.6597,169.8769,l,1,0.5545,1,169.877,170.3774,,,,,,413,FEM,WORD,DIS,150,rueda,,el,,0.5545,,170.3775,170.3775,0.142592593,-0.117592593,0,0,0,,0,66,66,412,1,bieda,,,,
,,,,,,5ede78997dfcae0df3dedd9b,676192165fb32c2e1fb7aee6,67d172a53bb4312f534da168,2025-03-12_12h40.35.649,Tarea de decisión léxica,2024.2.5,Win32,59.88023952,,,,,,,,,,,,,,,,,,,,,,,170.3781,171.562,l,1,0.5175,1,171.5621,172.0624,,,,,,415,FEM,WORD,AGR,150,jaula,,la,,0.5175,,172.0625,172.0626,0.142592593,-0.117592593,0,0,0,,0,67,67,414,1,juira,,,,
,,,,,,5ede78997dfcae0df3dedd9b,676192165fb32c2e1fb7aee6,67d172a53bb4312f534da168,2025-03-12_12h40.35.649,Tarea de decisión léxica,2024.2.5,Win32,59.88023952,,,,,,,,,,,,,,,,,,,,,,,172.0632,173.0301,l,1,0.3021,1,173.0302,173.5306,,,,,,403,FEM,WORD,AGR,150,prima,,la,,0.3021,,173.5306,173.5307,0.142592593,-0.117592593,0,0,0,,0,68,68,402,1,grisa,,,,
,,,,,,5ede78997dfcae0df3dedd9b,676192165fb32c2e1fb7aee6,67d172a53bb4312f534da168,2025-03-12_12h40.35.649,Tarea de decisión léxica,2024.2.5,Win32,59.88023952,,,,,,,,,,,,,,,,,,,,,,,173.5312,174.4649,l,1,0.2515,1,174.4649,174.9653,,,,,,117,MAS,WORD,DIS,150,palo,,la,,0.2515,,174.966,174.9663,0.142592593,-0.117592593,0,0,0,,0,69,69,116,1,movo,,,,
,,,,,,5ede78997dfcae0df3dedd9b,676192165fb32c2e1fb7aee6,67d172a53bb4312f534da168,2025-03-12_12h40.35.649,Tarea de decisión léxica,2024.2.5,Win32,59.88023952,,,,,,,,,,,,,,,,,,,,,,,174.9666,176.0665,l,1,0.4305,1,176.0666,176.5669,,,,,,141,FEM,WORD,AGR,150,cruz,,la,,0.4305,,176.567,176.5671,0.142592593,-0.117592593,0,0,0,,0,70,70,140,1,sina,,,,
,,,,,,5ede78997dfcae0df3dedd9b,676192165fb32c2e1fb7aee6,67d172a53bb4312f534da168,2025-03-12_12h40.35.649,Tarea de decisión léxica,2024.2.5,Win32,59.88023952,,,,,,,,,,,,,,,,,,,,,,,176.5678,177.8682,a,1,0.6355,1,177.8683,178.3688,,,,,,472,FEM,NOWORD,DIS,150,prana,,el,,0.6355,,178.3688,178.3688,0.142592593,-0.117592593,0,0,0,,0,71,71,471,1,grasa,,,,
,,,,,,5ede78997dfcae0df3dedd9b,676192165fb32c2e1fb7aee6,67d172a53bb4312f534da168,2025-03-12_12h40.35.649,Tarea de decisión léxica,2024.2.5,Win32,59.88023952,,,,,,,,,,,,,,,,,,,,,,,178.3694,179.62,a,1,0.5841,1,179.62,180.1204,,,,,,282,MAS,NOWORD,AGR,150,cauro,,el,,0.5841,,180.1204,180.1205,0.142592593,-0.117592593,0,0,0,,0,72,72,281,1,cielo,,,,
,,,,,,5ede78997dfcae0df3dedd9b,676192165fb32c2e1fb7aee6,67d172a53bb4312f534da168,2025-03-12_12h40.35.649,Tarea de decisión léxica,2024.2.5,Win32,59.88023952,,,,,,,,,,,,,,,,,,,,,,,180.1212,181.2716,l,1,0.493,1,181.2717,181.7722,,,,,,1,FEM,WORD,DIS,150,casa,,el,,0.493,,181.7722,181.7723,0.142592593,-0.117592593,0,0,0,,0,73,73,0,1,mada,,,,
,,,,,,5ede78997dfcae0df3dedd9b,676192165fb32c2e1fb7aee6,67d172a53bb4312f534da168,2025-03-12_12h40.35.649,Tarea de decisión léxica,2024.2.5,Win32,59.88023952,,,,,,,,,,,,,,,,,,,,,,,181.7728,182.9567,l,1,0.5236,1,182.9567,183.4572,,,,,,347,FEM,WORD,AGR,150,pieza,,la,,0.5236,,183.4578,183.4581,0.142592593,-0.117592593,0,0,0,,0,74,74,346,1,mueza,,,,
,,,,,,5ede78997dfcae0df3dedd9b,676192165fb32c2e1fb7aee6,67d172a53bb4312f534da168,2025-03-12_12h40.35.649,Tarea de decisión léxica,2024.2.5,Win32,59.88023952,,,,,,,,,,,,,,,,,,,,,,,183.4584,184.5249,l,1,0.3957,1,184.525,185.0253,,,,,,151,MAS,WORD,DIS,150,tomo,,la,,0.3957,,185.0254,185.0254,0.142592593,-0.117592593,0,0,0,,0,75,75,150,1,sogo,,,,
,,,,,,5ede78997dfcae0df3dedd9b,676192165fb32c2e1fb7aee6,67d172a53bb4312f534da168,2025-03-12_12h40.35.649,Tarea de decisión léxica,2024.2.5,Win32,59.88023952,,,,,,,,,,,,,,,,,,,,,,,185.026,186.1098,l,1,0.4253,1,186.1098,186.6102,,,,,,103,FEM,WORD,DIS,150,ruta,,el,,0.4253,,186.6103,186.6104,0.142592593,-0.117592593,0,0,0,,0,76,76,102,1,rova,,,,
,,,,,,5ede78997dfcae0df3dedd9b,676192165fb32c2e1fb7aee6,67d172a53bb4312f534da168,2025-03-12_12h40.35.649,Tarea de decisión léxica,2024.2.5,Win32,59.88023952,,,,,,,,,,,,,,,,,,,,,,,186.6109,187.9449,a,1,0.6675,1,187.945,188.4455,,,,,,438,FEM,NOWORD,AGR,150,glava,,la,,0.6675,,188.4455,188.4455,0.142592593,-0.117592593,0,0,0,,0,77,77,437,1,plaza,,,,
,,,,,,5ede78997dfcae0df3dedd9b,676192165fb32c2e1fb7aee6,67d172a53bb4312f534da168,2025-03-12_12h40.35.649,Tarea de decisión léxica,2024.2.5,Win32,59.88023952,,,,,,,,,,,,,,,,,,,,,,,188.4461,189.4131,l,1,0.2927,1,189.4132,189.9136,,,,,,147,FEM,WORD,DIS,150,hoja,,el,,0.2927,,189.9136,189.9136,0.142592593,-0.117592593,0,0,0,,0,78,78,146,1,pama,,,,
,,,,,,5ede78997dfcae0df3dedd9b,676192165fb32c2e1fb7aee6,67d172a53bb4312f534da168,2025-03-12_12h40.35.649,Tarea de decisión léxica,2024.2.5,Win32,59.88023952,,,,,,,,,,,,,,,,,,,,,,,189.9144,191.1481,l,1,0.5699,1,191.1482,191.6486,,,,,,331,MAS,WORD,DIS,150,éxito,,la,,0.5699,,191.6493,191.6496,0.142592593,-0.117592593,0,0,0,,0,79,79,330,1,erato,,,,
,,,,,,5ede78997dfcae0df3dedd9b,676192165fb32c2e1fb7aee6,67d172a53bb4312f534da168,2025-03-12_12h40.35.649,Tarea de decisión léxica,2024.2.5,Win32,59.88023952,,,,,,,,,,,,,,,,,,,,,,,191.6501,192.7998,a,1,0.4802,1,192.7998,193.3002,,,,,,268,MAS,NOWORD,DIS,150,figro,,la,,0.4802,,193.3003,193.3003,0.142592593,-0.117592593,0,0,0,,0,80,80,267,1,libro,,,,
,,,,,,5ede78997dfcae0df3dedd9b,676192165fb32c2e1fb7aee6,67d172a53bb4312f534da168,2025-03-12_12h40.35.649,Tarea de decisión léxica,2024.2.5,Win32,59.88023952,,,,,,,,,,,,,,,,,,,,,,,193.301,194.6183,l,1,0.6543,1,194.6183,195.1188,,,,,,251,MAS,WORD,DIS,150,señor,,la,,0.6543,,195.1188,195.1188,0.142592593,-0.117592593,0,0,0,,0,81,81,250,1,refor,,,,
,,,,,,5ede78997dfcae0df3dedd9b,676192165fb32c2e1fb7aee6,67d172a53bb4312f534da168,2025-03-12_12h40.35.649,Tarea de decisión léxica,2024.2.5,Win32,59.88023952,,,,,,,,,,,,,,,,,,,,,,,195.1194,196.687,a,1,0.9127,1,196.687,197.1874,,,,,,102,MAS,NOWORD,AGR,150,gito,,el,,0.9127,,197.1875,197.1876,0.142592593,-0.117592593,0,0,0,,0,82,82,101,1,tono,,,,
,,,,,,5ede78997dfcae0df3dedd9b,676192165fb32c2e1fb7aee6,67d172a53bb4312f534da168,2025-03-12_12h40.35.649,Tarea de decisión léxica,2024.2.5,Win32,59.88023952,,,,,,,,,,,,,,,,,,,,,,,197.1882,198.322,l,1,0.475,1,198.3221,198.8224,,,,,,479,MAS,WORD,AGR,150,rumbo,,el,,0.475,,198.823,198.8234,0.142592593,-0.117592593,0,0,0,,0,83,83,478,1,rimpo,,,,
,,,,,,5ede78997dfcae0df3dedd9b,676192165fb32c2e1fb7aee6,67d172a53bb4312f534da168,2025-03-12_12h40.35.649,Tarea de decisión léxica,2024.2.5,Win32,59.88023952,,,,,,,,,,,,,,,,,,,,,,,198.8237,199.957,l,1,0.4534,1,199.957,200.4574,,,,,,69,FEM,WORD,DIS,150,zona,,el,,0.4534,,200.4574,200.4575,0.142592593,-0.117592593,0,0,0,,0,84,84,68,1,ñola,,,,
,,,,,,5ede78997dfcae0df3dedd9b,676192165fb32c2e1fb7aee6,67d172a53bb4312f534da168,2025-03-12_12h40.35.649,Tarea de decisión léxica,2024.2.5,Win32,59.88023952,,,,,,,,,,,,,,,,,,,,,,,200.458,201.6085,a,1,0.484,1,201.6086,202.1091,,,,,,216,FEM,NOWORD,DIS,150,raua,,el,,0.484,,202.1091,202.1091,0.142592593,-0.117592593,0,0,0,,0,85,85,215,1,raíz,,,,
,,,,,,5ede78997dfcae0df3dedd9b,676192165fb32c2e1fb7aee6,67d172a53bb4312f534da168,2025-03-12_12h40.35.649,Tarea de decisión léxica,2024.2.5,Win32,59.88023952,,,,,,,,,,,,,,,,,,,,,,,202.1096,203.0433,l,1,0.2764,1,203.0435,203.5439,,,,,,337,MAS,WORD,AGR,150,huevo,,el,,0.2764,,203.5439,203.5439,0.142592593,-0.117592593,0,0,0,,0,86,86,336,1,nuejo,,,,
,,,,,,5ede78997dfcae0df3dedd9b,676192165fb32c2e1fb7aee6,67d172a53bb4312f534da168,2025-03-12_12h40.35.649,Tarea de decisión léxica,2024.2.5,Win32,59.88023952,,,,,,,,,,,,,,,,,,,,,,,203.5445,204.6116,a,1,0.4027,1,204.6117,205.112,,,,,,396,FEM,NOWORD,DIS,150,paeda,,el,,0.4027,,205.112,205.112,0.142592593,-0.117592593,0,0,0,,0,87,87,395,1,caída,,,,
,,,,,,5ede78997dfcae0df3dedd9b,676192165fb32c2e1fb7aee6,67d172a53bb4312f534da168,2025-03-12_12h40.35.649,Tarea de decisión léxica,2024.2.5,Win32,59.88023952,,,,,,,,,,,,,,,,,,,,,,,205.1127,206.0129,l,0,0.2406,0,206.0134,206.5134,,,,,,36,MAS,NOWORD,DIS,150,meno,,la,,0.2406,,206.514,206.5144,0.142592593,-0.117592593,0,0,0,,0,88,88,35,1,pelo,,,,
,,,,,,5ede78997dfcae0df3dedd9b,676192165fb32c2e1fb7aee6,67d172a53bb4312f534da168,2025-03-12_12h40.35.649,Tarea de decisión léxica,2024.2.5,Win32,59.88023952,,,,,,,,,,,,,,,,,,,,,,,206.5147,207.5645,l,1,0.3765,1,207.5649,208.0649,,,,,,125,MAS,WORD,AGR,150,lujo,,el,,0.3765,,208.065,208.065,0.142592593,-0.117592593,0,0,0,,0,89,89,124,1,vudo,,,,
,,,,,,5ede78997dfcae0df3dedd9b,676192165fb32c2e1fb7aee6,67d172a53bb4312f534da168,2025-03-12_12h40.35.649,Tarea de decisión léxica,2024.2.5,Win32,59.88023952,,,,,,,,,,,,,,,,,,,,,,,208.0658,209.0326,l,1,0.3076,1,209.0327,209.5331,,,,,,145,MAS,WORD,DIS,150,león,,la,,0.3076,,209.5331,209.5332,0.142592593,-0.117592593,0,0,0,,0,90,90,144,1,nobo,,,,
,,,,,,5ede78997dfcae0df3dedd9b,676192165fb32c2e1fb7aee6,67d172a53bb4312f534da168,2025-03-12_12h40.35.649,Tarea de decisión léxica,2024.2.5,Win32,59.88023952,,,,,,,,,,,,,,,,,,,,,,,209.5337,210.4507,l,1,0.2525,1,210.4508,210.9512,,,,,,15,FEM,WORD,DIS,150,idea,,el,,0.2525,,210.9513,210.9513,0.142592593,-0.117592593,0,0,0,,0,91,91,14,1,odea,,,,
,,,,,,5ede78997dfcae0df3dedd9b,676192165fb32c2e1fb7aee6,67d172a53bb4312f534da168,2025-03-12_12h40.35.649,Tarea de decisión léxica,2024.2.5,Win32,59.88023952,,,,,,,,,,,,,,,,,,,,,,,210.952,212.0189,a,1,0.4084,1,212.0189,212.5194,,,,,,356,FEM,NOWORD,DIS,150,bepla,,el,,0.4084,,212.5194,212.5195,0.142592593,-0.117592593,0,0,0,,0,92,92,355,1,regla,,,,
,,,,,,5ede78997dfcae0df3dedd9b,676192165fb32c2e1fb7aee6,67d172a53bb4312f534da168,2025-03-12_12h40.35.649,Tarea de decisión léxica,2024.2.5,Win32,59.88023952,,,,,,,,,,,,,,,,,,,,,,,212.52,213.5538,l,0,0.3798,0,213.5542,214.0542,,,,,,402,MAS,NOWORD,AGR,150,pirvo,,el,,0.3798,,214.0549,214.0552,0.142592593,-0.117592593,0,0,0,,0,93,93,401,1,polvo,,,,
,,,,,,5ede78997dfcae0df3dedd9b,676192165fb32c2e1fb7aee6,67d172a53bb4312f534da168,2025-03-12_12h40.35.649,Tarea de decisión léxica,2024.2.5,Win32,59.88023952,,,,,,,,,,,,,,,,,,,,,,,214.0555,215.1387,l,1,0.4095,1,215.1391,215.6392,,,,,,39,MAS,WORD,AGR,150,voto,,el,,0.4095,,215.6392,215.6393,0.142592593,-0.117592593,0,0,0,,0,94,94,38,1,redo,,,,
,,,,,,5ede78997dfcae0df3dedd9b,676192165fb32c2e1fb7aee6,67d172a53bb4312f534da168,2025-03-12_12h40.35.649,Tarea de decisión léxica,2024.2.5,Win32,59.88023952,,,,,,,,,,,,,,,,,,,,,,,215.6398,216.8571,l,0,0.5507,0,216.8576,217.3575,,,,,,84,FEM,NOWORD,DIS,150,taga,,el,,0.5507,,217.3576,217.3576,0.142592593,-0.117592593,0,0,0,,0,95,95,83,1,bala,,,,
,,,,,,5ede78997dfcae0df3dedd9b,676192165fb32c2e1fb7aee6,67d172a53bb4312f534da168,2025-03-12_12h40.35.649,Tarea de decisión léxica,2024.2.5,Win32,59.88023952,,,,,,,,,,,,,,,,,,,,,,,217.3582,218.8424,l,1,0.8176,1,218.8433,219.3428,,,,,,395,FEM,WORD,AGR,150,caída,,la,,0.8176,,219.3428,219.3429,0.142592593,-0.117592593,0,0,0,,0,96,96,394,1,paeda,,,,
,,,,,,5ede78997dfcae0df3dedd9b,676192165fb32c2e1fb7aee6,67d172a53bb4312f534da168,2025-03-12_12h40.35.649,Tarea de decisión léxica,2024.2.5,Win32,59.88023952,,,,,,,,,,,,,,,,,,,,,,,219.3434,220.6776,l,1,0.6676,1,220.6776,221.1814,,,,,,451,FEM,WORD,DIS,150,fruta,,el,,0.6676,,221.1814,221.1814,0.142592593,-0.117592593,0,0,0,,0,97,97,450,1,clita,,,,
,,,,,,5ede78997dfcae0df3dedd9b,676192165fb32c2e1fb7aee6,67d172a53bb4312f534da168,2025-03-12_12h40.35.649,Tarea de decisión léxica,2024.2.5,Win32,59.88023952,,,,,,,,,,,,,,,,,,,,,,,221.182,222.2458,l,1,0.3908,1,222.2458,222.7463,,,,,,241,MAS,WORD,DIS,150,mundo,,la,,0.3908,,222.7468,222.7471,0.142592593,-0.117592593,0,0,0,,0,98,98,240,1,mirdo,,,,
,,,,,,5ede78997dfcae0df3dedd9b,676192165fb32c2e1fb7aee6,67d172a53bb4312f534da168,2025-03-12_12h40.35.649,Tarea de decisión léxica,2024.2.5,Win32,59.88023952,,,,,,,,,,,,,,,,,,,,,,,222.7475,223.9641,a,1,0.5376,1,223.9642,224.4647,,,,,,368,MAS,NOWORD,DIS,150,rerob,,la,,0.5376,,224.4647,224.4647,0.142592593,-0.117592593,0,0,0,,0,99,99,367,1,reloj,,,,
,,,,,,5ede78997dfcae0df3dedd9b,676192165fb32c2e1fb7aee6,67d172a53bb4312f534da168,2025-03-12_12h40.35.649,Tarea de decisión léxica,2024.2.5,Win32,59.88023952,,,,,,,,,,,,,,,,,,,,,,,224.4653,225.5324,l,1,0.4049,1,225.5324,226.0329,,,,,,351,MAS,WORD,AGR,150,vuelo,,el,,0.4049,,226.0329,226.0329,0.142592593,-0.117592593,0,0,0,,0,100,100,350,1,duepo,,,,
,,,,,,5ede78997dfcae0df3dedd9b,676192165fb32c2e1fb7aee6,67d172a53bb4312f534da168,2025-03-12_12h40.35.649,Tarea de decisión léxica,2024.2.5,Win32,59.88023952,,,,,,,,,,,,,,,,,,,,,,,226.0335,227.1507,a,1,0.4512,1,227.1507,227.6512,,,,,,448,MAS,NOWORD,DIS,150,buaso,,la,,0.4512,,227.6512,227.6512,0.142592593,-0.117592593,0,0,0,,0,101,101,447,1,bolso,,,,
,,,,,,5ede78997dfcae0df3dedd9b,676192165fb32c2e1fb7aee6,67d172a53bb4312f534da168,2025-03-12_12h40.35.649,Tarea de decisión léxica,2024.2.5,Win32,59.88023952,,,,,,,,,,,,,,,,,,,,,,,227.6518,228.7523,a,1,0.4339,1,228.7523,229.2527,,,,,,72,FEM,NOWORD,DIS,150,urla,,el,,0.4339,,229.2527,229.2528,0.142592593,-0.117592593,0,0,0,,0,102,102,71,1,isla,,,,
,,,,,,5ede78997dfcae0df3dedd9b,676192165fb32c2e1fb7aee6,67d172a53bb4312f534da168,2025-03-12_12h40.35.649,Tarea de decisión léxica,2024.2.5,Win32,59.88023952,,,,,,,,,,,,,,,,,,,,,,,229.2534,230.3705,l,1,0.4617,1,230.3705,230.871,,,,,,433,MAS,WORD,DIS,150,disco,,la,,0.4617,,230.8716,230.8719,0.142592593,-0.117592593,0,0,0,,0,103,103,432,1,durco,,,,
,,,,,,5ede78997dfcae0df3dedd9b,676192165fb32c2e1fb7aee6,67d172a53bb4312f534da168,2025-03-12_12h40.35.649,Tarea de decisión léxica,2024.2.5,Win32,59.88023952,,,,,,,,,,,,,,,,,,,,,,,230.8723,231.9554,a,1,0.4118,1,231.9555,232.4593,,,,,,210,MAS,NOWORD,AGR,150,dero,,el,,0.4118,,232.4593,232.4593,0.142592593,-0.117592593,0,0,0,,0,104,104,209,1,velo,,,,
,,,,,,5ede78997dfcae0df3dedd9b,676192165fb32c2e1fb7aee6,67d172a53bb4312f534da168,2025-03-12_12h40.35.649,Tarea de decisión léxica,2024.2.5,Win32,59.88023952,,,,,,,,,,,,,,,,,,,,,,,232.4599,233.6571,l,1,0.5173,1,233.6572,234.1576,,,,,,157,MAS,WORD,DIS,150,nido,,la,,0.5173,,234.1576,234.1577,0.142592593,-0.117592593,0,0,0,,0,105,105,156,1,hico,,,,
,,,,,,5ede78997dfcae0df3dedd9b,676192165fb32c2e1fb7aee6,67d172a53bb4312f534da168,2025-03-12_12h40.35.649,Tarea de decisión léxica,2024.2.5,Win32,59.88023952,,,,,,,,,,,,,,,,,,,,,,,234.1582,235.2755,a,1,0.459,1,235.2755,235.7759,,,,,,186,MAS,NOWORD,AGR,150,raol,,el,,0.459,,235.7759,235.776,0.142592593,-0.117592593,0,0,0,,0,106,106,185,1,baúl,,,,
,,,,,,5ede78997dfcae0df3dedd9b,676192165fb32c2e1fb7aee6,67d172a53bb4312f534da168,2025-03-12_12h40.35.649,Tarea de decisión léxica,2024.2.5,Win32,59.88023952,,,,,,,,,,,,,,,,,,,,,,,235.7766,236.8103,l,1,0.3686,1,236.8103,237.3108,,,,,,181,FEM,WORD,AGR,150,seda,,la,,0.3686,,237.3114,237.3117,0.142592593,-0.117592593,0,0,0,,0,107,107,180,1,teda,,,,
,,,,,,5ede78997dfcae0df3dedd9b,676192165fb32c2e1fb7aee6,67d172a53bb4312f534da168,2025-03-12_12h40.35.649,Tarea de decisión léxica,2024.2.5,Win32,59.88023952,,,,,,,,,,,,,,,,,,,,,,,237.312,238.3618,l,1,0.377,1,238.3619,238.8623,,,,,,421,MAS,WORD,AGR,150,primo,,el,,0.377,,238.8624,238.8624,0.142592593,-0.117592593,0,0,0,,0,108,108,420,1,griso,,,,
,,,,,,5ede78997dfcae0df3dedd9b,676192165fb32c2e1fb7aee6,67d172a53bb4312f534da168,2025-03-12_12h40.35.649,Tarea de decisión léxica,2024.2.5,Win32,59.88023952,,,,,,,,,,,,,,,,,,,,,,,238.863,239.8299,l,1,0.3051,1,239.83,240.3305,,,,,,29,MAS,WORD,DIS,150,modo,,la,,0.3051,,240.3305,240.3306,0.142592593,-0.117592593,0,0,0,,0,109,109,28,1,pono,,,,
,,,,,,5ede78997dfcae0df3dedd9b,676192165fb32c2e1fb7aee6,67d172a53bb4312f534da168,2025-03-12_12h40.35.649,Tarea de decisión léxica,2024.2.5,Win32,59.88023952,,,,,,,,,,,,,,,,,,,,,,,240.3311,241.3982,a,1,0.4011,1,241.3983,241.8987,,,,,,126,MAS,NOWORD,AGR,150,vudo,,el,,0.4011,,241.8988,241.8988,0.142592593,-0.117592593,0,0,0,,0,110,110,125,1,lujo,,,,
,,,,,,5ede78997dfcae0df3dedd9b,676192165fb32c2e1fb7aee6,67d172a53bb4312f534da168,2025-03-12_12h40.35.649,Tarea de decisión léxica,2024.2.5,Win32,59.88023952,,,,,,,,,,,,,,,,,,,,,,,241.8995,242.9331,l,1,0.3738,1,242.9331,243.4336,,,,,,185,MAS,WORD,AGR,150,baúl,,el,,0.3738,,243.4336,243.4336,0.142592593,-0.117592593,0,0,0,,0,111,111,184,1,raol,,,,
,,,,,,5ede78997dfcae0df3dedd9b,676192165fb32c2e1fb7aee6,67d172a53bb4312f534da168,2025-03-12_12h40.35.649,Tarea de decisión léxica,2024.2.5,Win32,59.88023952,,,,,,,,,,,,,,,,,,,,,,,243.4342,244.8184,l,0,0.7289,0,244.8189,245.3188,,,,,,90,MAS,NOWORD,AGR,150,guso,,el,,0.7289,,245.3194,245.3199,0.142592593,-0.117592593,0,0,0,,0,112,112,89,1,humo,,,,
,,,,,,5ede78997dfcae0df3dedd9b,676192165fb32c2e1fb7aee6,67d172a53bb4312f534da168,2025-03-12_12h40.35.649,Tarea de decisión léxica,2024.2.5,Win32,59.88023952,,,,,,,,,,,,,,,,,,,,,,,245.3203,246.3865,l,0,0.3839,0,246.3866,246.887,,,,,,444,MAS,NOWORD,DIS,150,taron,,la,,0.3839,,246.887,246.8871,0.142592593,-0.117592593,0,0,0,,0,113,113,443,1,salón,,,,
,,,,,,5ede78997dfcae0df3dedd9b,676192165fb32c2e1fb7aee6,67d172a53bb4312f534da168,2025-03-12_12h40.35.649,Tarea de decisión léxica,2024.2.5,Win32,59.88023952,,,,,,,,,,,,,,,,,,,,,,,246.8876,247.938,l,1,0.3906,1,247.9384,248.4386,,,,,,423,MAS,WORD,DIS,150,queso,,la,,0.3906,,248.4386,248.4386,0.142592593,-0.117592593,0,0,0,,0,114,114,422,1,quigo,,,,
,,,,,,5ede78997dfcae0df3dedd9b,676192165fb32c2e1fb7aee6,67d172a53bb4312f534da168,2025-03-12_12h40.35.649,Tarea de decisión léxica,2024.2.5,Win32,59.88023952,,,,,,,,,,,,,,,,,,,,,,,248.4392,249.523,a,1,0.4271,1,249.523,250.0235,,,,,,270,MAS,NOWORD,AGR,150,mello,,el,,0.4271,,250.0235,250.0235,0.142592593,-0.117592593,0,0,0,,0,115,115,269,1,perro,,,,
,,,,,,5ede78997dfcae0df3dedd9b,676192165fb32c2e1fb7aee6,67d172a53bb4312f534da168,2025-03-12_12h40.35.649,Tarea de decisión léxica,2024.2.5,Win32,59.88023952,,,,,,,,,,,,,,,,,,,,,,,250.024,251.1747,a,1,0.4902,1,251.1747,251.6753,,,,,,440,FEM,NOWORD,DIS,150,prema,,el,,0.4902,,251.6754,251.6754,0.142592593,-0.117592593,0,0,0,,0,116,116,439,1,presa,,,,
,,,,,,5ede78997dfcae0df3dedd9b,676192165fb32c2e1fb7aee6,67d172a53bb4312f534da168,2025-03-12_12h40.35.649,Tarea de decisión léxica,2024.2.5,Win32,59.88023952,,,,,,,,,,,,,,,,,,,,,,,251.676,252.7929,a,1,0.4594,1,252.7929,253.2934,,,,,,124,FEM,NOWORD,DIS,150,maba,,el,,0.4594,,253.2941,253.2946,0.142592593,-0.117592593,0,0,0,,0,117,117,123,1,flor,,,,
,,,,,,5ede78997dfcae0df3dedd9b,676192165fb32c2e1fb7aee6,67d172a53bb4312f534da168,2025-03-12_12h40.35.649,Tarea de decisión léxica,2024.2.5,Win32,59.88023952,,,,,,,,,,,,,,,,,,,,,,,253.295,254.628,a,1,0.6616,1,254.6281,255.132,,,,,,418,FEM,NOWORD,AGR,150,banja,,la,,0.6616,,255.1321,255.1321,0.142592593,-0.117592593,0,0,0,,0,118,118,417,1,barba,,,,
,,,,,,5ede78997dfcae0df3dedd9b,676192165fb32c2e1fb7aee6,67d172a53bb4312f534da168,2025-03-12_12h40.35.649,Tarea de decisión léxica,2024.2.5,Win32,59.88023952,,,,,,,,,,,,,,,,,,,,,,,255.1326,256.1629,l,1,0.3534,1,256.163,256.6633,,,,,,249,FEM,WORD,DIS,150,clase,,el,,0.3534,,256.6634,256.6634,0.142592593,-0.117592593,0,0,0,,0,119,119,248,1,plane,,,,
,,,,,,5ede78997dfcae0df3dedd9b,676192165fb32c2e1fb7aee6,67d172a53bb4312f534da168,2025-03-12_12h40.35.649,Tarea de decisión léxica,2024.2.5,Win32,59.88023952,,,,,,,,,,,,,,,,,,,,,,,256.664,257.8646,a,1,0.5442,1,257.8647,258.3682,,,,,,156,FEM,NOWORD,DIS,150,luma,,el,,0.5442,,258.3682,258.3682,0.142592593,-0.117592593,0,0,0,,0,120,120,155,1,fuga,,,,
,,,,,,5ede78997dfcae0df3dedd9b,676192165fb32c2e1fb7aee6,67d172a53bb4312f534da168,2025-03-12_12h40.35.649,Tarea de decisión léxica,2024.2.5,Win32,59.88023952,,,,,,,,,,,,,,,,,,,,,,,258.3689,259.4495,l,1,0.4069,1,259.4496,259.95,,,,,,275,MAS,WORD,AGR,150,punto,,el,,0.4069,,259.95,259.9501,0.142592593,-0.117592593,0,0,0,,0,121,121,274,1,musto,,,,
,,,,,,5ede78997dfcae0df3dedd9b,676192165fb32c2e1fb7aee6,67d172a53bb4312f534da168,2025-03-12_12h40.35.649,Tarea de decisión léxica,2024.2.5,Win32,59.88023952,,,,,,,,,,,,,,,,,,,,,,,259.9507,261.0511,a,0,0.4339,0,261.0516,261.5516,,,,,,409,MAS,WORD,DIS,150,carro,,la,,0.4339,,261.5522,261.5524,0.142592593,-0.117592593,0,0,0,,0,122,122,408,1,pafro,,,,
,,,,,,5ede78997dfcae0df3dedd9b,676192165fb32c2e1fb7aee6,67d172a53bb4312f534da168,2025-03-12_12h40.35.649,Tarea de decisión léxica,2024.2.5,Win32,59.88023952,,,,,,,,,,,,,,,,,,,,,,,261.5528,262.7695,a,1,0.534,1,262.7699,263.27,,,,,,18,FEM,NOWORD,AGR,150,paba,,la,,0.534,,263.27,263.27,0.142592593,-0.117592593,0,0,0,,0,123,123,17,1,mamá,,,,
,,,,,,5ede78997dfcae0df3dedd9b,676192165fb32c2e1fb7aee6,67d172a53bb4312f534da168,2025-03-12_12h40.35.649,Tarea de decisión léxica,2024.2.5,Win32,59.88023952,,,,,,,,,,,,,,,,,,,,,,,263.2707,264.3877,a,1,0.4552,1,264.3878,264.8882,,,,,,120,MAS,NOWORD,DIS,150,hooy,,la,,0.4552,,264.8883,264.8883,0.142592593,-0.117592593,0,0,0,,0,124,124,119,1,pozo,,,,
,,,,,,5ede78997dfcae0df3dedd9b,676192165fb32c2e1fb7aee6,67d172a53bb4312f534da168,2025-03-12_12h40.35.649,Tarea de decisión léxica,2024.2.5,Win32,59.88023952,,,,,,,,,,,,,,,,,,,,,,,264.8889,265.8725,a,1,0.3274,1,265.8726,266.3731,,,,,,132,FEM,NOWORD,DIS,150,fada,,el,,0.3274,,266.3731,266.3731,0.142592593,-0.117592593,0,0,0,,0,125,125,131,1,mina,,,,
,,,,,,5ede78997dfcae0df3dedd9b,676192165fb32c2e1fb7aee6,67d172a53bb4312f534da168,2025-03-12_12h40.35.649,Tarea de decisión léxica,2024.2.5,Win32,59.88023952,,,,,,,,,,,,,,,,,,,,,,,266.3737,267.2739,a,0,0.2405,0,267.2744,267.7745,,,,,,457,MAS,WORD,DIS,150,plato,,la,,0.2405,,267.7745,267.7745,0.142592593,-0.117592593,0,0,0,,0,126,126,456,1,glaco,,,,
,,,,,,5ede78997dfcae0df3dedd9b,676192165fb32c2e1fb7aee6,67d172a53bb4312f534da168,2025-03-12_12h40.35.649,Tarea de decisión léxica,2024.2.5,Win32,59.88023952,,,,,,,,,,,,,,,,,,,,,,,267.7751,268.8088,l,1,0.38,1,268.8093,269.3093,,,,,,405,FEM,WORD,DIS,150,barra,,el,,0.38,,269.3099,269.3102,0.142592593,-0.117592593,0,0,0,,0,127,127,404,1,rarra,,,,
,,,,,,5ede78997dfcae0df3dedd9b,676192165fb32c2e1fb7aee6,67d172a53bb4312f534da168,2025-03-12_12h40.35.649,Tarea de decisión léxica,2024.2.5,Win32,59.88023952,,,,,,,,,,,,,,,,,,,,,,,269.3105,270.4438,a,1,0.4635,1,270.4438,270.9443,,,,,,258,FEM,NOWORD,AGR,150,asama,,la,,0.4635,,270.9444,270.9445,0.142592593,-0.117592593,0,0,0,,0,128,128,257,1,amiga,,,,
,,,,,,5ede78997dfcae0df3dedd9b,676192165fb32c2e1fb7aee6,67d172a53bb4312f534da168,2025-03-12_12h40.35.649,Tarea de decisión léxica,2024.2.5,Win32,59.88023952,,,,,,,,,,,,,,,,,,,,,,,270.9449,272.2624,a,1,0.6508,1,272.2624,272.7628,,,,,,468,MAS,NOWORD,DIS,150,peiso,,la,,0.6508,,272.7628,272.7628,0.142592593,-0.117592593,0,0,0,,0,129,129,467,1,piano,,,,
,,,,,,5ede78997dfcae0df3dedd9b,676192165fb32c2e1fb7aee6,67d172a53bb4312f534da168,2025-03-12_12h40.35.649,Tarea de decisión léxica,2024.2.5,Win32,59.88023952,,,,,,,,,,,,,,,,,,,,,,,272.7634,273.8305,l,1,0.4049,1,273.8306,274.331,,,,,,399,MAS,WORD,DIS,150,techo,,la,,0.4049,,274.331,274.331,0.142592593,-0.117592593,0,0,0,,0,130,130,398,1,serro,,,,
,,,,,,5ede78997dfcae0df3dedd9b,676192165fb32c2e1fb7aee6,67d172a53bb4312f534da168,2025-03-12_12h40.35.649,Tarea de decisión léxica,2024.2.5,Win32,59.88023952,,,,,,,,,,,,,,,,,,,,,,,274.3319,275.4356,l,1,0.4507,1,275.4357,275.9326,,,,,,17,FEM,WORD,AGR,150,mamá,,la,,0.4507,,275.9331,275.9334,0.142592593,-0.117592593,0,0,0,,0,131,131,16,1,paba,,,,
,,,,,,5ede78997dfcae0df3dedd9b,676192165fb32c2e1fb7aee6,67d172a53bb4312f534da168,2025-03-12_12h40.35.649,Tarea de decisión léxica,2024.2.5,Win32,59.88023952,,,,,,,,,,,,,,,,,,,,,,,275.9338,277.0336,l,1,0.4203,1,277.0338,277.5342,,,,,,35,MAS,WORD,AGR,150,pelo,,el,,0.4203,,277.5343,277.5343,0.142592593,-0.117592593,0,0,0,,0,132,132,34,1,meno,,,,
,,,,,,5ede78997dfcae0df3dedd9b,676192165fb32c2e1fb7aee6,67d172a53bb4312f534da168,2025-03-12_12h40.35.649,Tarea de decisión léxica,2024.2.5,Win32,59.88023952,,,,,,,,,,,,,,,,,,,,,,,277.5348,278.702,a,1,0.5115,1,278.7021,279.2057,,,,,,92,FEM,NOWORD,DIS,150,sava,,el,,0.5115,,279.2057,279.2058,0.142592593,-0.117592593,0,0,0,,0,133,133,91,1,taza,,,,
,,,,,,5ede78997dfcae0df3dedd9b,676192165fb32c2e1fb7aee6,67d172a53bb4312f534da168,2025-03-12_12h40.35.649,Tarea de decisión léxica,2024.2.5,Win32,59.88023952,,,,,,,,,,,,,,,,,,,,,,,279.2064,280.2369,l,1,0.3534,1,280.2369,280.7374,,,,,,429,FEM,WORD,AGR,150,tarta,,la,,0.3534,,280.7374,280.7375,0.142592593,-0.117592593,0,0,0,,0,134,134,428,1,tenta,,,,
,,,,,,5ede78997dfcae0df3dedd9b,676192165fb32c2e1fb7aee6,67d172a53bb4312f534da168,2025-03-12_12h40.35.649,Tarea de decisión léxica,2024.2.5,Win32,59.88023952,,,,,,,,,,,,,,,,,,,,,,,280.738,282.0387,a,1,0.6471,1,282.0387,282.5391,,,,,,252,MAS,NOWORD,DIS,150,refor,,la,,0.6471,,282.5391,282.5393,0.142592593,-0.117592593,0,0,0,,0,135,135,251,1,señor,,,,
,,,,,,5ede78997dfcae0df3dedd9b,676192165fb32c2e1fb7aee6,67d172a53bb4312f534da168,2025-03-12_12h40.35.649,Tarea de decisión léxica,2024.2.5,Win32,59.88023952,,,,,,,,,,,,,,,,,,,,,,,282.5398,283.7404,a,1,0.5172,1,283.7405,284.2408,,,,,,50,FEM,NOWORD,AGR,150,ecat,,la,,0.5172,,284.2415,284.2417,0.142592593,-0.117592593,0,0,0,,0,136,136,49,1,edad,,,,
,,,,,,5ede78997dfcae0df3dedd9b,676192165fb32c2e1fb7aee6,67d172a53bb4312f534da168,2025-03-12_12h40.35.649,Tarea de decisión léxica,2024.2.5,Win32,59.88023952,,,,,,,,,,,,,,,,,,,,,,,284.2421,285.3087,a,1,0.384,1,285.3087,285.8091,,,,,,4,FEM,NOWORD,DIS,150,dica,,el,,0.384,,285.8092,285.8092,0.142592593,-0.117592593,0,0,0,,0,137,137,3,1,vida,,,,
,,,,,,5ede78997dfcae0df3dedd9b,676192165fb32c2e1fb7aee6,67d172a53bb4312f534da168,2025-03-12_12h40.35.649,Tarea de decisión léxica,2024.2.5,Win32,59.88023952,,,,,,,,,,,,,,,,,,,,,,,285.8098,286.9436,l,1,0.4715,1,286.9437,287.4441,,,,,,235,FEM,WORD,AGR,150,grúa,,la,,0.4715,,287.4441,287.4442,0.142592593,-0.117592593,0,0,0,,0,138,138,234,1,tria,,,,
,,,,,,5ede78997dfcae0df3dedd9b,676192165fb32c2e1fb7aee6,67d172a53bb4312f534da168,2025-03-12_12h40.35.649,Tarea de decisión léxica,2024.2.5,Win32,59.88023952,,,,,,,,,,,,,,,,,,,,,,,287.4448,288.6619,a,0,0.5615,0,288.6623,289.1625,,,,,,91,FEM,WORD,AGR,150,taza,,la,,0.5615,,289.1625,289.1626,0.142592593,-0.117592593,0,0,0,,0,139,139,90,1,sava,,,,
,,,,,,5ede78997dfcae0df3dedd9b,676192165fb32c2e1fb7aee6,67d172a53bb4312f534da168,2025-03-12_12h40.35.649,Tarea de decisión léxica,2024.2.5,Win32,59.88023952,,,,,,,,,,,,,,,,,,,,,,,289.1631,290.2802,l,1,0.4506,1,290.2806,290.7807,,,,,,441,FEM,WORD,DIS,150,selva,,el,,0.4506,,290.7808,290.7808,0.142592593,-0.117592593,0,0,0,,0,140,140,440,1,telza,,,,
,,,,,,5ede78997dfcae0df3dedd9b,676192165fb32c2e1fb7aee6,67d172a53bb4312f534da168,2025-03-12_12h40.35.649,Tarea de decisión léxica,2024.2.5,Win32,59.88023952,,,,,,,,,,,,,,,,,,,,,,,290.7813,291.5182,l,1,0.0835,1,291.5183,292.0153,,,,,,397,FEM,WORD,DIS,150,tribu,,el,,0.0835,,292.0158,292.0162,0.142592593,-0.117592593,0,0,0,,0,141,141,396,1,trigi,,,,
,,,,,,5ede78997dfcae0df3dedd9b,676192165fb32c2e1fb7aee6,67d172a53bb4312f534da168,2025-03-12_12h40.35.649,Tarea de decisión léxica,2024.2.5,Win32,59.88023952,,,,,,,,,,,,,,,,,,,,,,,292.0166,292.7326,l,0,0.0346,0,292.733,293.2331,,,,,,230,MAS,NOWORD,AGR,150,ador,,el,,0.0346,,293.2332,293.2332,0.142592593,-0.117592593,0,0,0,,0,142,142,229,1,amor,,,,
,,,,,,5ede78997dfcae0df3dedd9b,676192165fb32c2e1fb7aee6,67d172a53bb4312f534da168,2025-03-12_12h40.35.649,Tarea de decisión léxica,2024.2.5,Win32,59.88023952,,,,,,,,,,,,,,,,,,,,,,,293.2339,295.8857,,0,0.0346,-1,295.8863,296.3863,,,,,,76,MAS,NOWORD,DIS,150,ocer,,la,,,,296.3863,296.3864,0.142592593,-0.117592593,0,0,0,,0,143,143,75,1,olor,,,,
,,,,,,5ede78997dfcae0df3dedd9b,676192165fb32c2e1fb7aee6,67d172a53bb4312f534da168,2025-03-12_12h40.35.649,Tarea de decisión léxica,2024.2.5,Win32,59.88023952,,,,,,,,,,,,,,,,,,,,,,,296.3869,297.2705,l,0,0.2214,0,297.271,297.771,,,,,,108,MAS,NOWORD,DIS,150,raot,,la,,0.2214,,297.771,297.771,0.142592593,-0.117592593,0,0,0,,0,144,144,107,1,saco,,,,
,,,,,,5ede78997dfcae0df3dedd9b,676192165fb32c2e1fb7aee6,67d172a53bb4312f534da168,2025-03-12_12h40.35.649,Tarea de decisión léxica,2024.2.5,Win32,59.88023952,,,,,,,,,,,,,,,,,,,,,,,297.772,298.6052,l,1,0.1686,1,298.6057,299.1056,,,,,,207,MAS,WORD,DIS,150,kilo,,la,,0.1686,,299.1057,299.1057,0.142592593,-0.117592593,0,0,0,,0,145,145,206,1,kedo,,,,
,,,,,,5ede78997dfcae0df3dedd9b,676192165fb32c2e1fb7aee6,67d172a53bb4312f534da168,2025-03-12_12h40.35.649,Tarea de decisión léxica,2024.2.5,Win32,59.88023952,,,,,,,,,,,,,,,,,,,,,,,299.1063,301.5248,a,1,1.7609,1,301.5249,302.0252,,,,,,350,MAS,NOWORD,AGR,150,cosir,,el,,1.7609,,302.0258,302.0262,0.142592593,-0.117592593,0,0,0,,0,146,146,349,1,color,,,,
,,,,,,5ede78997dfcae0df3dedd9b,676192165fb32c2e1fb7aee6,67d172a53bb4312f534da168,2025-03-12_12h40.35.649,Tarea de decisión léxica,2024.2.5,Win32,59.88023952,,,,,,,,,,,,,,,,,,,,,,,302.0265,303.1764,l,1,0.4674,1,303.1764,303.6769,,,,,,287,FEM,WORD,AGR,150,lista,,la,,0.4674,,303.6769,303.677,0.142592593,-0.117592593,0,0,0,,0,147,147,286,1,fosta,,,,
,,,,,,5ede78997dfcae0df3dedd9b,676192165fb32c2e1fb7aee6,67d172a53bb4312f534da168,2025-03-12_12h40.35.649,Tarea de decisión léxica,2024.2.5,Win32,59.88023952,,,,,,,,,,,,,,,,,,,,,,,303.6775,306.3295,,0,0.4674,-1,306.33,306.8302,,,,,,212,FEM,NOWORD,DIS,150,joad,,el,,,,306.8302,306.8303,0.142592593,-0.117592593,0,0,0,,0,148,148,211,1,joya,,,,
,,,,,,5ede78997dfcae0df3dedd9b,676192165fb32c2e1fb7aee6,67d172a53bb4312f534da168,2025-03-12_12h40.35.649,Tarea de decisión léxica,2024.2.5,Win32,59.88023952,,,,,,,,,,,,,,,,,,,,,,,306.8309,309.4827,,0,0.4674,-1,309.4827,309.9832,,,,,,269,MAS,WORD,DIS,150,perro,,la,,,,309.9833,309.9833,0.142592593,-0.117592593,0,0,0,,0,149,149,268,1,mello,,,,
,,,,,,5ede78997dfcae0df3dedd9b,676192165fb32c2e1fb7aee6,67d172a53bb4312f534da168,2025-03-12_12h40.35.649,Tarea de decisión léxica,2024.2.5,Win32,59.88023952,,,,,,,,,,,,,,,,,,,,,,,309.9839,311.1343,a,1,0.4954,1,311.1347,311.6348,,,,,,22,MAS,NOWORD,AGR,150,blan,,el,,0.4954,,311.6348,311.6348,0.142592593,-0.117592593,0,0,0,,0,150,150,21,1,plan,,,,
,,,,,,5ede78997dfcae0df3dedd9b,676192165fb32c2e1fb7aee6,67d172a53bb4312f534da168,2025-03-12_12h40.35.649,Tarea de decisión léxica,2024.2.5,Win32,59.88023952,,,,,,,,,,,,,,,,,,,,,,,311.6354,312.8527,l,1,0.5548,1,312.8528,313.3532,,,,,,383,FEM,WORD,AGR,150,frase,,la,,0.5548,,313.3538,313.3541,0.142592593,-0.117592593,0,0,0,,0,151,151,382,1,brame,,,,
,,,,,,5ede78997dfcae0df3dedd9b,676192165fb32c2e1fb7aee6,67d172a53bb4312f534da168,2025-03-12_12h40.35.649,Tarea de decisión léxica,2024.2.5,Win32,59.88023952,,,,,,,,,,,,,,,,,,,,,,,313.3544,314.521,l,1,0.4866,1,314.5211,315.0215,,,,,,13,FEM,WORD,AGR,150,hora,,la,,0.4866,,315.0215,315.0215,0.142592593,-0.117592593,0,0,0,,0,152,152,12,1,nola,,,,
,,,,,,5ede78997dfcae0df3dedd9b,676192165fb32c2e1fb7aee6,67d172a53bb4312f534da168,2025-03-12_12h40.35.649,Tarea de decisión léxica,2024.2.5,Win32,59.88023952,,,,,,,,,,,,,,,,,,,,,,,315.0221,316.3728,l,1,0.691,1,316.3729,316.8734,,,,,,149,MAS,WORD,AGR,150,cabo,,el,,0.691,,316.8734,316.8735,0.142592593,-0.117592593,0,0,0,,0,153,153,148,1,pafo,,,,
,,,,,,5ede78997dfcae0df3dedd9b,676192165fb32c2e1fb7aee6,67d172a53bb4312f534da168,2025-03-12_12h40.35.649,Tarea de decisión léxica,2024.2.5,Win32,59.88023952,,,,,,,,,,,,,,,,,,,,,,,316.8741,318.108,a,1,0.5753,1,318.108,318.6085,,,,,,110,MAS,NOWORD,AGR,150,suno,,el,,0.5753,,318.6085,318.6085,0.142592593,-0.117592593,0,0,0,,0,154,154,109,1,rayo,,,,
,,,,,,5ede78997dfcae0df3dedd9b,676192165fb32c2e1fb7aee6,67d172a53bb4312f534da168,2025-03-12_12h40.35.649,Tarea de decisión léxica,2024.2.5,Win32,59.88023952,,,,,,,,,,,,,,,,,,,,,,,318.609,320.0932,a,0,0.8213,0,320.0936,320.5937,,,,,,261,MAS,WORD,DIS,150,sitio,,la,,0.8213,,320.5943,320.5947,0.142592593,-0.117592593,0,0,0,,0,155,155,260,1,titio,,,,
,,,,,,5ede78997dfcae0df3dedd9b,676192165fb32c2e1fb7aee6,67d172a53bb4312f534da168,2025-03-12_12h40.35.649,Tarea de decisión léxica,2024.2.5,Win32,59.88023952,,,,,,,,,,,,,,,,,,,,,,,320.595,321.845,l,1,0.5723,1,321.8454,322.3454,,,,,,357,FEM,WORD,DIS,150,bruja,,el,,0.5723,,322.3455,322.3455,0.142592593,-0.117592593,0,0,0,,0,156,156,356,1,gruba,,,,
,,,,,,5ede78997dfcae0df3dedd9b,676192165fb32c2e1fb7aee6,67d172a53bb4312f534da168,2025-03-12_12h40.35.649,Tarea de decisión léxica,2024.2.5,Win32,59.88023952,,,,,,,,,,,,,,,,,,,,,,,322.3462,323.5467,l,1,0.5451,1,323.5467,324.0472,,,,,,143,MAS,WORD,AGR,150,pavo,,el,,0.5451,,324.0472,324.0473,0.142592593,-0.117592593,0,0,0,,0,157,157,142,1,pezo,,,,
,,,,,,5ede78997dfcae0df3dedd9b,676192165fb32c2e1fb7aee6,67d172a53bb4312f534da168,2025-03-12_12h40.35.649,Tarea de decisión léxica,2024.2.5,Win32,59.88023952,,,,,,,,,,,,,,,,,,,,,,,324.0478,325.1983,a,1,0.4923,1,325.1983,325.6988,,,,,,264,FEM,NOWORD,DIS,150,dosta,,el,,0.4923,,325.6988,325.6989,0.142592593,-0.117592593,0,0,0,,0,158,158,263,1,vista,,,,
,,,,,,5ede78997dfcae0df3dedd9b,676192165fb32c2e1fb7aee6,67d172a53bb4312f534da168,2025-03-12_12h40.35.649,Tarea de decisión léxica,2024.2.5,Win32,59.88023952,,,,,,,,,,,,,,,,,,,,,,,325.6994,327.5674,a,1,1.2018,1,327.5674,328.0679,,,,,,262,MAS,NOWORD,AGR,150,titio,,el,,1.2018,,328.0679,328.068,0.142592593,-0.117592593,0,0,0,,0,159,159,261,1,sitio,,,,
,,,,,,5ede78997dfcae0df3dedd9b,676192165fb32c2e1fb7aee6,67d172a53bb4312f534da168,2025-03-12_12h40.35.649,Tarea de decisión léxica,2024.2.5,Win32,59.88023952,,,,,,,,,,,,,,,,,,,,,,,328.0685,329.3859,a,1,0.6557,1,329.3859,329.8863,,,,,,388,FEM,NOWORD,DIS,150,bresa,,el,,0.6557,,329.8869,2244.8975,0.515740741,-0.182407407,0,0,0,space,0,160,160,387,1,crema,1914.9906,,,
,,,,,,5ede78997dfcae0df3dedd9b,676192165fb32c2e1fb7aee6,67d172a53bb4312f534da168,2025-03-12_12h40.35.649,Tarea de decisión léxica,2024.2.5,Win32,59.88023952,,,,,,,,,,,,,,,,,,,,,,,2244.8982,2246.5618,l,1,0.9967,1,2246.5618,2247.0622,,,,,,293,MAS,WORD,DIS,150,campo,,la,,0.9967,,2247.0624,2247.0624,0.515740741,-0.182407407,0,0,0,,0,161,161,292,1,cacso,,,,
,,,,,,5ede78997dfcae0df3dedd9b,676192165fb32c2e1fb7aee6,67d172a53bb4312f534da168,2025-03-12_12h40.35.649,Tarea de decisión léxica,2024.2.5,Win32,59.88023952,,,,,,,,,,,,,,,,,,,,,,,2247.0629,2248.4136,a,1,0.6887,1,2248.4138,2248.9142,,,,,,148,FEM,NOWORD,DIS,150,pama,,el,,0.6887,,2248.9142,2248.9142,0.515740741,-0.182407407,0,0,0,,0,162,162,147,1,hoja,,,,
,,,,,,5ede78997dfcae0df3dedd9b,676192165fb32c2e1fb7aee6,67d172a53bb4312f534da168,2025-03-12_12h40.35.649,Tarea de decisión léxica,2024.2.5,Win32,59.88023952,,,,,,,,,,,,,,,,,,,,,,,2248.9148,2249.9985,l,1,0.4179,1,2249.9986,2250.499,,,,,,255,MAS,WORD,DIS,150,miedo,,la,,0.4179,,2250.4991,2250.4991,0.515740741,-0.182407407,0,0,0,,0,163,163,254,1,mauco,,,,
,,,,,,5ede78997dfcae0df3dedd9b,676192165fb32c2e1fb7aee6,67d172a53bb4312f534da168,2025-03-12_12h40.35.649,Tarea de decisión léxica,2024.2.5,Win32,59.88023952,,,,,,,,,,,,,,,,,,,,,,,2250.4996,2251.6335,l,1,0.4673,1,2251.6336,2252.1339,,,,,,77,MAS,WORD,DIS,150,loco,,la,,0.4673,,2252.134,2252.1341,0.515740741,-0.182407407,0,0,0,,0,164,164,76,1,fodo,,,,
,,,,,,5ede78997dfcae0df3dedd9b,676192165fb32c2e1fb7aee6,67d172a53bb4312f534da168,2025-03-12_12h40.35.649,Tarea de decisión léxica,2024.2.5,Win32,59.88023952,,,,,,,,,,,,,,,,,,,,,,,2252.1347,2253.2184,a,1,0.427,1,2253.2185,2253.7189,,,,,,30,MAS,NOWORD,AGR,150,pono,,el,,0.427,,2253.7195,2253.7198,0.515740741,-0.182407407,0,0,0,,0,165,165,29,1,modo,,,,
,,,,,,5ede78997dfcae0df3dedd9b,676192165fb32c2e1fb7aee6,67d172a53bb4312f534da168,2025-03-12_12h40.35.649,Tarea de decisión léxica,2024.2.5,Win32,59.88023952,,,,,,,,,,,,,,,,,,,,,,,2253.7201,2254.9201,a,1,0.5208,1,2254.9201,2255.4206,,,,,,328,MAS,NOWORD,DIS,150,lendo,,la,,0.5208,,2255.4206,2255.4207,0.515740741,-0.182407407,0,0,0,,0,166,166,327,1,fondo,,,,
,,,,,,5ede78997dfcae0df3dedd9b,676192165fb32c2e1fb7aee6,67d172a53bb4312f534da168,2025-03-12_12h40.35.649,Tarea de decisión léxica,2024.2.5,Win32,59.88023952,,,,,,,,,,,,,,,,,,,,,,,2255.4213,2256.5217,a,1,0.4395,1,2256.5217,2257.0222,,,,,,136,MAS,NOWORD,DIS,150,geso,,la,,0.4395,,2257.0222,2257.0223,0.515740741,-0.182407407,0,0,0,,0,167,167,135,1,tubo,,,,
,,,,,,5ede78997dfcae0df3dedd9b,676192165fb32c2e1fb7aee6,67d172a53bb4312f534da168,2025-03-12_12h40.35.649,Tarea de decisión léxica,2024.2.5,Win32,59.88023952,,,,,,,,,,,,,,,,,,,,,,,2257.0227,2258.0899,l,1,0.4028,1,2258.0899,2258.5905,,,,,,307,MAS,WORD,AGR,150,hotel,,el,,0.4028,,2258.5905,2258.5905,0.515740741,-0.182407407,0,0,0,,0,168,168,306,1,holol,,,,
,,,,,,5ede78997dfcae0df3dedd9b,676192165fb32c2e1fb7aee6,67d172a53bb4312f534da168,2025-03-12_12h40.35.649,Tarea de decisión léxica,2024.2.5,Win32,59.88023952,,,,,,,,,,,,,,,,,,,,,,,2258.591,2259.6582,l,1,0.4096,1,2259.6582,2260.1586,,,,,,315,FEM,WORD,AGR,150,reina,,la,,0.4096,,2260.1587,2260.1587,0.515740741,-0.182407407,0,0,0,,0,169,169,314,1,riosa,,,,
,,,,,,5ede78997dfcae0df3dedd9b,676192165fb32c2e1fb7aee6,67d172a53bb4312f534da168,2025-03-12_12h40.35.649,Tarea de decisión léxica,2024.2.5,Win32,59.88023952,,,,,,,,,,,,,,,,,,,,,,,2260.1593,2261.3432,l,1,0.5173,1,2261.3432,2261.8437,,,,,,363,FEM,WORD,DIS,150,deuda,,el,,0.5173,,2261.8442,2261.8446,0.515740741,-0.182407407,0,0,0,,0,170,170,362,1,veida,,,,
,,,,,,5ede78997dfcae0df3dedd9b,676192165fb32c2e1fb7aee6,67d172a53bb4312f534da168,2025-03-12_12h40.35.649,Tarea de decisión léxica,2024.2.5,Win32,59.88023952,,,,,,,,,,,,,,,,,,,,,,,2261.8449,2262.9448,a,1,0.4287,1,2262.9449,2263.4453,,,,,,314,MAS,NOWORD,AGR,150,govio,,el,,0.4287,,2263.4453,2263.4454,0.515740741,-0.182407407,0,0,0,,0,171,171,313,1,novio,,,,
,,,,,,5ede78997dfcae0df3dedd9b,676192165fb32c2e1fb7aee6,67d172a53bb4312f534da168,2025-03-12_12h40.35.649,Tarea de decisión léxica,2024.2.5,Win32,59.88023952,,,,,,,,,,,,,,,,,,,,,,,2263.4458,2264.6465,l,1,0.5398,1,2264.6466,2265.147,,,,,,335,FEM,WORD,DIS,150,costa,,el,,0.5398,,2265.1471,2265.1471,0.515740741,-0.182407407,0,0,0,,0,172,172,334,1,pesta,,,,
,,,,,,5ede78997dfcae0df3dedd9b,676192165fb32c2e1fb7aee6,67d172a53bb4312f534da168,2025-03-12_12h40.35.649,Tarea de decisión léxica,2024.2.5,Win32,59.88023952,,,,,,,,,,,,,,,,,,,,,,,2265.1476,2266.4316,a,1,0.6272,1,2266.4317,2266.932,,,,,,304,MAS,NOWORD,DIS,150,lanco,,la,,0.6272,,2266.9321,2266.9322,0.515740741,-0.182407407,0,0,0,,0,173,173,303,1,barco,,,,
,,,,,,5ede78997dfcae0df3dedd9b,676192165fb32c2e1fb7aee6,67d172a53bb4312f534da168,2025-03-12_12h40.35.649,Tarea de decisión léxica,2024.2.5,Win32,59.88023952,,,,,,,,,,,,,,,,,,,,,,,2266.9326,2268.0498,l,1,0.457,1,2268.0499,2268.5503,,,,,,311,MAS,WORD,DIS,150,honor,,la,,0.457,,2268.5503,2268.5504,0.515740741,-0.182407407,0,0,0,,0,174,174,310,1,nosor,,,,
,,,,,,5ede78997dfcae0df3dedd9b,676192165fb32c2e1fb7aee6,67d172a53bb4312f534da168,2025-03-12_12h40.35.649,Tarea de decisión léxica,2024.2.5,Win32,59.88023952,,,,,,,,,,,,,,,,,,,,,,,2268.551,2269.7182,a,1,0.5077,1,2269.7183,2270.2187,,,,,,160,MAS,NOWORD,DIS,150,bilo,,la,,0.5077,,2270.2192,2270.2195,0.515740741,-0.182407407,0,0,0,,0,175,175,159,1,giro,,,,
,,,,,,5ede78997dfcae0df3dedd9b,676192165fb32c2e1fb7aee6,67d172a53bb4312f534da168,2025-03-12_12h40.35.649,Tarea de decisión léxica,2024.2.5,Win32,59.88023952,,,,,,,,,,,,,,,,,,,,,,,2270.2199,2271.2864,l,0,0.3895,0,2271.2869,2271.787,,,,,,400,MAS,NOWORD,DIS,150,serro,,la,,0.3895,,2271.787,2271.787,0.515740741,-0.182407407,0,0,0,,0,176,176,399,1,techo,,,,
,,,,,,5ede78997dfcae0df3dedd9b,676192165fb32c2e1fb7aee6,67d172a53bb4312f534da168,2025-03-12_12h40.35.649,Tarea de decisión léxica,2024.2.5,Win32,59.88023952,,,,,,,,,,,,,,,,,,,,,,,2271.7875,2273.0549,a,1,0.6008,1,2273.0552,2273.5554,,,,,,278,MAS,NOWORD,AGR,150,vuemo,,el,,0.6008,,2273.5554,2273.5554,0.515740741,-0.182407407,0,0,0,,0,177,177,277,1,fuego,,,,
,,,,,,5ede78997dfcae0df3dedd9b,676192165fb32c2e1fb7aee6,67d172a53bb4312f534da168,2025-03-12_12h40.35.649,Tarea de decisión léxica,2024.2.5,Win32,59.88023952,,,,,,,,,,,,,,,,,,,,,,,2273.5559,2274.89,a,1,0.6688,1,2274.89,2275.3904,,,,,,394,FEM,NOWORD,AGR,150,ashea,,la,,0.6688,,2275.3905,2275.3906,0.515740741,-0.182407407,0,0,0,,0,178,178,393,1,aldea,,,,
,,,,,,5ede78997dfcae0df3dedd9b,676192165fb32c2e1fb7aee6,67d172a53bb4312f534da168,2025-03-12_12h40.35.649,Tarea de decisión léxica,2024.2.5,Win32,59.88023952,,,,,,,,,,,,,,,,,,,,,,,2275.3912,2276.5417,l,1,0.4957,1,2276.5417,2277.0421,,,,,,271,FEM,WORD,DIS,150,señal,,el,,0.4957,,2277.0427,2277.043,0.515740741,-0.182407407,0,0,0,,0,179,179,270,1,refal,,,,
,,,,,,5ede78997dfcae0df3dedd9b,676192165fb32c2e1fb7aee6,67d172a53bb4312f534da168,2025-03-12_12h40.35.649,Tarea de decisión léxica,2024.2.5,Win32,59.88023952,,,,,,,,,,,,,,,,,,,,,,,2277.0433,2278.2433,a,1,0.5174,1,2278.2434,2278.7439,,,,,,398,FEM,NOWORD,AGR,150,trigi,,la,,0.5174,,2278.7439,2278.7439,0.515740741,-0.182407407,0,0,0,,0,180,180,397,1,tribu,,,,
,,,,,,5ede78997dfcae0df3dedd9b,676192165fb32c2e1fb7aee6,67d172a53bb4312f534da168,2025-03-12_12h40.35.649,Tarea de decisión léxica,2024.2.5,Win32,59.88023952,,,,,,,,,,,,,,,,,,,,,,,2278.7445,2279.9784,a,1,0.5772,1,2279.9785,2280.4788,,,,,,206,FEM,NOWORD,AGR,150,bara,,la,,0.5772,,2280.4789,2280.4789,0.515740741,-0.182407407,0,0,0,,0,181,181,205,1,rana,,,,
,,,,,,5ede78997dfcae0df3dedd9b,676192165fb32c2e1fb7aee6,67d172a53bb4312f534da168,2025-03-12_12h40.35.649,Tarea de decisión léxica,2024.2.5,Win32,59.88023952,,,,,,,,,,,,,,,,,,,,,,,2280.4795,2281.5133,l,1,0.3791,1,2281.5133,2282.0137,,,,,,333,FEM,WORD,AGR,150,tarea,,la,,0.3791,,2282.0137,2282.0138,0.515740741,-0.182407407,0,0,0,,0,182,182,332,1,dalea,,,,
,,,,,,5ede78997dfcae0df3dedd9b,676192165fb32c2e1fb7aee6,67d172a53bb4312f534da168,2025-03-12_12h40.35.649,Tarea de decisión léxica,2024.2.5,Win32,59.88023952,,,,,,,,,,,,,,,,,,,,,,,2282.0144,2283.0982,a,1,0.4274,1,2283.0982,2283.5987,,,,,,234,FEM,NOWORD,AGR,150,fasa,,la,,0.4274,,2283.5987,2283.5987,0.515740741,-0.182407407,0,0,0,,0,183,183,233,1,lana,,,,
,,,,,,5ede78997dfcae0df3dedd9b,676192165fb32c2e1fb7aee6,67d172a53bb4312f534da168,2025-03-12_12h40.35.649,Tarea de decisión léxica,2024.2.5,Win32,59.88023952,,,,,,,,,,,,,,,,,,,,,,,2283.5993,2284.7832,l,1,0.5203,1,2284.7832,2285.2837,,,,,,381,MAS,WORD,AGR,150,humor,,el,,0.5203,,2285.2843,2285.2845,0.515740741,-0.182407407,0,0,0,,0,184,184,380,1,nusor,,,,
,,,,,,5ede78997dfcae0df3dedd9b,676192165fb32c2e1fb7aee6,67d172a53bb4312f534da168,2025-03-12_12h40.35.649,Tarea de decisión léxica,2024.2.5,Win32,59.88023952,,,,,,,,,,,,,,,,,,,,,,,2285.2849,2286.4349,l,1,0.4757,1,2286.4349,2286.9353,,,,,,23,FEM,WORD,DIS,150,hija,,el,,0.4757,,2286.9354,2286.9354,0.515740741,-0.182407407,0,0,0,,0,185,185,22,1,giva,,,,
,,,,,,5ede78997dfcae0df3dedd9b,676192165fb32c2e1fb7aee6,67d172a53bb4312f534da168,2025-03-12_12h40.35.649,Tarea de decisión léxica,2024.2.5,Win32,59.88023952,,,,,,,,,,,,,,,,,,,,,,,2286.9359,2288.0197,a,1,0.428,1,2288.0198,2288.5202,,,,,,226,MAS,NOWORD,AGR,150,boco,,el,,0.428,,2288.5202,2288.5203,0.515740741,-0.182407407,0,0,0,,0,186,186,225,1,lodo,,,,
,,,,,,5ede78997dfcae0df3dedd9b,676192165fb32c2e1fb7aee6,67d172a53bb4312f534da168,2025-03-12_12h40.35.649,Tarea de decisión léxica,2024.2.5,Win32,59.88023952,,,,,,,,,,,,,,,,,,,,,,,2288.5208,2289.7049,a,1,0.5188,1,2289.7049,2290.2052,,,,,,138,MAS,NOWORD,AGR,150,pamo,,el,,0.5188,,2290.2053,2290.2053,0.515740741,-0.182407407,0,0,0,,0,187,187,137,1,nene,,,,
,,,,,,5ede78997dfcae0df3dedd9b,676192165fb32c2e1fb7aee6,67d172a53bb4312f534da168,2025-03-12_12h40.35.649,Tarea de decisión léxica,2024.2.5,Win32,59.88023952,,,,,,,,,,,,,,,,,,,,,,,2290.2059,2291.2563,a,1,0.3888,1,2291.2564,2291.7568,,,,,,180,MAS,NOWORD,DIS,150,sono,,la,,0.3888,,2291.7569,2291.7569,0.515740741,-0.182407407,0,0,0,,0,188,188,179,1,toro,,,,
,,,,,,5ede78997dfcae0df3dedd9b,676192165fb32c2e1fb7aee6,67d172a53bb4312f534da168,2025-03-12_12h40.35.649,Tarea de decisión léxica,2024.2.5,Win32,59.88023952,,,,,,,,,,,,,,,,,,,,,,,2291.7575,2292.8412,a,1,0.4232,1,2292.8413,2293.3417,,,,,,478,MAS,NOWORD,AGR,150,hocon,,el,,0.4232,,2293.3423,2293.3425,0.515740741,-0.182407407,0,0,0,,0,189,189,477,1,botón,,,,
,,,,,,5ede78997dfcae0df3dedd9b,676192165fb32c2e1fb7aee6,67d172a53bb4312f534da168,2025-03-12_12h40.35.649,Tarea de decisión léxica,2024.2.5,Win32,59.88023952,,,,,,,,,,,,,,,,,,,,,,,2293.3431,2294.4595,l,1,0.4366,1,2294.4596,2294.9601,,,,,,473,FEM,WORD,DIS,150,feria,,el,,0.4366,,2294.9601,2294.9601,0.515740741,-0.182407407,0,0,0,,0,190,190,472,1,felia,,,,
,,,,,,5ede78997dfcae0df3dedd9b,676192165fb32c2e1fb7aee6,67d172a53bb4312f534da168,2025-03-12_12h40.35.649,Tarea de decisión léxica,2024.2.5,Win32,59.88023952,,,,,,,,,,,,,,,,,,,,,,,2294.9606,2295.9944,l,1,0.369,1,2295.9944,2296.4949,,,,,,3,FEM,WORD,AGR,150,vida,,la,,0.369,,2296.4949,2296.495,0.515740741,-0.182407407,0,0,0,,0,191,191,2,1,dica,,,,
,,,,,,5ede78997dfcae0df3dedd9b,676192165fb32c2e1fb7aee6,67d172a53bb4312f534da168,2025-03-12_12h40.35.649,Tarea de decisión léxica,2024.2.5,Win32,59.88023952,,,,,,,,,,,,,,,,,,,,,,,2296.4955,2297.5459,l,1,0.3695,1,2297.5459,2298.0464,,,,,,85,MAS,WORD,AGR,150,lago,,el,,0.3695,,2298.0464,2298.0464,0.515740741,-0.182407407,0,0,0,,0,192,192,84,1,babo,,,,
,,,,,,5ede78997dfcae0df3dedd9b,676192165fb32c2e1fb7aee6,67d172a53bb4312f534da168,2025-03-12_12h40.35.649,Tarea de decisión léxica,2024.2.5,Win32,59.88023952,,,,,,,,,,,,,,,,,,,,,,,2298.047,2299.1309,a,1,0.4187,1,2299.1309,2299.6313,,,,,,306,MAS,NOWORD,AGR,150,adiol,,el,,0.4187,,2299.6313,2299.6314,0.515740741,-0.182407407,0,0,0,,0,193,193,305,1,avión,,,,
,,,,,,5ede78997dfcae0df3dedd9b,676192165fb32c2e1fb7aee6,67d172a53bb4312f534da168,2025-03-12_12h40.35.649,Tarea de decisión léxica,2024.2.5,Win32,59.88023952,,,,,,,,,,,,,,,,,,,,,,,2299.6319,2300.7157,a,1,0.4268,1,2300.7157,2301.2162,,,,,,338,MAS,NOWORD,AGR,150,nuejo,,el,,0.4268,,2301.2168,2301.2171,0.515740741,-0.182407407,0,0,0,,0,194,194,337,1,huevo,,,,
,,,,,,5ede78997dfcae0df3dedd9b,676192165fb32c2e1fb7aee6,67d172a53bb4312f534da168,2025-03-12_12h40.35.649,Tarea de decisión léxica,2024.2.5,Win32,59.88023952,,,,,,,,,,,,,,,,,,,,,,,2301.2175,2302.334,l,1,0.4461,1,2302.334,2302.8344,,,,,,173,FEM,WORD,AGR,150,rosa,,la,,0.4461,,2302.8345,2302.8345,0.515740741,-0.182407407,0,0,0,,0,195,195,172,1,boma,,,,
,,,,,,5ede78997dfcae0df3dedd9b,676192165fb32c2e1fb7aee6,67d172a53bb4312f534da168,2025-03-12_12h40.35.649,Tarea de decisión léxica,2024.2.5,Win32,59.88023952,,,,,,,,,,,,,,,,,,,,,,,2302.835,2303.8355,a,1,0.3338,1,2303.8355,2304.3394,,,,,,190,MAS,NOWORD,AGR,150,muvo,,el,,0.3338,,2304.3394,2304.3395,0.515740741,-0.182407407,0,0,0,,0,196,196,189,1,puño,,,,
,,,,,,5ede78997dfcae0df3dedd9b,676192165fb32c2e1fb7aee6,67d172a53bb4312f534da168,2025-03-12_12h40.35.649,Tarea de decisión léxica,2024.2.5,Win32,59.88023952,,,,,,,,,,,,,,,,,,,,,,,2304.3401,2305.4037,l,1,0.3954,1,2305.4037,2305.9075,,,,,,27,MAS,WORD,AGR,150,baño,,el,,0.3954,,2305.9075,2305.9076,0.515740741,-0.182407407,0,0,0,,0,197,197,26,1,ravo,,,,
,,,,,,5ede78997dfcae0df3dedd9b,676192165fb32c2e1fb7aee6,67d172a53bb4312f534da168,2025-03-12_12h40.35.649,Tarea de decisión léxica,2024.2.5,Win32,59.88023952,,,,,,,,,,,,,,,,,,,,,,,2305.9081,2306.9922,a,1,0.4173,1,2306.9923,2307.4892,,,,,,430,FEM,NOWORD,AGR,150,tenta,,la,,0.4173,,2307.4892,2307.4892,0.515740741,-0.182407407,0,0,0,,0,198,198,429,1,tarta,,,,
,,,,,,5ede78997dfcae0df3dedd9b,676192165fb32c2e1fb7aee6,67d172a53bb4312f534da168,2025-03-12_12h40.35.649,Tarea de decisión léxica,2024.2.5,Win32,59.88023952,,,,,,,,,,,,,,,,,,,,,,,2307.4897,2308.7236,l,0,0.574,0,2308.7241,2309.2242,,,,,,20,MAS,NOWORD,DIS,150,himo,,la,,0.574,,2309.2247,2309.225,0.515740741,-0.182407407,0,0,0,,0,199,199,19,1,niño,,,,
,,,,,,5ede78997dfcae0df3dedd9b,676192165fb32c2e1fb7aee6,67d172a53bb4312f534da168,2025-03-12_12h40.35.649,Tarea de decisión léxica,2024.2.5,Win32,59.88023952,,,,,,,,,,,,,,,,,,,,,,,2309.2254,2310.5088,a,1,0.5948,1,2310.5092,2311.0093,,,,,,334,FEM,NOWORD,AGR,150,dalea,,la,,0.5948,,2311.0093,2311.0094,0.515740741,-0.182407407,0,0,0,,0,200,200,333,1,tarea,,,,
,,,,,,5ede78997dfcae0df3dedd9b,676192165fb32c2e1fb7aee6,67d172a53bb4312f534da168,2025-03-12_12h40.35.649,Tarea de decisión léxica,2024.2.5,Win32,59.88023952,,,,,,,,,,,,,,,,,,,,,,,2311.0099,2312.2939,l,1,0.6188,1,2312.294,2312.7944,,,,,,299,FEM,WORD,DIS,150,bolsa,,el,,0.6188,,2312.7944,2312.7945,0.515740741,-0.182407407,0,0,0,,0,201,201,298,1,bosga,,,,
,,,,,,5ede78997dfcae0df3dedd9b,676192165fb32c2e1fb7aee6,67d172a53bb4312f534da168,2025-03-12_12h40.35.649,Tarea de decisión léxica,2024.2.5,Win32,59.88023952,,,,,,,,,,,,,,,,,,,,,,,2312.795,2313.9122,a,1,0.4505,1,2313.9123,2314.4127,,,,,,34,FEM,NOWORD,AGR,150,loda,,la,,0.4505,,2314.4127,2314.4128,0.515740741,-0.182407407,0,0,0,,0,202,202,33,1,boca,,,,
,,,,,,5ede78997dfcae0df3dedd9b,676192165fb32c2e1fb7aee6,67d172a53bb4312f534da168,2025-03-12_12h40.35.649,Tarea de decisión léxica,2024.2.5,Win32,59.88023952,,,,,,,,,,,,,,,,,,,,,,,2314.4133,2315.447,l,1,0.3704,1,2315.4471,2315.9475,,,,,,153,MAS,WORD,AGR,150,pato,,el,,0.3704,,2315.9481,2315.9485,0.515740741,-0.182407407,0,0,0,,0,203,203,152,1,tado,,,,
,,,,,,5ede78997dfcae0df3dedd9b,676192165fb32c2e1fb7aee6,67d172a53bb4312f534da168,2025-03-12_12h40.35.649,Tarea de decisión léxica,2024.2.5,Win32,59.88023952,,,,,,,,,,,,,,,,,,,,,,,2315.9487,2317.082,l,1,0.4608,1,2317.082,2317.5826,,,,,,375,FEM,WORD,DIS,150,salsa,,el,,0.4608,,2317.5826,2317.5826,0.515740741,-0.182407407,0,0,0,,0,204,204,374,1,sasna,,,,
,,,,,,5ede78997dfcae0df3dedd9b,676192165fb32c2e1fb7aee6,67d172a53bb4312f534da168,2025-03-12_12h40.35.649,Tarea de decisión léxica,2024.2.5,Win32,59.88023952,,,,,,,,,,,,,,,,,,,,,,,2317.5831,2318.5835,a,1,0.3354,1,2318.5836,2319.084,,,,,,66,MAS,NOWORD,AGR,150,nios,,el,,0.3354,,2319.084,2319.0841,0.515740741,-0.182407407,0,0,0,,0,205,205,65,1,dios,,,,
,,,,,,5ede78997dfcae0df3dedd9b,676192165fb32c2e1fb7aee6,67d172a53bb4312f534da168,2025-03-12_12h40.35.649,Tarea de decisión léxica,2024.2.5,Win32,59.88023952,,,,,,,,,,,,,,,,,,,,,,,2319.0847,2320.2519,l,1,0.509,1,2320.2519,2320.7523,,,,,,49,FEM,WORD,AGR,150,edad,,la,,0.509,,2320.7523,2320.7523,0.515740741,-0.182407407,0,0,0,,0,206,206,48,1,ecat,,,,
,,,,,,5ede78997dfcae0df3dedd9b,676192165fb32c2e1fb7aee6,67d172a53bb4312f534da168,2025-03-12_12h40.35.649,Tarea de decisión léxica,2024.2.5,Win32,59.88023952,,,,,,,,,,,,,,,,,,,,,,,2320.753,2321.7867,l,1,0.3747,1,2321.7867,2322.2871,,,,,,189,MAS,WORD,AGR,150,puño,,el,,0.3747,,2322.2872,2322.2872,0.515740741,-0.182407407,0,0,0,,0,207,207,188,1,muvo,,,,
,,,,,,5ede78997dfcae0df3dedd9b,676192165fb32c2e1fb7aee6,67d172a53bb4312f534da168,2025-03-12_12h40.35.649,Tarea de decisión léxica,2024.2.5,Win32,59.88023952,,,,,,,,,,,,,,,,,,,,,,,2322.2878,2323.355,l,1,0.4138,1,2323.355,2323.8554,,,,,,97,MAS,WORD,DIS,150,mono,,la,,0.4138,,2323.856,2323.8562,0.515740741,-0.182407407,0,0,0,,0,208,208,96,1,fopo,,,,
,,,,,,5ede78997dfcae0df3dedd9b,676192165fb32c2e1fb7aee6,67d172a53bb4312f534da168,2025-03-12_12h40.35.649,Tarea de decisión léxica,2024.2.5,Win32,59.88023952,,,,,,,,,,,,,,,,,,,,,,,2323.8566,2325.5572,a,1,1.0239,1,2325.5572,2326.0576,,,,,,52,FEM,NOWORD,DIS,150,mava,,el,,1.0239,,2326.0576,2326.0577,0.515740741,-0.182407407,0,0,0,,0,209,209,51,1,caja,,,,
,,,,,,5ede78997dfcae0df3dedd9b,676192165fb32c2e1fb7aee6,67d172a53bb4312f534da168,2025-03-12_12h40.35.649,Tarea de decisión léxica,2024.2.5,Win32,59.88023952,,,,,,,,,,,,,,,,,,,,,,,2326.0583,2327.2588,a,1,0.5454,1,2327.2589,2327.7626,,,,,,456,MAS,NOWORD,DIS,150,riaso,,la,,0.5454,,2327.7627,2327.7627,0.515740741,-0.182407407,0,0,0,,0,210,210,455,1,reino,,,,
,,,,,,5ede78997dfcae0df3dedd9b,676192165fb32c2e1fb7aee6,67d172a53bb4312f534da168,2025-03-12_12h40.35.649,Tarea de decisión léxica,2024.2.5,Win32,59.88023952,,,,,,,,,,,,,,,,,,,,,,,2327.7632,2328.9605,a,1,0.529,1,2328.9606,2329.461,,,,,,80,FEM,NOWORD,DIS,150,ciel,,el,,0.529,,2329.4611,2329.4611,0.515740741,-0.182407407,0,0,0,,0,211,211,79,1,piel,,,,
,,,,,,5ede78997dfcae0df3dedd9b,676192165fb32c2e1fb7aee6,67d172a53bb4312f534da168,2025-03-12_12h40.35.649,Tarea de decisión léxica,2024.2.5,Win32,59.88023952,,,,,,,,,,,,,,,,,,,,,,,2329.4616,2330.6622,a,1,0.5391,1,2330.6623,2331.1627,,,,,,250,FEM,NOWORD,AGR,150,plane,,la,,0.5391,,2331.1628,2331.1628,0.515740741,-0.182407407,0,0,0,,0,212,212,249,1,clase,,,,
,,,,,,5ede78997dfcae0df3dedd9b,676192165fb32c2e1fb7aee6,67d172a53bb4312f534da168,2025-03-12_12h40.35.649,Tarea de decisión léxica,2024.2.5,Win32,59.88023952,,,,,,,,,,,,,,,,,,,,,,,2331.1634,2332.3973,l,1,0.5735,1,2332.3973,2332.8978,,,,,,135,MAS,WORD,DIS,150,tubo,,la,,0.5735,,2332.8983,2332.8987,0.515740741,-0.182407407,0,0,0,,0,213,213,134,1,geso,,,,
,,,,,,5ede78997dfcae0df3dedd9b,676192165fb32c2e1fb7aee6,67d172a53bb4312f534da168,2025-03-12_12h40.35.649,Tarea de decisión léxica,2024.2.5,Win32,59.88023952,,,,,,,,,,,,,,,,,,,,,,,2332.899,2333.9822,l,1,0.4096,1,2333.9822,2334.4827,,,,,,265,FEM,WORD,AGR,150,mitad,,la,,0.4096,,2334.4827,2334.4827,0.515740741,-0.182407407,0,0,0,,0,214,214,264,1,pitat,,,,
,,,,,,5ede78997dfcae0df3dedd9b,676192165fb32c2e1fb7aee6,67d172a53bb4312f534da168,2025-03-12_12h40.35.649,Tarea de decisión léxica,2024.2.5,Win32,59.88023952,,,,,,,,,,,,,,,,,,,,,,,2334.4832,2335.7339,l,1,0.5905,1,2335.7339,2336.2345,,,,,,167,FEM,WORD,DIS,150,jefa,,el,,0.5905,,2336.2345,2336.2345,0.515740741,-0.182407407,0,0,0,,0,215,215,166,1,zifa,,,,
,,,,,,5ede78997dfcae0df3dedd9b,676192165fb32c2e1fb7aee6,67d172a53bb4312f534da168,2025-03-12_12h40.35.649,Tarea de decisión léxica,2024.2.5,Win32,59.88023952,,,,,,,,,,,,,,,,,,,,,,,2336.235,2337.4356,l,1,0.5406,1,2337.4356,2337.9361,,,,,,195,FEM,WORD,AGR,150,tela,,la,,0.5406,,2337.9361,2337.9361,0.515740741,-0.182407407,0,0,0,,0,216,216,194,1,sira,,,,
,,,,,,5ede78997dfcae0df3dedd9b,676192165fb32c2e1fb7aee6,67d172a53bb4312f534da168,2025-03-12_12h40.35.649,Tarea de decisión léxica,2024.2.5,Win32,59.88023952,,,,,,,,,,,,,,,,,,,,,,,2337.9368,2340.0049,l,1,1.4015,1,2340.0049,2340.5053,,,,,,309,FEM,WORD,DIS,150,silla,,el,,1.4015,,2340.5054,2340.5055,0.515740741,-0.182407407,0,0,0,,0,217,217,308,1,tirra,,,,
,,,,,,5ede78997dfcae0df3dedd9b,676192165fb32c2e1fb7aee6,67d172a53bb4312f534da168,2025-03-12_12h40.35.649,Tarea de decisión léxica,2024.2.5,Win32,59.88023952,,,,,,,,,,,,,,,,,,,,,,,2340.5059,2341.5897,l,1,0.4173,1,2341.5898,2342.0902,,,,,,183,FEM,WORD,DIS,150,raya,,el,,0.4173,,2342.0908,2342.0911,0.515740741,-0.182407407,0,0,0,,0,218,218,182,1,raad,,,,
,,,,,,5ede78997dfcae0df3dedd9b,676192165fb32c2e1fb7aee6,67d172a53bb4312f534da168,2025-03-12_12h40.35.649,Tarea de decisión léxica,2024.2.5,Win32,59.88023952,,,,,,,,,,,,,,,,,,,,,,,2342.0914,2343.2247,a,1,0.4506,1,2343.2248,2343.7252,,,,,,128,MAS,NOWORD,DIS,150,itio,,la,,0.4506,,2343.7252,2343.7253,0.515740741,-0.182407407,0,0,0,,0,219,219,127,1,pico,,,,
,,,,,,5ede78997dfcae0df3dedd9b,676192165fb32c2e1fb7aee6,67d172a53bb4312f534da168,2025-03-12_12h40.35.649,Tarea de decisión léxica,2024.2.5,Win32,59.88023952,,,,,,,,,,,,,,,,,,,,,,,2343.7259,2344.8965,a,1,0.5173,1,2344.8966,2345.3935,,,,,,106,FEM,NOWORD,AGR,150,vina,,la,,0.5173,,2345.3935,2345.3936,0.515740741,-0.182407407,0,0,0,,0,220,220,105,1,sopa,,,,
,,,,,,5ede78997dfcae0df3dedd9b,676192165fb32c2e1fb7aee6,67d172a53bb4312f534da168,2025-03-12_12h40.35.649,Tarea de decisión léxica,2024.2.5,Win32,59.88023952,,,,,,,,,,,,,,,,,,,,,,,2345.3942,2346.578,a,1,0.5008,1,2346.5781,2347.0785,,,,,,428,FEM,NOWORD,DIS,150,oseva,,el,,0.5008,,2347.0785,2347.0787,0.515740741,-0.182407407,0,0,0,,0,221,221,427,1,oreja,,,,
,,,,,,5ede78997dfcae0df3dedd9b,676192165fb32c2e1fb7aee6,67d172a53bb4312f534da168,2025-03-12_12h40.35.649,Tarea de decisión léxica,2024.2.5,Win32,59.88023952,,,,,,,,,,,,,,,,,,,,,,,2347.0791,2348.1963,l,1,0.4625,1,2348.1963,2348.6968,,,,,,79,FEM,WORD,DIS,150,piel,,el,,0.4625,,2348.6969,2348.6969,0.515740741,-0.182407407,0,0,0,,0,222,222,78,1,ciel,,,,
,,,,,,5ede78997dfcae0df3dedd9b,676192165fb32c2e1fb7aee6,67d172a53bb4312f534da168,2025-03-12_12h40.35.649,Tarea de decisión léxica,2024.2.5,Win32,59.88023952,,,,,,,,,,,,,,,,,,,,,,,2348.6975,2349.798,a,1,0.4373,1,2349.798,2350.2985,,,,,,140,MAS,NOWORD,DIS,150,nila,,la,,0.4373,,2350.299,2350.2993,0.515740741,-0.182407407,0,0,0,,0,223,223,139,1,mago,,,,
,,,,,,5ede78997dfcae0df3dedd9b,676192165fb32c2e1fb7aee6,67d172a53bb4312f534da168,2025-03-12_12h40.35.649,Tarea de decisión léxica,2024.2.5,Win32,59.88023952,,,,,,,,,,,,,,,,,,,,,,,2350.2996,2351.3995,a,1,0.427,1,2351.3995,2351.9001,,,,,,150,MAS,NOWORD,AGR,150,pafo,,el,,0.427,,2351.9001,2351.9001,0.515740741,-0.182407407,0,0,0,,0,224,224,149,1,cabo,,,,
,,,,,,5ede78997dfcae0df3dedd9b,676192165fb32c2e1fb7aee6,67d172a53bb4312f534da168,2025-03-12_12h40.35.649,Tarea de decisión léxica,2024.2.5,Win32,59.88023952,,,,,,,,,,,,,,,,,,,,,,,2351.9006,2352.9845,a,1,0.4174,1,2352.9845,2353.4849,,,,,,332,MAS,NOWORD,DIS,150,erato,,la,,0.4174,,2353.4849,2353.485,0.515740741,-0.182407407,0,0,0,,0,225,225,331,1,éxito,,,,
,,,,,,5ede78997dfcae0df3dedd9b,676192165fb32c2e1fb7aee6,67d172a53bb4312f534da168,2025-03-12_12h40.35.649,Tarea de decisión léxica,2024.2.5,Win32,59.88023952,,,,,,,,,,,,,,,,,,,,,,,2353.4856,2354.536,a,0,0.3893,0,2354.5365,2355.0365,,,,,,163,FEM,WORD,DIS,150,fama,,el,,0.3893,,2355.0365,2355.0366,0.515740741,-0.182407407,0,0,0,,0,226,226,162,1,laga,,,,
,,,,,,5ede78997dfcae0df3dedd9b,676192165fb32c2e1fb7aee6,67d172a53bb4312f534da168,2025-03-12_12h40.35.649,Tarea de decisión léxica,2024.2.5,Win32,59.88023952,,,,,,,,,,,,,,,,,,,,,,,2355.0372,2356.1209,l,1,0.4275,1,2356.1214,2356.6214,,,,,,477,MAS,WORD,DIS,150,botón,,la,,0.4275,,2356.622,2356.6223,0.515740741,-0.182407407,0,0,0,,0,227,227,476,1,hocon,,,,
,,,,,,5ede78997dfcae0df3dedd9b,676192165fb32c2e1fb7aee6,67d172a53bb4312f534da168,2025-03-12_12h40.35.649,Tarea de decisión léxica,2024.2.5,Win32,59.88023952,,,,,,,,,,,,,,,,,,,,,,,2356.6226,2357.7559,a,1,0.4507,1,2357.7559,2358.2563,,,,,,8,MAS,NOWORD,DIS,150,nivo,,la,,0.4507,,2358.2563,2358.2564,0.515740741,-0.182407407,0,0,0,,0,228,228,7,1,hijo,,,,
,,,,,,5ede78997dfcae0df3dedd9b,676192165fb32c2e1fb7aee6,67d172a53bb4312f534da168,2025-03-12_12h40.35.649,Tarea de decisión léxica,2024.2.5,Win32,59.88023952,,,,,,,,,,,,,,,,,,,,,,,2358.2569,2359.3574,l,1,0.4448,1,2359.3575,2359.8579,,,,,,259,MAS,WORD,AGR,150,juego,,el,,0.4448,,2359.858,2359.858,0.515740741,-0.182407407,0,0,0,,0,229,229,258,1,jaumo,,,,
,,,,,,5ede78997dfcae0df3dedd9b,676192165fb32c2e1fb7aee6,67d172a53bb4312f534da168,2025-03-12_12h40.35.649,Tarea de decisión léxica,2024.2.5,Win32,59.88023952,,,,,,,,,,,,,,,,,,,,,,,2359.8586,2361.0591,l,1,0.5392,1,2361.0592,2361.5596,,,,,,33,FEM,WORD,AGR,150,boca,,la,,0.5392,,2361.5596,2361.5596,0.515740741,-0.182407407,0,0,0,,0,230,230,32,1,loda,,,,
,,,,,,5ede78997dfcae0df3dedd9b,676192165fb32c2e1fb7aee6,67d172a53bb4312f534da168,2025-03-12_12h40.35.649,Tarea de decisión léxica,2024.2.5,Win32,59.88023952,,,,,,,,,,,,,,,,,,,,,,,2361.5602,2362.6274,a,1,0.4006,1,2362.6275,2363.1279,,,,,,354,FEM,NOWORD,AGR,150,cezca,,la,,0.4006,,2363.1279,2363.128,0.515740741,-0.182407407,0,0,0,,0,231,231,353,1,celda,,,,
,,,,,,5ede78997dfcae0df3dedd9b,676192165fb32c2e1fb7aee6,67d172a53bb4312f534da168,2025-03-12_12h40.35.649,Tarea de decisión léxica,2024.2.5,Win32,59.88023952,,,,,,,,,,,,,,,,,,,,,,,2363.1284,2364.1956,l,1,0.3866,1,2364.1957,2364.6961,,,,,,95,FEM,WORD,AGR,151,moda,,la,,0.3866,,2364.6966,2364.697,0.515740741,-0.182407407,0,0,0,,0,232,232,94,1,neda,,,,
,,,,,,5ede78997dfcae0df3dedd9b,676192165fb32c2e1fb7aee6,67d172a53bb4312f534da168,2025-03-12_12h40.35.649,Tarea de decisión léxica,2024.2.5,Win32,59.88023952,,,,,,,,,,,,,,,,,,,,,,,2364.6973,2365.7808,a,1,0.4135,1,2365.7808,2366.281,,,,,,38,MAS,NOWORD,AGR,150,gaco,,el,,0.4135,,2366.2811,2366.2811,0.515740741,-0.182407407,0,0,0,,0,233,233,37,1,rato,,,,
,,,,,,5ede78997dfcae0df3dedd9b,676192165fb32c2e1fb7aee6,67d172a53bb4312f534da168,2025-03-12_12h40.35.649,Tarea de decisión léxica,2024.2.5,Win32,59.88023952,,,,,,,,,,,,,,,,,,,,,,,2366.2816,2367.549,a,1,0.6141,1,2367.5492,2368.0494,,,,,,462,FEM,NOWORD,AGR,150,pagra,,la,,0.6141,,2368.0494,2368.0496,0.515740741,-0.182407407,0,0,0,,0,234,234,461,1,tabla,,,,
,,,,,,5ede78997dfcae0df3dedd9b,676192165fb32c2e1fb7aee6,67d172a53bb4312f534da168,2025-03-12_12h40.35.649,Tarea de decisión léxica,2024.2.5,Win32,59.88023952,,,,,,,,,,,,,,,,,,,,,,,2368.0501,2369.4675,a,0,0.7626,0,2369.4679,2369.968,,,,,,75,MAS,WORD,AGR,150,olor,,el,,0.7626,,2369.968,2369.9681,0.515740741,-0.182407407,0,0,0,,0,235,235,74,1,ocer,,,,
,,,,,,5ede78997dfcae0df3dedd9b,676192165fb32c2e1fb7aee6,67d172a53bb4312f534da168,2025-03-12_12h40.35.649,Tarea de decisión léxica,2024.2.5,Win32,59.88023952,,,,,,,,,,,,,,,,,,,,,,,2369.9687,2371.0024,l,1,0.379,1,2371.0028,2371.5028,,,,,,31,FEM,WORD,DIS,150,ropa,,el,,0.379,,2371.5029,2371.5029,0.515740741,-0.182407407,0,0,0,,0,236,236,30,1,bova,,,,
,,,,,,5ede78997dfcae0df3dedd9b,676192165fb32c2e1fb7aee6,67d172a53bb4312f534da168,2025-03-12_12h40.35.649,Tarea de decisión léxica,2024.2.5,Win32,59.88023952,,,,,,,,,,,,,,,,,,,,,,,2371.5035,2373.188,a,0,1.0312,0,2373.1883,2373.6884,,,,,,137,MAS,WORD,AGR,150,nene,,el,,1.0312,,2373.6888,2373.6892,0.515740741,-0.182407407,0,0,0,,0,237,237,136,1,pamo,,,,
,,,,,,5ede78997dfcae0df3dedd9b,676192165fb32c2e1fb7aee6,67d172a53bb4312f534da168,2025-03-12_12h40.35.649,Tarea de decisión léxica,2024.2.5,Win32,59.88023952,,,,,,,,,,,,,,,,,,,,,,,2373.6895,2374.6894,l,0,0.334,0,2374.6894,2375.1899,,,,,,78,MAS,NOWORD,AGR,150,fodo,,el,,0.334,,2375.1899,2375.19,0.515740741,-0.182407407,0,0,0,,0,238,238,77,1,loco,,,,
,,,,,,5ede78997dfcae0df3dedd9b,676192165fb32c2e1fb7aee6,67d172a53bb4312f534da168,2025-03-12_12h40.35.649,Tarea de decisión léxica,2024.2.5,Win32,59.88023952,,,,,,,,,,,,,,,,,,,,,,,2375.1905,2376.2243,l,1,0.3534,1,2376.2248,2376.7247,,,,,,225,MAS,WORD,AGR,150,lodo,,el,,0.3534,,2376.7248,2376.7249,0.515740741,-0.182407407,0,0,0,,0,239,239,224,1,boco,,,,
,,,,,,5ede78997dfcae0df3dedd9b,676192165fb32c2e1fb7aee6,67d172a53bb4312f534da168,2025-03-12_12h40.35.649,Tarea de decisión léxica,2024.2.5,Win32,59.88023952,,,,,,,,,,,,,,,,,,,,,,,2376.7255,2377.8592,l,1,0.4773,1,2377.8593,2378.3597,,,,,,201,FEM,WORD,DIS,150,cuna,,el,,0.4773,,2378.3597,2378.3598,0.515740741,-0.182407407,0,0,0,,0,240,240,200,1,cusa,,,,
,,,,,,5ede78997dfcae0df3dedd9b,676192165fb32c2e1fb7aee6,67d172a53bb4312f534da168,2025-03-12_12h40.35.649,Tarea de decisión léxica,2024.2.5,Win32,59.88023952,,,,,,,,,,,,,,,,,,,,,,,2378.3603,2379.5109,a,1,0.4903,1,2379.5109,2380.0113,,,,,,222,FEM,NOWORD,AGR,150,puca,,la,,0.4903,,2380.0113,2380.0114,0.515740741,-0.182407407,0,0,0,,0,241,241,221,1,mula,,,,
,,,,,,5ede78997dfcae0df3dedd9b,676192165fb32c2e1fb7aee6,67d172a53bb4312f534da168,2025-03-12_12h40.35.649,Tarea de decisión léxica,2024.2.5,Win32,59.88023952,,,,,,,,,,,,,,,,,,,,,,,2380.012,2381.1459,l,1,0.4678,1,2381.1459,2381.6463,,,,,,361,FEM,WORD,AGR,150,torre,,la,,0.4678,,2381.6469,2381.6473,0.515740741,-0.182407407,0,0,0,,0,242,242,360,1,solle,,,,
,,,,,,5ede78997dfcae0df3dedd9b,676192165fb32c2e1fb7aee6,67d172a53bb4312f534da168,2025-03-12_12h40.35.649,Tarea de decisión léxica,2024.2.5,Win32,59.88023952,,,,,,,,,,,,,,,,,,,,,,,2381.6477,2382.8809,a,1,0.5632,1,2382.8809,2383.3814,,,,,,60,FEM,NOWORD,DIS,150,tafa,,el,,0.5632,,2383.3814,2383.3814,0.515740741,-0.182407407,0,0,0,,0,243,243,59,1,sala,,,,
,,,,,,5ede78997dfcae0df3dedd9b,676192165fb32c2e1fb7aee6,67d172a53bb4312f534da168,2025-03-12_12h40.35.649,Tarea de decisión léxica,2024.2.5,Win32,59.88023952,,,,,,,,,,,,,,,,,,,,,,,2383.3821,2384.4324,l,1,0.3839,1,2384.4325,2384.9329,,,,,,21,MAS,WORD,DIS,150,plan,,la,,0.3839,,2384.9329,2384.933,0.515740741,-0.182407407,0,0,0,,0,244,244,20,1,blan,,,,
,,,,,,5ede78997dfcae0df3dedd9b,676192165fb32c2e1fb7aee6,67d172a53bb4312f534da168,2025-03-12_12h40.35.649,Tarea de decisión léxica,2024.2.5,Win32,59.88023952,,,,,,,,,,,,,,,,,,,,,,,2384.9336,2386.034,l,1,0.4441,1,2386.034,2386.5345,,,,,,445,MAS,WORD,AGR,150,actor,,el,,0.4441,,2386.5345,2386.5346,0.515740741,-0.182407407,0,0,0,,0,245,245,444,1,ascor,,,,
,,,,,,5ede78997dfcae0df3dedd9b,676192165fb32c2e1fb7aee6,67d172a53bb4312f534da168,2025-03-12_12h40.35.649,Tarea de decisión léxica,2024.2.5,Win32,59.88023952,,,,,,,,,,,,,,,,,,,,,,,2386.5351,2387.5856,l,1,0.3917,1,2387.5856,2388.086,,,,,,105,FEM,WORD,AGR,150,sopa,,la,,0.3917,,2388.086,2388.0861,0.515740741,-0.182407407,0,0,0,,0,246,246,104,1,vina,,,,
,,,,,,5ede78997dfcae0df3dedd9b,676192165fb32c2e1fb7aee6,67d172a53bb4312f534da168,2025-03-12_12h40.35.649,Tarea de decisión léxica,2024.2.5,Win32,59.88023952,,,,,,,,,,,,,,,,,,,,,,,2388.0866,2389.2873,a,1,0.534,1,2389.2873,2389.7877,,,,,,228,MAS,NOWORD,DIS,150,laro,,la,,0.534,,2389.7883,2389.7886,0.515740741,-0.182407407,0,0,0,,0,247,247,227,1,faro,,,,
,,,,,,5ede78997dfcae0df3dedd9b,676192165fb32c2e1fb7aee6,67d172a53bb4312f534da168,2025-03-12_12h40.35.649,Tarea de decisión léxica,2024.2.5,Win32,59.88023952,,,,,,,,,,,,,,,,,,,,,,,2389.7889,2391.0223,a,1,0.5636,1,2391.0224,2391.5228,,,,,,288,FEM,NOWORD,DIS,150,fosta,,el,,0.5636,,2391.5228,2391.5229,0.515740741,-0.182407407,0,0,0,,0,248,248,287,1,lista,,,,
,,,,,,5ede78997dfcae0df3dedd9b,676192165fb32c2e1fb7aee6,67d172a53bb4312f534da168,2025-03-12_12h40.35.649,Tarea de decisión léxica,2024.2.5,Win32,59.88023952,,,,,,,,,,,,,,,,,,,,,,,2391.5235,2392.6405,l,0,0.4602,0,2392.641,2393.141,,,,,,340,MAS,NOWORD,DIS,150,plajo,,la,,0.4602,,2393.1411,2393.1411,0.515740741,-0.182407407,0,0,0,,0,249,249,339,1,brazo,,,,
,,,,,,5ede78997dfcae0df3dedd9b,676192165fb32c2e1fb7aee6,67d172a53bb4312f534da168,2025-03-12_12h40.35.649,Tarea de decisión léxica,2024.2.5,Win32,59.88023952,,,,,,,,,,,,,,,,,,,,,,,2393.1417,2394.2422,l,0,0.4441,0,2394.2422,2394.7427,,,,,,420,MAS,NOWORD,DIS,150,chudo,,la,,0.4441,,2394.7427,2394.7427,0.515740741,-0.182407407,0,0,0,,0,250,250,419,1,truco,,,,
,,,,,,5ede78997dfcae0df3dedd9b,676192165fb32c2e1fb7aee6,67d172a53bb4312f534da168,2025-03-12_12h40.35.649,Tarea de decisión léxica,2024.2.5,Win32,59.88023952,,,,,,,,,,,,,,,,,,,,,,,2394.7433,2396.2275,a,1,0.8214,1,2396.2279,2396.728,,,,,,6,FEM,NOWORD,AGR,150,poga,,la,,0.8214,,2396.7285,2396.7288,0.515740741,-0.182407407,0,0,0,,0,251,251,5,1,cosa,,,,
,,,,,,5ede78997dfcae0df3dedd9b,676192165fb32c2e1fb7aee6,67d172a53bb4312f534da168,2025-03-12_12h40.35.649,Tarea de decisión léxica,2024.2.5,Win32,59.88023952,,,,,,,,,,,,,,,,,,,,,,,2396.7292,2398.1127,a,1,0.7083,1,2398.1127,2398.6132,,,,,,2,FEM,NOWORD,AGR,150,mada,,la,,0.7083,,2398.6132,2398.6133,0.515740741,-0.182407407,0,0,0,,0,252,252,1,1,casa,,,,
,,,,,,5ede78997dfcae0df3dedd9b,676192165fb32c2e1fb7aee6,67d172a53bb4312f534da168,2025-03-12_12h40.35.649,Tarea de decisión léxica,2024.2.5,Win32,59.88023952,,,,,,,,,,,,,,,,,,,,,,,2398.6137,2399.8311,a,1,0.5559,1,2399.8312,2400.3316,,,,,,298,MAS,NOWORD,AGR,150,brubo,,el,,0.5559,,2400.3317,2400.3317,0.515740741,-0.182407407,0,0,0,,0,253,253,297,1,grupo,,,,
,,,,,,5ede78997dfcae0df3dedd9b,676192165fb32c2e1fb7aee6,67d172a53bb4312f534da168,2025-03-12_12h40.35.649,Tarea de decisión léxica,2024.2.5,Win32,59.88023952,,,,,,,,,,,,,,,,,,,,,,,2400.3323,2401.4494,a,1,0.4594,1,2401.4494,2401.9499,,,,,,244,MAS,NOWORD,DIS,150,asamo,,la,,0.4594,,2401.9499,2401.9499,0.515740741,-0.182407407,0,0,0,,0,254,254,243,1,amigo,,,,
,,,,,,5ede78997dfcae0df3dedd9b,676192165fb32c2e1fb7aee6,67d172a53bb4312f534da168,2025-03-12_12h40.35.649,Tarea de decisión léxica,2024.2.5,Win32,59.88023952,,,,,,,,,,,,,,,,,,,,,,,2401.9505,2403.0176,l,1,0.3854,1,2403.0177,2403.5181,,,,,,289,FEM,WORD,DIS,150,bomba,,el,,0.3854,,2403.5181,2403.5182,0.515740741,-0.182407407,0,0,0,,0,255,255,288,1,bumpa,,,,
,,,,,,5ede78997dfcae0df3dedd9b,676192165fb32c2e1fb7aee6,67d172a53bb4312f534da168,2025-03-12_12h40.35.649,Tarea de decisión léxica,2024.2.5,Win32,59.88023952,,,,,,,,,,,,,,,,,,,,,,,2403.5188,2404.5692,l,1,0.3871,1,2404.5692,2405.0696,,,,,,119,MAS,WORD,AGR,150,pozo,,el,,0.3871,,2405.0703,2405.0706,0.515740741,-0.182407407,0,0,0,,0,256,256,118,1,hooy,,,,
,,,,,,5ede78997dfcae0df3dedd9b,676192165fb32c2e1fb7aee6,67d172a53bb4312f534da168,2025-03-12_12h40.35.649,Tarea de decisión léxica,2024.2.5,Win32,59.88023952,,,,,,,,,,,,,,,,,,,,,,,2405.0709,2406.1207,l,1,0.3738,1,2406.1207,2406.6212,,,,,,165,FEM,WORD,AGR,150,vela,,la,,0.3738,,2406.6212,2406.6212,0.515740741,-0.182407407,0,0,0,,0,257,257,164,1,dera,,,,
,,,,,,5ede78997dfcae0df3dedd9b,676192165fb32c2e1fb7aee6,67d172a53bb4312f534da168,2025-03-12_12h40.35.649,Tarea de decisión léxica,2024.2.5,Win32,59.88023952,,,,,,,,,,,,,,,,,,,,,,,2406.6219,2407.6222,l,1,0.3339,1,2407.6222,2408.1226,,,,,,369,MAS,WORD,DIS,150,ruido,,la,,0.3339,,2408.1227,2408.1227,0.515740741,-0.182407407,0,0,0,,0,258,258,368,1,rioco,,,,
,,,,,,5ede78997dfcae0df3dedd9b,676192165fb32c2e1fb7aee6,67d172a53bb4312f534da168,2025-03-12_12h40.35.649,Tarea de decisión léxica,2024.2.5,Win32,59.88023952,,,,,,,,,,,,,,,,,,,,,,,2408.1233,2409.2071,a,1,0.4194,1,2409.2071,2409.7076,,,,,,290,FEM,NOWORD,AGR,150,bumpa,,la,,0.4194,,2409.7076,2409.7077,0.515740741,-0.182407407,0,0,0,,0,259,259,289,1,bomba,,,,
,,,,,,5ede78997dfcae0df3dedd9b,676192165fb32c2e1fb7aee6,67d172a53bb4312f534da168,2025-03-12_12h40.35.649,Tarea de decisión léxica,2024.2.5,Win32,59.88023952,,,,,,,,,,,,,,,,,,,,,,,2409.7082,2411.1924,a,1,0.8176,1,2411.1924,2411.6929,,,,,,12,MAS,NOWORD,DIS,150,bapo,,la,,0.8176,,2411.6929,2411.693,0.515740741,-0.182407407,0,0,0,,0,260,260,11,1,lado,,,,
,,,,,,5ede78997dfcae0df3dedd9b,676192165fb32c2e1fb7aee6,67d172a53bb4312f534da168,2025-03-12_12h40.35.649,Tarea de decisión léxica,2024.2.5,Win32,59.88023952,,,,,,,,,,,,,,,,,,,,,,,2411.6936,2412.794,a,1,0.4186,1,2412.794,2413.2945,,,,,,94,FEM,NOWORD,AGR,150,rona,,la,,0.4186,,2413.2951,2413.2954,0.515740741,-0.182407407,0,0,0,,0,261,261,93,1,bola,,,,
,,,,,,5ede78997dfcae0df3dedd9b,676192165fb32c2e1fb7aee6,67d172a53bb4312f534da168,2025-03-12_12h40.35.649,Tarea de decisión léxica,2024.2.5,Win32,59.88023952,,,,,,,,,,,,,,,,,,,,,,,2413.2958,2414.7293,a,1,0.7619,1,2414.7293,2415.2298,,,,,,86,MAS,NOWORD,AGR,150,babo,,el,,0.7619,,2415.2298,2415.2299,0.515740741,-0.182407407,0,0,0,,0,262,262,85,1,lago,,,,
