counterbalancing_condition,consent_prescreening.block_1/declare_consent,consent_prescreening.block_1/age_years,consent_prescreening.block_1/gender,consent_prescreening.block_1/language_disorder,consent_prescreening.block_1/first_language,PROLIFIC_PID,STUDY_ID,SESSION_ID,date,expName,psychopyVersion,OS,frameRate,check_prescreening_answers.started,check_prescreening_answers.stopped,Instructions.started,Instructions.stopped,instr_done_keyboard.keys,instr_done_keyboard.rt,instr_done_keyboard.duration,instr_done_touch.x,instr_done_touch.y,instr_done_touch.leftButton,instr_done_touch.midButton,instr_done_touch.rightButton,instruction_pages.thisRepN,instruction_pages.thisTrialN,instruction_pages.thisN,instruction_pages.thisIndex,instruction_pages.ran,pageN,phase,instruct_text,has_image,instruct_image,presentTrial.started,presentTrial.stopped,response.keys,response.corr,rt,corr,feedback.started,feedback.stopped,practice_trials.thisRepN,practice_trials.thisTrialN,practice_trials.thisN,practice_trials.thisIndex,practice_trials.ran,TrialID,Gender,StimulusType,Condition,PrimeDuration,Prime,len,Flanker,corrAns,response.rt,response.duration,Break.started,Break.stopped,break_done_touch.x,break_done_touch.y,break_done_touch.leftButton,break_done_touch.midButton,break_done_touch.rightButton,break_done_keyboard.keys,experiment_trials.thisRepN,experiment_trials.thisTrialN,experiment_trials.thisN,experiment_trials.thisIndex,experiment_trials.ran,PairedWith,break_done_keyboard.rt,break_done_keyboard.duration,End.started,End.stopped
1,"[""over_18"",""comfortable"",""read_info"",""consent_given""]",34,M,"[""none""]","[""spanish""]",5ee95917bdb5522f9ee95e4f,676192165fb32c2e1fb7aee6,67d15f24b1f51f8b251a3b2f,2025-03-12_04h23.58.422,Tarea de decisión léxica,2024.2.5,Win32,119.047619,,,,,,,,,,,,,,,,,,,,,,,,,,,,,,,,,,,,,,,,,,,,,,,,,,,,,,,,,,,,,,,,
,,,,,,5ee95917bdb5522f9ee95e4f,676192165fb32c2e1fb7aee6,67d15f24b1f51f8b251a3b2f,2025-03-12_04h23.58.422,Tarea de decisión léxica,2024.2.5,Win32,119.047619,27.5659,27.5659,,,,,,,,,,,,,,,,,,,,,,,,,,,,,,,,,,,,,,,,,,,,,,,,,,,,,,,,,,,,,,
,,,,,,5ee95917bdb5522f9ee95e4f,676192165fb32c2e1fb7aee6,67d15f24b1f51f8b251a3b2f,2025-03-12_04h23.58.422,Tarea de decisión léxica,2024.2.5,Win32,119.047619,,,27.5816,42.6087,space,15.0039,,-0.006481481,0.017592593,0,0,0,0,0,0,0,1,1,instructions,"INSTRUCCIONES
Va a realizar una prueba de decisión léxica. Desde el comienzo de la prueba mire siempre al centro de la pantalla. Se presentará una serie de cadenas de letras, una a la vez, en la pantalla. Su tarea consiste en determinar si cada cadena de letras constituye una palabra real en español o una no-palabra (una secuencia de letras que no constituye una palabra real). 

Pulse la tecla ESPACIO para continuar.",0,keyboardresponseWN.png,,,,,,,,,,,,,,,,,,,,,,,,,,,,,,,,,,,,,,,,,,
,,,,,,5ee95917bdb5522f9ee95e4f,676192165fb32c2e1fb7aee6,67d15f24b1f51f8b251a3b2f,2025-03-12_04h23.58.422,Tarea de decisión léxica,2024.2.5,Win32,119.047619,,,42.6108,63.9418,space,21.3013,,-0.006481481,0.017592593,0,0,0,0,1,1,1,1,2,instructions,"El procedimiento es el siguiente: Aparecerán dos barras verticales posicionadas en el centro de la pantalla, separadas por un pequeño espacio.Por favor, enfoque su atención en el espacio entre las barras. Esto preparará sus ojos para la siguiente cadena de letras, que aparecerá entre las dos barras durante un instante.

Pulse la tecla ESPACIO para continuar.",0,keyboardresponseWN.png,,,,,,,,,,,,,,,,,,,,,,,,,,,,,,,,,,,,,,,,,,
,,,,,,5ee95917bdb5522f9ee95e4f,676192165fb32c2e1fb7aee6,67d15f24b1f51f8b251a3b2f,2025-03-12_04h23.58.422,Tarea de decisión léxica,2024.2.5,Win32,119.047619,,,63.9433,80.1572,space,16.1696,,-0.006481481,0.017592593,0,0,0,0,2,2,2,1,3,instructions,"En el teclado de su dispositivo, pulse la tecla ""A"" si la cadena de letras es una palabra real en español (por ejemplo: ""mano"") y la tecla ""L"" si la cadena de letras es una no-palabra (por ejemplo: ""minu"").
Pulse la tecla ESPACIO para continuar.",1,keyboardresponseWN.png,,,,,,,,,,,,,,,,,,,,,,,,,,,,,,,,,,,,,,,,,,
,,,,,,5ee95917bdb5522f9ee95e4f,676192165fb32c2e1fb7aee6,67d15f24b1f51f8b251a3b2f,2025-03-12_04h23.58.422,Tarea de decisión léxica,2024.2.5,Win32,119.047619,,,80.1593,92.191,space,12.0008,,-0.006481481,0.017592593,0,0,0,0,3,3,3,1,4,instructions,"Es muy importante que responda con la mayor rapidez y precisión posibles. Si no responde dentro de 2 segundos, aparecerá el mensaje ""Muy lento"" y el experimento pasará a la siguiente palabra. Inmediatamente después de su respuesta se indicará si fue correcta o no. Los primeros 15 intentos serán de práctica y habrá dos descansos durante la prueba.

Pulse la tecla ESPACIO  para iniciar la parte de práctica.",0,keyboardresponseWN.png,,,,,,,,,,,,,,,,,,,,,,,,,,,,,,,,,,,,,,,,,,
,,,,,,5ee95917bdb5522f9ee95e4f,676192165fb32c2e1fb7aee6,67d15f24b1f51f8b251a3b2f,2025-03-12_04h23.58.422,Tarea de decisión léxica,2024.2.5,Win32,119.047619,,,,,,,,,,,,,,,,,,,,,,,92.2033,94.8566,,0,,-1,94.8569,95.3566,0,0,0,5,1,1006,FEM,WORD,AGR,150,cara,4,la,l,,,,,,,,,,,,,,,,,,,,
,,,,,,5ee95917bdb5522f9ee95e4f,676192165fb32c2e1fb7aee6,67d15f24b1f51f8b251a3b2f,2025-03-12_04h23.58.422,Tarea de decisión léxica,2024.2.5,Win32,119.047619,,,,,,,,,,,,,,,,,,,,,,,95.3579,96.7904,l,1,0.7506,1,96.7958,97.2899,0,1,1,3,1,1004,FEM,NOWORD,AGR,150,bireo,5,la,a,0.7506,,,,,,,,,,,,,,,,,,,
,,,,,,5ee95917bdb5522f9ee95e4f,676192165fb32c2e1fb7aee6,67d15f24b1f51f8b251a3b2f,2025-03-12_04h23.58.422,Tarea de decisión léxica,2024.2.5,Win32,119.047619,,,,,,,,,,,,,,,,,,,,,,,97.2908,98.64,l,1,0.6669,1,98.64,99.123,0,2,2,4,1,1005,MAS,NOWORD,DIS,150,nobad,5,la,a,0.6669,,,,,,,,,,,,,,,,,,,
,,,,,,5ee95917bdb5522f9ee95e4f,676192165fb32c2e1fb7aee6,67d15f24b1f51f8b251a3b2f,2025-03-12_04h23.58.422,Tarea de decisión léxica,2024.2.5,Win32,119.047619,,,,,,,,,,,,,,,,,,,,,,,99.124,100.4097,a,1,0.6033,1,100.4098,100.9094,0,3,3,6,1,1007,MAS,WORD,DIS,150,masa,4,la,l,0.6033,,,,,,,,,,,,,,,,,,,
,,,,,,5ee95917bdb5522f9ee95e4f,676192165fb32c2e1fb7aee6,67d15f24b1f51f8b251a3b2f,2025-03-12_04h23.58.422,Tarea de decisión léxica,2024.2.5,Win32,119.047619,,,,,,,,,,,,,,,,,,,,,,,100.9103,102.1091,a,1,0.5193,1,102.1092,102.609,0,4,4,7,1,1008,MAS,WORD,DIS,150,frío,4,la,l,0.5193,,,,,,,,,,,,,,,,,,,
,,,,,,5ee95917bdb5522f9ee95e4f,676192165fb32c2e1fb7aee6,67d15f24b1f51f8b251a3b2f,2025-03-12_04h23.58.422,Tarea de decisión léxica,2024.2.5,Win32,119.047619,,,,,,,,,,,,,,,,,,,,,,,102.6098,103.9237,l,1,0.6337,1,103.9238,104.4232,0,5,5,0,1,1001,FEM,NOWORD,AGR,150,croz,4,la,a,0.6337,,,,,,,,,,,,,,,,,,,
,,,,,,5ee95917bdb5522f9ee95e4f,676192165fb32c2e1fb7aee6,67d15f24b1f51f8b251a3b2f,2025-03-12_04h23.58.422,Tarea de decisión léxica,2024.2.5,Win32,119.047619,,,,,,,,,,,,,,,,,,,,,,,104.4243,105.7736,l,1,0.6837,1,105.7736,106.2736,0,6,6,2,1,1003,FEM,NOWORD,DIS,150,muvor,5,el,a,0.6837,,,,,,,,,,,,,,,,,,,
,,,,,,5ee95917bdb5522f9ee95e4f,676192165fb32c2e1fb7aee6,67d15f24b1f51f8b251a3b2f,2025-03-12_04h23.58.422,Tarea de decisión léxica,2024.2.5,Win32,119.047619,,,,,,,,,,,,,,,,,,,,,,,106.2743,107.6235,l,1,0.667,1,107.6235,108.1231,0,7,7,1,1,1002,FEM,NOWORD,DIS,150,mabo,4,el,a,0.667,,,,,,,,,,,,,,,,,,,
,,,,,,5ee95917bdb5522f9ee95e4f,676192165fb32c2e1fb7aee6,67d15f24b1f51f8b251a3b2f,2025-03-12_04h23.58.422,Tarea de decisión léxica,2024.2.5,Win32,119.047619,,,,,,,,,,,,,,,,,,,,,,,108.1238,109.2734,a,1,0.4836,1,109.2735,109.7732,0,8,8,9,1,1010,MAS,WORD,DIS,150,video,5,la,l,0.4836,,,,,,,,,,,,,,,,,,,
,,,,,,5ee95917bdb5522f9ee95e4f,676192165fb32c2e1fb7aee6,67d15f24b1f51f8b251a3b2f,2025-03-12_04h23.58.422,Tarea de decisión léxica,2024.2.5,Win32,119.047619,,,,,,,,,,,,,,,,,,,,,,,109.7741,110.9401,a,1,0.5004,1,110.9401,111.4397,0,9,9,8,1,1009,FEM,WORD,AGR,150,viejo,5,la,l,0.5004,,,,,,,,,,,,,,,,,,,
,,,,,,5ee95917bdb5522f9ee95e4f,676192165fb32c2e1fb7aee6,67d15f24b1f51f8b251a3b2f,2025-03-12_04h23.58.422,Tarea de decisión léxica,2024.2.5,Win32,119.047619,,,146.8419,160.8571,space,13.9825,,-0.006481481,0.017592593,0,0,0,,,,,,,,,,,160.8882,162.1233,l,1,0.5666,1,162.1234,162.6232,,,,,,120,MAS,NOWORD,DIS,150,hooy,,la,,0.5666,,162.6234,162.6265,-0.006481481,0.017592593,0,0,0,,0,0,0,119,1,pozo,,,,
,,,,,,5ee95917bdb5522f9ee95e4f,676192165fb32c2e1fb7aee6,67d15f24b1f51f8b251a3b2f,2025-03-12_04h23.58.422,Tarea de decisión léxica,2024.2.5,Win32,119.047619,,,,,,,,,,,,,,,,,,,,,,,162.627,163.74,a,0,0.4307,0,163.7408,164.2233,,,,,,116,FEM,NOWORD,DIS,150,haca,,el,,0.4307,,164.2233,164.2234,-0.006481481,0.017592593,0,0,0,,0,1,1,115,1,pata,,,,
,,,,,,5ee95917bdb5522f9ee95e4f,676192165fb32c2e1fb7aee6,67d15f24b1f51f8b251a3b2f,2025-03-12_04h23.58.422,Tarea de decisión léxica,2024.2.5,Win32,119.047619,,,,,,,,,,,,,,,,,,,,,,,164.2243,165.6093,l,1,0.7002,1,165.6098,166.1085,,,,,,378,MAS,NOWORD,AGR,150,gaulo,,el,,0.7002,,166.1093,166.1097,-0.006481481,0.017592593,0,0,0,,0,2,2,377,1,hielo,,,,
,,,,,,5ee95917bdb5522f9ee95e4f,676192165fb32c2e1fb7aee6,67d15f24b1f51f8b251a3b2f,2025-03-12_04h23.58.422,Tarea de decisión léxica,2024.2.5,Win32,119.047619,,,,,,,,,,,,,,,,,,,,,,,166.1101,167.3567,l,1,0.567,1,167.3567,167.8398,,,,,,394,FEM,NOWORD,AGR,150,ashea,,la,,0.567,,167.8399,167.84,-0.006481481,0.017592593,0,0,0,,0,3,3,393,1,aldea,,,,
,,,,,,5ee95917bdb5522f9ee95e4f,676192165fb32c2e1fb7aee6,67d15f24b1f51f8b251a3b2f,2025-03-12_04h23.58.422,Tarea de decisión léxica,2024.2.5,Win32,119.047619,,,,,,,,,,,,,,,,,,,,,,,167.8408,169.1735,a,1,0.6505,1,169.1735,169.6731,,,,,,105,FEM,WORD,AGR,150,sopa,,la,,0.6505,,169.6731,169.6731,-0.006481481,0.017592593,0,0,0,,0,4,4,104,1,vina,,,,
,,,,,,5ee95917bdb5522f9ee95e4f,676192165fb32c2e1fb7aee6,67d15f24b1f51f8b251a3b2f,2025-03-12_04h23.58.422,Tarea de decisión léxica,2024.2.5,Win32,119.047619,,,,,,,,,,,,,,,,,,,,,,,169.674,171.0569,l,1,0.7171,1,171.057,171.5568,,,,,,372,FEM,NOWORD,DIS,150,mosta,,el,,0.7171,,171.5568,171.5569,-0.006481481,0.017592593,0,0,0,,0,5,5,371,1,pasta,,,,
,,,,,,5ee95917bdb5522f9ee95e4f,676192165fb32c2e1fb7aee6,67d15f24b1f51f8b251a3b2f,2025-03-12_04h23.58.422,Tarea de decisión léxica,2024.2.5,Win32,119.047619,,,,,,,,,,,,,,,,,,,,,,,171.5576,172.9235,l,1,0.6839,1,172.9237,173.4264,,,,,,94,FEM,NOWORD,AGR,150,rona,,la,,0.6839,,173.4264,173.4265,-0.006481481,0.017592593,0,0,0,,0,6,6,93,1,bola,,,,
,,,,,,5ee95917bdb5522f9ee95e4f,676192165fb32c2e1fb7aee6,67d15f24b1f51f8b251a3b2f,2025-03-12_04h23.58.422,Tarea de decisión léxica,2024.2.5,Win32,119.047619,,,,,,,,,,,,,,,,,,,,,,,173.4271,174.426,a,1,0.3197,1,174.426,174.9256,,,,,,259,MAS,WORD,AGR,150,juego,,el,,0.3197,,174.9264,174.9269,-0.006481481,0.017592593,0,0,0,,0,7,7,258,1,jaumo,,,,
,,,,,,5ee95917bdb5522f9ee95e4f,676192165fb32c2e1fb7aee6,67d15f24b1f51f8b251a3b2f,2025-03-12_04h23.58.422,Tarea de decisión léxica,2024.2.5,Win32,119.047619,,,,,,,,,,,,,,,,,,,,,,,174.9273,176.1402,a,1,0.5337,1,176.1402,176.6401,,,,,,467,MAS,WORD,DIS,150,piano,,la,,0.5337,,176.6401,176.6402,-0.006481481,0.017592593,0,0,0,,0,8,8,466,1,peiso,,,,
,,,,,,5ee95917bdb5522f9ee95e4f,676192165fb32c2e1fb7aee6,67d15f24b1f51f8b251a3b2f,2025-03-12_04h23.58.422,Tarea de decisión léxica,2024.2.5,Win32,119.047619,,,,,,,,,,,,,,,,,,,,,,,176.6408,177.9733,l,0,0.6484,0,177.9738,178.473,,,,,,219,FEM,WORD,DIS,150,pipa,,el,,0.6484,,178.4731,178.4731,-0.006481481,0.017592593,0,0,0,,0,9,9,218,1,miva,,,,
,,,,,,5ee95917bdb5522f9ee95e4f,676192165fb32c2e1fb7aee6,67d15f24b1f51f8b251a3b2f,2025-03-12_04h23.58.422,Tarea de decisión léxica,2024.2.5,Win32,119.047619,,,,,,,,,,,,,,,,,,,,,,,178.4739,179.6566,a,0,0.5166,0,179.6567,180.1401,,,,,,290,FEM,NOWORD,AGR,150,bumpa,,la,,0.5166,,180.1401,180.1402,-0.006481481,0.017592593,0,0,0,,0,10,10,289,1,bomba,,,,
,,,,,,5ee95917bdb5522f9ee95e4f,676192165fb32c2e1fb7aee6,67d15f24b1f51f8b251a3b2f,2025-03-12_04h23.58.422,Tarea de decisión léxica,2024.2.5,Win32,119.047619,,,,,,,,,,,,,,,,,,,,,,,180.1409,181.3736,a,0,0.5499,0,181.3737,181.8732,,,,,,332,MAS,NOWORD,DIS,150,erato,,la,,0.5499,,181.874,181.8745,-0.006481481,0.017592593,0,0,0,,0,11,11,331,1,éxito,,,,
,,,,,,5ee95917bdb5522f9ee95e4f,676192165fb32c2e1fb7aee6,67d15f24b1f51f8b251a3b2f,2025-03-12_04h23.58.422,Tarea de decisión léxica,2024.2.5,Win32,119.047619,,,,,,,,,,,,,,,,,,,,,,,181.875,182.99,a,1,0.4337,1,182.9905,183.49,,,,,,101,MAS,WORD,DIS,150,tono,,la,,0.4337,,183.4901,183.4901,-0.006481481,0.017592593,0,0,0,,0,12,12,100,1,gito,,,,
,,,,,,5ee95917bdb5522f9ee95e4f,676192165fb32c2e1fb7aee6,67d15f24b1f51f8b251a3b2f,2025-03-12_04h23.58.422,Tarea de decisión léxica,2024.2.5,Win32,119.047619,,,,,,,,,,,,,,,,,,,,,,,183.4907,184.542,a,0,0.3855,0,184.5425,185.0234,,,,,,180,MAS,NOWORD,DIS,150,sono,,la,,0.3855,,185.0235,185.0236,-0.006481481,0.017592593,0,0,0,,0,13,13,179,1,toro,,,,
,,,,,,5ee95917bdb5522f9ee95e4f,676192165fb32c2e1fb7aee6,67d15f24b1f51f8b251a3b2f,2025-03-12_04h23.58.422,Tarea de decisión léxica,2024.2.5,Win32,119.047619,,,,,,,,,,,,,,,,,,,,,,,185.0245,186.4236,a,0,0.7172,0,186.4236,186.9233,,,,,,242,MAS,NOWORD,AGR,150,mirdo,,el,,0.7172,,186.9233,186.9234,-0.006481481,0.017592593,0,0,0,,0,14,14,241,1,mundo,,,,
,,,,,,5ee95917bdb5522f9ee95e4f,676192165fb32c2e1fb7aee6,67d15f24b1f51f8b251a3b2f,2025-03-12_04h23.58.422,Tarea de decisión léxica,2024.2.5,Win32,119.047619,,,,,,,,,,,,,,,,,,,,,,,186.924,188.2901,l,1,0.6836,1,188.2905,188.7897,,,,,,282,MAS,NOWORD,AGR,150,cauro,,el,,0.6836,,188.7897,188.7898,-0.006481481,0.017592593,0,0,0,,0,15,15,281,1,cielo,,,,
,,,,,,5ee95917bdb5522f9ee95e4f,676192165fb32c2e1fb7aee6,67d15f24b1f51f8b251a3b2f,2025-03-12_04h23.58.422,Tarea de decisión léxica,2024.2.5,Win32,119.047619,,,,,,,,,,,,,,,,,,,,,,,188.7904,190.0735,a,1,0.6005,1,190.0736,190.5731,,,,,,227,MAS,WORD,DIS,150,faro,,la,,0.6005,,190.574,190.5744,-0.006481481,0.017592593,0,0,0,,0,16,16,226,1,laro,,,,
,,,,,,5ee95917bdb5522f9ee95e4f,676192165fb32c2e1fb7aee6,67d15f24b1f51f8b251a3b2f,2025-03-12_04h23.58.422,Tarea de decisión léxica,2024.2.5,Win32,119.047619,,,,,,,,,,,,,,,,,,,,,,,190.575,191.8401,a,1,0.5837,1,191.8401,192.3398,,,,,,251,MAS,WORD,DIS,150,señor,,la,,0.5837,,192.3398,192.3398,-0.006481481,0.017592593,0,0,0,,0,17,17,250,1,refor,,,,
,,,,,,5ee95917bdb5522f9ee95e4f,676192165fb32c2e1fb7aee6,67d15f24b1f51f8b251a3b2f,2025-03-12_04h23.58.422,Tarea de decisión léxica,2024.2.5,Win32,119.047619,,,,,,,,,,,,,,,,,,,,,,,192.3404,193.6733,l,1,0.6501,1,193.6733,194.1733,,,,,,32,FEM,NOWORD,DIS,150,bova,,el,,0.6501,,194.1733,194.1734,-0.006481481,0.017592593,0,0,0,,0,18,18,31,1,ropa,,,,
,,,,,,5ee95917bdb5522f9ee95e4f,676192165fb32c2e1fb7aee6,67d15f24b1f51f8b251a3b2f,2025-03-12_04h23.58.422,Tarea de decisión léxica,2024.2.5,Win32,119.047619,,,,,,,,,,,,,,,,,,,,,,,194.174,195.2587,a,1,0.4,1,195.2588,195.7573,,,,,,409,MAS,WORD,DIS,150,carro,,la,,0.4,,195.7573,195.7574,-0.006481481,0.017592593,0,0,0,,0,19,19,408,1,pafro,,,,
,,,,,,5ee95917bdb5522f9ee95e4f,676192165fb32c2e1fb7aee6,67d15f24b1f51f8b251a3b2f,2025-03-12_04h23.58.422,Tarea de decisión léxica,2024.2.5,Win32,119.047619,,,,,,,,,,,,,,,,,,,,,,,195.758,196.9583,a,1,0.5185,1,196.9584,197.4581,,,,,,73,MAS,WORD,DIS,150,odio,,la,,0.5185,,197.4581,197.4581,-0.006481481,0.017592593,0,0,0,,0,20,20,72,1,omio,,,,
,,,,,,5ee95917bdb5522f9ee95e4f,676192165fb32c2e1fb7aee6,67d15f24b1f51f8b251a3b2f,2025-03-12_04h23.58.422,Tarea de decisión léxica,2024.2.5,Win32,119.047619,,,,,,,,,,,,,,,,,,,,,,,197.4588,198.6068,a,1,0.4671,1,198.6069,199.1066,,,,,,279,FEM,WORD,DIS,150,prisa,,el,,0.4671,,199.1075,199.1079,-0.006481481,0.017592593,0,0,0,,0,21,21,278,1,grina,,,,
,,,,,,5ee95917bdb5522f9ee95e4f,676192165fb32c2e1fb7aee6,67d15f24b1f51f8b251a3b2f,2025-03-12_04h23.58.422,Tarea de decisión léxica,2024.2.5,Win32,119.047619,,,,,,,,,,,,,,,,,,,,,,,199.1083,200.207,a,1,0.4174,1,200.2071,200.7064,,,,,,151,MAS,WORD,DIS,150,tomo,,la,,0.4174,,200.7064,200.7065,-0.006481481,0.017592593,0,0,0,,0,22,22,150,1,sogo,,,,
,,,,,,5ee95917bdb5522f9ee95e4f,676192165fb32c2e1fb7aee6,67d15f24b1f51f8b251a3b2f,2025-03-12_04h23.58.422,Tarea de decisión léxica,2024.2.5,Win32,119.047619,,,,,,,,,,,,,,,,,,,,,,,200.7071,201.8065,a,1,0.4169,1,201.8066,202.2898,,,,,,307,MAS,WORD,AGR,150,hotel,,el,,0.4169,,202.2898,202.2898,-0.006481481,0.017592593,0,0,0,,0,23,23,306,1,holol,,,,
,,,,,,5ee95917bdb5522f9ee95e4f,676192165fb32c2e1fb7aee6,67d15f24b1f51f8b251a3b2f,2025-03-12_04h23.58.422,Tarea de decisión léxica,2024.2.5,Win32,119.047619,,,,,,,,,,,,,,,,,,,,,,,202.2906,203.3733,a,1,0.4,1,203.3733,203.8564,,,,,,187,MAS,WORD,DIS,150,mito,,la,,0.4,,203.8564,203.8564,-0.006481481,0.017592593,0,0,0,,0,24,24,186,1,suto,,,,
,,,,,,5ee95917bdb5522f9ee95e4f,676192165fb32c2e1fb7aee6,67d15f24b1f51f8b251a3b2f,2025-03-12_04h23.58.422,Tarea de decisión léxica,2024.2.5,Win32,119.047619,,,,,,,,,,,,,,,,,,,,,,,203.8571,204.9762,a,1,0.4365,1,204.9763,205.4582,,,,,,107,MAS,WORD,AGR,150,saco,,el,,0.4365,,205.4582,205.4582,-0.006481481,0.017592593,0,0,0,,0,25,25,106,1,raot,,,,
,,,,,,5ee95917bdb5522f9ee95e4f,676192165fb32c2e1fb7aee6,67d15f24b1f51f8b251a3b2f,2025-03-12_04h23.58.422,Tarea de decisión léxica,2024.2.5,Win32,119.047619,,,,,,,,,,,,,,,,,,,,,,,205.4589,206.8234,l,1,0.6837,1,206.8234,207.323,,,,,,460,MAS,NOWORD,DIS,150,fraco,,la,,0.6837,,207.3239,207.3244,-0.006481481,0.017592593,0,0,0,,0,26,26,459,1,grado,,,,
,,,,,,5ee95917bdb5522f9ee95e4f,676192165fb32c2e1fb7aee6,67d15f24b1f51f8b251a3b2f,2025-03-12_04h23.58.422,Tarea de decisión léxica,2024.2.5,Win32,119.047619,,,,,,,,,,,,,,,,,,,,,,,207.3247,208.6399,l,1,0.6499,1,208.6399,209.1397,,,,,,406,FEM,NOWORD,AGR,150,rarra,,la,,0.6499,,209.1397,209.1398,-0.006481481,0.017592593,0,0,0,,0,27,27,405,1,barra,,,,
,,,,,,5ee95917bdb5522f9ee95e4f,676192165fb32c2e1fb7aee6,67d15f24b1f51f8b251a3b2f,2025-03-12_04h23.58.422,Tarea de decisión léxica,2024.2.5,Win32,119.047619,,,,,,,,,,,,,,,,,,,,,,,209.1404,210.49,l,1,0.6669,1,210.4901,210.9898,,,,,,314,MAS,NOWORD,AGR,150,govio,,el,,0.6669,,210.9899,210.9899,-0.006481481,0.017592593,0,0,0,,0,28,28,313,1,novio,,,,
,,,,,,5ee95917bdb5522f9ee95e4f,676192165fb32c2e1fb7aee6,67d15f24b1f51f8b251a3b2f,2025-03-12_04h23.58.422,Tarea de decisión léxica,2024.2.5,Win32,119.047619,,,,,,,,,,,,,,,,,,,,,,,210.9906,212.2068,a,1,0.5329,1,212.2068,212.6898,,,,,,273,FEM,WORD,AGR,150,broma,,la,,0.5329,,212.6899,212.6899,-0.006481481,0.017592593,0,0,0,,0,29,29,272,1,frosa,,,,
,,,,,,5ee95917bdb5522f9ee95e4f,676192165fb32c2e1fb7aee6,67d15f24b1f51f8b251a3b2f,2025-03-12_04h23.58.422,Tarea de decisión léxica,2024.2.5,Win32,119.047619,,,,,,,,,,,,,,,,,,,,,,,212.6905,213.8234,a,1,0.4503,1,213.8234,214.324,,,,,,29,MAS,WORD,DIS,150,modo,,la,,0.4503,,214.324,214.3241,-0.006481481,0.017592593,0,0,0,,0,30,30,28,1,pono,,,,
,,,,,,5ee95917bdb5522f9ee95e4f,676192165fb32c2e1fb7aee6,67d15f24b1f51f8b251a3b2f,2025-03-12_04h23.58.422,Tarea de decisión léxica,2024.2.5,Win32,119.047619,,,,,,,,,,,,,,,,,,,,,,,214.3247,215.3901,a,1,0.3836,1,215.3901,215.8928,,,,,,433,MAS,WORD,DIS,150,disco,,la,,0.3836,,215.8936,215.8941,-0.006481481,0.017592593,0,0,0,,0,31,31,432,1,durco,,,,
,,,,,,5ee95917bdb5522f9ee95e4f,676192165fb32c2e1fb7aee6,67d15f24b1f51f8b251a3b2f,2025-03-12_04h23.58.422,Tarea de decisión léxica,2024.2.5,Win32,119.047619,,,,,,,,,,,,,,,,,,,,,,,215.8945,217.0926,l,1,0.5196,1,217.0927,217.5903,,,,,,454,FEM,NOWORD,AGR,150,pafia,,la,,0.5196,,217.5903,217.5904,-0.006481481,0.017592593,0,0,0,,0,32,32,453,1,mafia,,,,
,,,,,,5ee95917bdb5522f9ee95e4f,676192165fb32c2e1fb7aee6,67d15f24b1f51f8b251a3b2f,2025-03-12_04h23.58.422,Tarea de decisión léxica,2024.2.5,Win32,119.047619,,,,,,,,,,,,,,,,,,,,,,,217.591,218.8732,a,1,0.6002,1,218.8733,219.373,,,,,,267,MAS,WORD,AGR,150,libro,,el,,0.6002,,219.3731,219.3731,-0.006481481,0.017592593,0,0,0,,0,33,33,266,1,figro,,,,
,,,,,,5ee95917bdb5522f9ee95e4f,676192165fb32c2e1fb7aee6,67d15f24b1f51f8b251a3b2f,2025-03-12_04h23.58.422,Tarea de decisión léxica,2024.2.5,Win32,119.047619,,,,,,,,,,,,,,,,,,,,,,,219.3737,220.4733,a,1,0.417,1,220.4734,220.9731,,,,,,167,FEM,WORD,DIS,150,jefa,,el,,0.417,,220.9732,220.9732,-0.006481481,0.017592593,0,0,0,,0,34,34,166,1,zifa,,,,
,,,,,,5ee95917bdb5522f9ee95e4f,676192165fb32c2e1fb7aee6,67d15f24b1f51f8b251a3b2f,2025-03-12_04h23.58.422,Tarea de decisión léxica,2024.2.5,Win32,119.047619,,,,,,,,,,,,,,,,,,,,,,,220.9737,222.1567,l,1,0.5004,1,222.1567,222.6564,,,,,,212,FEM,NOWORD,DIS,150,joad,,el,,0.5004,,222.6572,222.6576,-0.006481481,0.017592593,0,0,0,,0,35,35,211,1,joya,,,,
,,,,,,5ee95917bdb5522f9ee95e4f,676192165fb32c2e1fb7aee6,67d15f24b1f51f8b251a3b2f,2025-03-12_04h23.58.422,Tarea de decisión léxica,2024.2.5,Win32,119.047619,,,,,,,,,,,,,,,,,,,,,,,222.6581,223.8403,l,1,0.5004,1,223.8403,224.3398,,,,,,4,FEM,NOWORD,DIS,150,dica,,el,,0.5004,,224.3398,224.3398,-0.006481481,0.017592593,0,0,0,,0,36,36,3,1,vida,,,,
,,,,,,5ee95917bdb5522f9ee95e4f,676192165fb32c2e1fb7aee6,67d15f24b1f51f8b251a3b2f,2025-03-12_04h23.58.422,Tarea de decisión léxica,2024.2.5,Win32,119.047619,,,,,,,,,,,,,,,,,,,,,,,224.3405,225.3566,a,1,0.3178,1,225.3566,225.8565,,,,,,39,MAS,WORD,AGR,150,voto,,el,,0.3178,,225.8565,225.8566,-0.006481481,0.017592593,0,0,0,,0,37,37,38,1,redo,,,,
,,,,,,5ee95917bdb5522f9ee95e4f,676192165fb32c2e1fb7aee6,67d15f24b1f51f8b251a3b2f,2025-03-12_04h23.58.422,Tarea de decisión léxica,2024.2.5,Win32,119.047619,,,,,,,,,,,,,,,,,,,,,,,225.8572,226.9566,l,1,0.417,1,226.9567,227.4564,,,,,,284,MAS,NOWORD,DIS,150,tuevo,,la,,0.417,,227.4564,227.4564,-0.006481481,0.017592593,0,0,0,,0,38,38,283,1,sueño,,,,
,,,,,,5ee95917bdb5522f9ee95e4f,676192165fb32c2e1fb7aee6,67d15f24b1f51f8b251a3b2f,2025-03-12_04h23.58.422,Tarea de decisión léxica,2024.2.5,Win32,119.047619,,,,,,,,,,,,,,,,,,,,,,,227.457,228.5072,a,0,0.3843,0,228.5077,229.0084,,,,,,244,MAS,NOWORD,DIS,150,asamo,,la,,0.3843,,229.0084,229.0085,-0.006481481,0.017592593,0,0,0,,0,39,39,243,1,amigo,,,,
,,,,,,5ee95917bdb5522f9ee95e4f,676192165fb32c2e1fb7aee6,67d15f24b1f51f8b251a3b2f,2025-03-12_04h23.58.422,Tarea de decisión léxica,2024.2.5,Win32,119.047619,,,,,,,,,,,,,,,,,,,,,,,229.0092,230.2734,l,1,0.5836,1,230.2738,230.7735,,,,,,428,FEM,NOWORD,DIS,150,oseva,,el,,0.5836,,230.7744,230.7749,-0.006481481,0.017592593,0,0,0,,0,40,40,427,1,oreja,,,,
,,,,,,5ee95917bdb5522f9ee95e4f,676192165fb32c2e1fb7aee6,67d15f24b1f51f8b251a3b2f,2025-03-12_04h23.58.422,Tarea de decisión léxica,2024.2.5,Win32,119.047619,,,,,,,,,,,,,,,,,,,,,,,230.7754,232.1076,l,1,0.6512,1,232.1078,232.6072,,,,,,184,FEM,NOWORD,DIS,150,raad,,el,,0.6512,,232.6073,232.6073,-0.006481481,0.017592593,0,0,0,,0,41,41,183,1,raya,,,,
,,,,,,5ee95917bdb5522f9ee95e4f,676192165fb32c2e1fb7aee6,67d15f24b1f51f8b251a3b2f,2025-03-12_04h23.58.422,Tarea de decisión léxica,2024.2.5,Win32,119.047619,,,,,,,,,,,,,,,,,,,,,,,232.6079,233.7235,a,0,0.4338,0,233.724,234.2231,,,,,,78,MAS,NOWORD,AGR,150,fodo,,el,,0.4338,,234.2232,234.2232,-0.006481481,0.017592593,0,0,0,,0,42,42,77,1,loco,,,,
,,,,,,5ee95917bdb5522f9ee95e4f,676192165fb32c2e1fb7aee6,67d15f24b1f51f8b251a3b2f,2025-03-12_04h23.58.422,Tarea de decisión léxica,2024.2.5,Win32,119.047619,,,,,,,,,,,,,,,,,,,,,,,234.2238,235.3565,a,1,0.4502,1,235.357,235.8397,,,,,,183,FEM,WORD,DIS,150,raya,,el,,0.4502,,235.8397,235.8398,-0.006481481,0.017592593,0,0,0,,0,43,43,182,1,raad,,,,
,,,,,,5ee95917bdb5522f9ee95e4f,676192165fb32c2e1fb7aee6,67d15f24b1f51f8b251a3b2f,2025-03-12_04h23.58.422,Tarea de decisión léxica,2024.2.5,Win32,119.047619,,,,,,,,,,,,,,,,,,,,,,,235.8403,236.8906,a,1,0.3656,1,236.8907,237.3898,,,,,,99,MAS,WORD,AGR,150,lobo,,el,,0.3656,,237.3898,237.3899,-0.006481481,0.017592593,0,0,0,,0,44,44,98,1,soro,,,,
,,,,,,5ee95917bdb5522f9ee95e4f,676192165fb32c2e1fb7aee6,67d15f24b1f51f8b251a3b2f,2025-03-12_04h23.58.422,Tarea de decisión léxica,2024.2.5,Win32,119.047619,,,,,,,,,,,,,,,,,,,,,,,237.3905,238.5901,a,1,0.517,1,238.5901,239.0733,,,,,,417,FEM,WORD,DIS,150,barba,,el,,0.517,,239.0741,239.0745,-0.006481481,0.017592593,0,0,0,,0,45,45,416,1,banja,,,,
,,,,,,5ee95917bdb5522f9ee95e4f,676192165fb32c2e1fb7aee6,67d15f24b1f51f8b251a3b2f,2025-03-12_04h23.58.422,Tarea de decisión léxica,2024.2.5,Win32,119.047619,,,,,,,,,,,,,,,,,,,,,,,239.075,240.1898,l,1,0.4335,1,240.1899,240.6898,,,,,,128,MAS,NOWORD,DIS,150,itio,,la,,0.4335,,240.6898,240.6899,-0.006481481,0.017592593,0,0,0,,0,46,46,127,1,pico,,,,
,,,,,,5ee95917bdb5522f9ee95e4f,676192165fb32c2e1fb7aee6,67d15f24b1f51f8b251a3b2f,2025-03-12_04h23.58.422,Tarea de decisión léxica,2024.2.5,Win32,119.047619,,,,,,,,,,,,,,,,,,,,,,,240.6905,241.9402,a,1,0.567,1,241.9403,242.4399,,,,,,121,MAS,WORD,DIS,150,hoyo,,la,,0.567,,242.44,242.44,-0.006481481,0.017592593,0,0,0,,0,47,47,120,1,bomo,,,,
,,,,,,5ee95917bdb5522f9ee95e4f,676192165fb32c2e1fb7aee6,67d15f24b1f51f8b251a3b2f,2025-03-12_04h23.58.422,Tarea de decisión léxica,2024.2.5,Win32,119.047619,,,,,,,,,,,,,,,,,,,,,,,242.4405,243.507,a,1,0.3836,1,243.5071,244.0065,,,,,,361,FEM,WORD,AGR,150,torre,,la,,0.3836,,244.0066,244.0066,-0.006481481,0.017592593,0,0,0,,0,48,48,360,1,solle,,,,
,,,,,,5ee95917bdb5522f9ee95e4f,676192165fb32c2e1fb7aee6,67d15f24b1f51f8b251a3b2f,2025-03-12_04h23.58.422,Tarea de decisión léxica,2024.2.5,Win32,119.047619,,,,,,,,,,,,,,,,,,,,,,,244.0076,245.14,l,1,0.4503,1,245.1401,245.6399,,,,,,222,FEM,NOWORD,AGR,150,puca,,la,,0.4503,,245.6399,245.64,-0.006481481,0.017592593,0,0,0,,0,49,49,221,1,mula,,,,
,,,,,,5ee95917bdb5522f9ee95e4f,676192165fb32c2e1fb7aee6,67d15f24b1f51f8b251a3b2f,2025-03-12_04h23.58.422,Tarea de decisión léxica,2024.2.5,Win32,119.047619,,,,,,,,,,,,,,,,,,,,,,,245.6406,246.9733,l,1,0.6503,1,246.9733,247.4563,,,,,,30,MAS,NOWORD,AGR,150,pono,,el,,0.6503,,247.4569,247.4573,-0.006481481,0.017592593,0,0,0,,0,50,50,29,1,modo,,,,
,,,,,,5ee95917bdb5522f9ee95e4f,676192165fb32c2e1fb7aee6,67d15f24b1f51f8b251a3b2f,2025-03-12_04h23.58.422,Tarea de decisión léxica,2024.2.5,Win32,119.047619,,,,,,,,,,,,,,,,,,,,,,,247.4578,248.5435,l,1,0.4003,1,248.5436,249.0432,,,,,,126,MAS,NOWORD,AGR,150,vudo,,el,,0.4003,,249.0433,249.0434,-0.006481481,0.017592593,0,0,0,,0,51,51,125,1,lujo,,,,
,,,,,,5ee95917bdb5522f9ee95e4f,676192165fb32c2e1fb7aee6,67d15f24b1f51f8b251a3b2f,2025-03-12_04h23.58.422,Tarea de decisión léxica,2024.2.5,Win32,119.047619,,,,,,,,,,,,,,,,,,,,,,,249.0439,250.2067,a,1,0.4835,1,250.2068,250.7063,,,,,,339,MAS,WORD,DIS,150,brazo,,la,,0.4835,,250.7064,250.7065,-0.006481481,0.017592593,0,0,0,,0,52,52,338,1,plajo,,,,
,,,,,,5ee95917bdb5522f9ee95e4f,676192165fb32c2e1fb7aee6,67d15f24b1f51f8b251a3b2f,2025-03-12_04h23.58.422,Tarea de decisión léxica,2024.2.5,Win32,119.047619,,,,,,,,,,,,,,,,,,,,,,,250.707,251.8065,a,1,0.4169,1,251.8066,252.3065,,,,,,59,FEM,WORD,DIS,150,sala,,el,,0.4169,,252.3065,252.3065,-0.006481481,0.017592593,0,0,0,,0,53,53,58,1,tafa,,,,
,,,,,,5ee95917bdb5522f9ee95e4f,676192165fb32c2e1fb7aee6,67d15f24b1f51f8b251a3b2f,2025-03-12_04h23.58.422,Tarea de decisión léxica,2024.2.5,Win32,119.047619,,,,,,,,,,,,,,,,,,,,,,,252.3071,253.49,l,1,0.5003,1,253.49,253.9897,,,,,,60,FEM,NOWORD,DIS,150,tafa,,el,,0.5003,,253.9897,253.9897,-0.006481481,0.017592593,0,0,0,,0,54,54,59,1,sala,,,,
,,,,,,5ee95917bdb5522f9ee95e4f,676192165fb32c2e1fb7aee6,67d15f24b1f51f8b251a3b2f,2025-03-12_04h23.58.422,Tarea de decisión léxica,2024.2.5,Win32,119.047619,,,,,,,,,,,,,,,,,,,,,,,253.9904,255.1233,a,1,0.4503,1,255.1234,255.6233,,,,,,301,FEM,WORD,AGR,150,banda,,la,,0.4503,,255.624,255.6245,-0.006481481,0.017592593,0,0,0,,0,55,55,300,1,ranga,,,,
,,,,,,5ee95917bdb5522f9ee95e4f,676192165fb32c2e1fb7aee6,67d15f24b1f51f8b251a3b2f,2025-03-12_04h23.58.422,Tarea de decisión léxica,2024.2.5,Win32,119.047619,,,,,,,,,,,,,,,,,,,,,,,255.6249,256.6748,a,1,0.3686,1,256.6748,257.1731,,,,,,193,FEM,WORD,DIS,150,loca,,el,,0.3686,,257.1731,257.1731,-0.006481481,0.017592593,0,0,0,,0,56,56,192,1,foda,,,,
,,,,,,5ee95917bdb5522f9ee95e4f,676192165fb32c2e1fb7aee6,67d15f24b1f51f8b251a3b2f,2025-03-12_04h23.58.422,Tarea de decisión léxica,2024.2.5,Win32,119.047619,,,,,,,,,,,,,,,,,,,,,,,257.1737,258.3901,l,1,0.5311,1,258.3902,258.8731,,,,,,326,FEM,NOWORD,AGR,150,mabia,,la,,0.5311,,258.8731,258.8731,-0.006481481,0.017592593,0,0,0,,0,57,57,325,1,magia,,,,
,,,,,,5ee95917bdb5522f9ee95e4f,676192165fb32c2e1fb7aee6,67d15f24b1f51f8b251a3b2f,2025-03-12_04h23.58.422,Tarea de decisión léxica,2024.2.5,Win32,119.047619,,,,,,,,,,,,,,,,,,,,,,,258.8737,259.9735,a,1,0.4165,1,259.9736,260.4732,,,,,,347,FEM,WORD,AGR,150,pieza,,la,,0.4165,,260.4733,260.4733,-0.006481481,0.017592593,0,0,0,,0,58,58,346,1,mueza,,,,
,,,,,,5ee95917bdb5522f9ee95e4f,676192165fb32c2e1fb7aee6,67d15f24b1f51f8b251a3b2f,2025-03-12_04h23.58.422,Tarea de decisión léxica,2024.2.5,Win32,119.047619,,,,,,,,,,,,,,,,,,,,,,,260.4739,261.7399,l,1,0.5819,1,261.74,262.2396,,,,,,194,FEM,NOWORD,AGR,150,foda,,la,,0.5819,,262.2402,262.2406,-0.006481481,0.017592593,0,0,0,,0,59,59,193,1,loca,,,,
,,,,,,5ee95917bdb5522f9ee95e4f,676192165fb32c2e1fb7aee6,67d15f24b1f51f8b251a3b2f,2025-03-12_04h23.58.422,Tarea de decisión léxica,2024.2.5,Win32,119.047619,,,,,,,,,,,,,,,,,,,,,,,262.2411,263.3065,a,1,0.3834,1,263.3065,263.8063,,,,,,429,FEM,WORD,AGR,150,tarta,,la,,0.3834,,263.8063,263.8064,-0.006481481,0.017592593,0,0,0,,0,60,60,428,1,tenta,,,,
,,,,,,5ee95917bdb5522f9ee95e4f,676192165fb32c2e1fb7aee6,67d15f24b1f51f8b251a3b2f,2025-03-12_04h23.58.422,Tarea de decisión léxica,2024.2.5,Win32,119.047619,,,,,,,,,,,,,,,,,,,,,,,263.807,264.9569,l,1,0.4838,1,264.9569,265.4566,,,,,,278,MAS,NOWORD,AGR,150,vuemo,,el,,0.4838,,265.4567,265.4567,-0.006481481,0.017592593,0,0,0,,0,61,61,277,1,fuego,,,,
,,,,,,5ee95917bdb5522f9ee95e4f,676192165fb32c2e1fb7aee6,67d15f24b1f51f8b251a3b2f,2025-03-12_04h23.58.422,Tarea de decisión léxica,2024.2.5,Win32,119.047619,,,,,,,,,,,,,,,,,,,,,,,265.4573,266.6568,a,1,0.5171,1,266.6569,267.1568,,,,,,373,FEM,WORD,AGR,150,pizza,,la,,0.5171,,267.1568,267.1569,-0.006481481,0.017592593,0,0,0,,0,62,62,372,1,pogza,,,,
,,,,,,5ee95917bdb5522f9ee95e4f,676192165fb32c2e1fb7aee6,67d15f24b1f51f8b251a3b2f,2025-03-12_04h23.58.422,Tarea de decisión léxica,2024.2.5,Win32,119.047619,,,,,,,,,,,,,,,,,,,,,,,267.1576,268.5232,a,0,0.6835,0,268.5237,269.0233,,,,,,20,MAS,NOWORD,DIS,150,himo,,la,,0.6835,,269.0233,269.0233,-0.006481481,0.017592593,0,0,0,,0,63,63,19,1,niño,,,,
,,,,,,5ee95917bdb5522f9ee95e4f,676192165fb32c2e1fb7aee6,67d15f24b1f51f8b251a3b2f,2025-03-12_04h23.58.422,Tarea de decisión léxica,2024.2.5,Win32,119.047619,,,,,,,,,,,,,,,,,,,,,,,269.0239,270.1236,a,1,0.4339,1,270.124,270.6233,,,,,,21,MAS,WORD,DIS,150,plan,,la,,0.4339,,270.624,270.6244,-0.006481481,0.017592593,0,0,0,,0,64,64,20,1,blan,,,,
,,,,,,5ee95917bdb5522f9ee95e4f,676192165fb32c2e1fb7aee6,67d15f24b1f51f8b251a3b2f,2025-03-12_04h23.58.422,Tarea de decisión léxica,2024.2.5,Win32,119.047619,,,,,,,,,,,,,,,,,,,,,,,270.6248,272.1235,a,0,0.8338,0,272.124,272.6396,,,,,,200,MAS,NOWORD,DIS,150,fano,,la,,0.8338,,272.6397,272.6397,-0.006481481,0.017592593,0,0,0,,0,65,65,199,1,lazo,,,,
,,,,,,5ee95917bdb5522f9ee95e4f,676192165fb32c2e1fb7aee6,67d15f24b1f51f8b251a3b2f,2025-03-12_04h23.58.422,Tarea de decisión léxica,2024.2.5,Win32,119.047619,,,,,,,,,,,,,,,,,,,,,,,272.6403,273.7567,a,1,0.4337,1,273.7571,274.2564,,,,,,285,MAS,WORD,AGR,150,error,,el,,0.4337,,274.2564,274.2564,-0.006481481,0.017592593,0,0,0,,0,66,66,284,1,echor,,,,
,,,,,,5ee95917bdb5522f9ee95e4f,676192165fb32c2e1fb7aee6,67d15f24b1f51f8b251a3b2f,2025-03-12_04h23.58.422,Tarea de decisión léxica,2024.2.5,Win32,119.047619,,,,,,,,,,,,,,,,,,,,,,,274.2571,275.3568,a,1,0.4171,1,275.3569,275.8397,,,,,,89,MAS,WORD,AGR,150,humo,,el,,0.4171,,275.8397,275.8397,-0.006481481,0.017592593,0,0,0,,0,67,67,88,1,guso,,,,
,,,,,,5ee95917bdb5522f9ee95e4f,676192165fb32c2e1fb7aee6,67d15f24b1f51f8b251a3b2f,2025-03-12_04h23.58.422,Tarea de decisión léxica,2024.2.5,Win32,119.047619,,,,,,,,,,,,,,,,,,,,,,,275.8404,277.0401,l,1,0.5172,1,277.0402,277.5398,,,,,,28,MAS,NOWORD,DIS,150,ravo,,la,,0.5172,,277.5399,277.5399,-0.006481481,0.017592593,0,0,0,,0,68,68,27,1,baño,,,,
,,,,,,5ee95917bdb5522f9ee95e4f,676192165fb32c2e1fb7aee6,67d15f24b1f51f8b251a3b2f,2025-03-12_04h23.58.422,Tarea de decisión léxica,2024.2.5,Win32,119.047619,,,,,,,,,,,,,,,,,,,,,,,277.5405,278.6067,a,1,0.4002,1,278.6067,279.1063,,,,,,23,FEM,WORD,DIS,150,hija,,el,,0.4002,,279.107,279.1075,-0.006481481,0.017592593,0,0,0,,0,69,69,22,1,giva,,,,
,,,,,,5ee95917bdb5522f9ee95e4f,676192165fb32c2e1fb7aee6,67d15f24b1f51f8b251a3b2f,2025-03-12_04h23.58.422,Tarea de decisión léxica,2024.2.5,Win32,119.047619,,,,,,,,,,,,,,,,,,,,,,,279.1079,280.4234,l,1,0.6315,1,280.4234,280.9068,,,,,,408,FEM,NOWORD,DIS,150,cauba,,el,,0.6315,,280.9068,280.9069,-0.006481481,0.017592593,0,0,0,,0,70,70,407,1,cueva,,,,
,,,,,,5ee95917bdb5522f9ee95e4f,676192165fb32c2e1fb7aee6,67d15f24b1f51f8b251a3b2f,2025-03-12_04h23.58.422,Tarea de decisión léxica,2024.2.5,Win32,119.047619,,,,,,,,,,,,,,,,,,,,,,,280.9075,282.1736,l,1,0.582,1,282.1737,282.6731,,,,,,360,MAS,NOWORD,DIS,150,cacer,,la,,0.582,,282.6731,282.6731,-0.006481481,0.017592593,0,0,0,,0,71,71,359,1,calor,,,,
,,,,,,5ee95917bdb5522f9ee95e4f,676192165fb32c2e1fb7aee6,67d15f24b1f51f8b251a3b2f,2025-03-12_04h23.58.422,Tarea de decisión léxica,2024.2.5,Win32,119.047619,,,,,,,,,,,,,,,,,,,,,,,282.6737,283.9235,l,1,0.5671,1,283.9236,284.423,,,,,,18,FEM,NOWORD,AGR,150,paba,,la,,0.5671,,284.423,284.4232,-0.006481481,0.017592593,0,0,0,,0,72,72,17,1,mamá,,,,
,,,,,,5ee95917bdb5522f9ee95e4f,676192165fb32c2e1fb7aee6,67d15f24b1f51f8b251a3b2f,2025-03-12_04h23.58.422,Tarea de decisión léxica,2024.2.5,Win32,119.047619,,,,,,,,,,,,,,,,,,,,,,,284.4238,285.4401,a,1,0.3333,1,285.4401,285.9399,,,,,,283,MAS,WORD,DIS,150,sueño,,la,,0.3333,,285.94,285.94,-0.006481481,0.017592593,0,0,0,,0,73,73,282,1,tuevo,,,,
,,,,,,5ee95917bdb5522f9ee95e4f,676192165fb32c2e1fb7aee6,67d15f24b1f51f8b251a3b2f,2025-03-12_04h23.58.422,Tarea de decisión léxica,2024.2.5,Win32,119.047619,,,,,,,,,,,,,,,,,,,,,,,285.9407,287.0399,l,1,0.4166,1,287.0399,287.5397,,,,,,364,FEM,NOWORD,DIS,150,veida,,el,,0.4166,,287.5403,287.5409,-0.006481481,0.017592593,0,0,0,,0,74,74,363,1,deuda,,,,
,,,,,,5ee95917bdb5522f9ee95e4f,676192165fb32c2e1fb7aee6,67d15f24b1f51f8b251a3b2f,2025-03-12_04h23.58.422,Tarea de decisión léxica,2024.2.5,Win32,119.047619,,,,,,,,,,,,,,,,,,,,,,,287.5412,288.5399,a,1,0.3167,1,288.54,289.0232,,,,,,245,FEM,WORD,DIS,150,madre,,el,,0.3167,,289.0232,289.0232,-0.006481481,0.017592593,0,0,0,,0,75,75,244,1,pafle,,,,
,,,,,,5ee95917bdb5522f9ee95e4f,676192165fb32c2e1fb7aee6,67d15f24b1f51f8b251a3b2f,2025-03-12_04h23.58.422,Tarea de decisión léxica,2024.2.5,Win32,119.047619,,,,,,,,,,,,,,,,,,,,,,,289.0239,290.1399,a,1,0.432,1,290.1399,290.6232,,,,,,171,MAS,WORD,DIS,150,hilo,,la,,0.432,,290.6233,290.6233,-0.006481481,0.017592593,0,0,0,,0,76,76,170,1,niro,,,,
,,,,,,5ee95917bdb5522f9ee95e4f,676192165fb32c2e1fb7aee6,67d15f24b1f51f8b251a3b2f,2025-03-12_04h23.58.422,Tarea de decisión léxica,2024.2.5,Win32,119.047619,,,,,,,,,,,,,,,,,,,,,,,290.6239,291.6401,a,1,0.3323,1,291.6402,292.1233,,,,,,379,MAS,WORD,DIS,150,turno,,la,,0.3323,,292.1234,292.1235,-0.006481481,0.017592593,0,0,0,,0,77,77,378,1,tunso,,,,
,,,,,,5ee95917bdb5522f9ee95e4f,676192165fb32c2e1fb7aee6,67d15f24b1f51f8b251a3b2f,2025-03-12_04h23.58.422,Tarea de decisión léxica,2024.2.5,Win32,119.047619,,,,,,,,,,,,,,,,,,,,,,,292.124,293.107,a,1,0.3,1,293.1071,293.6068,,,,,,319,MAS,WORD,DIS,150,suelo,,la,,0.3,,293.6068,293.6069,-0.006481481,0.017592593,0,0,0,,0,78,78,318,1,tuero,,,,
,,,,,,5ee95917bdb5522f9ee95e4f,676192165fb32c2e1fb7aee6,67d15f24b1f51f8b251a3b2f,2025-03-12_04h23.58.422,Tarea de decisión léxica,2024.2.5,Win32,119.047619,,,,,,,,,,,,,,,,,,,,,,,293.6075,294.7566,a,0,0.4669,0,294.757,295.2566,,,,,,470,MAS,NOWORD,AGR,150,matia,,el,,0.4669,,295.2572,295.2577,-0.006481481,0.017592593,0,0,0,,0,79,79,469,1,patio,,,,
,,,,,,5ee95917bdb5522f9ee95e4f,676192165fb32c2e1fb7aee6,67d15f24b1f51f8b251a3b2f,2025-03-12_04h23.58.422,Tarea de decisión léxica,2024.2.5,Win32,119.047619,,,,,,,,,,,,,,,,,,,,,,,295.2581,296.2567,a,0,0.317,0,296.2567,296.7563,,,,,,422,MAS,NOWORD,AGR,150,griso,,el,,0.317,,296.7563,296.7564,-0.006481481,0.017592593,0,0,0,,0,80,80,421,1,primo,,,,
,,,,,,5ee95917bdb5522f9ee95e4f,676192165fb32c2e1fb7aee6,67d15f24b1f51f8b251a3b2f,2025-03-12_04h23.58.422,Tarea de decisión léxica,2024.2.5,Win32,119.047619,,,,,,,,,,,,,,,,,,,,,,,296.7569,297.9566,l,1,0.5169,1,297.9571,298.4395,,,,,,440,FEM,NOWORD,DIS,150,prema,,el,,0.5169,,298.4396,298.4396,-0.006481481,0.017592593,0,0,0,,0,81,81,439,1,presa,,,,
,,,,,,5ee95917bdb5522f9ee95e4f,676192165fb32c2e1fb7aee6,67d15f24b1f51f8b251a3b2f,2025-03-12_04h23.58.422,Tarea de decisión léxica,2024.2.5,Win32,119.047619,,,,,,,,,,,,,,,,,,,,,,,298.4402,299.5399,l,1,0.4149,1,299.5399,300.0395,,,,,,462,FEM,NOWORD,AGR,150,pagra,,la,,0.4149,,300.0396,300.0396,-0.006481481,0.017592593,0,0,0,,0,82,82,461,1,tabla,,,,
,,,,,,5ee95917bdb5522f9ee95e4f,676192165fb32c2e1fb7aee6,67d15f24b1f51f8b251a3b2f,2025-03-12_04h23.58.422,Tarea de decisión léxica,2024.2.5,Win32,119.047619,,,,,,,,,,,,,,,,,,,,,,,300.0402,301.2567,l,1,0.533,1,301.2567,301.7566,,,,,,238,MAS,NOWORD,AGR,150,huco,,el,,0.533,,301.7573,301.7577,-0.006481481,0.017592593,0,0,0,,0,83,83,237,1,nudo,,,,
,,,,,,5ee95917bdb5522f9ee95e4f,676192165fb32c2e1fb7aee6,67d15f24b1f51f8b251a3b2f,2025-03-12_04h23.58.422,Tarea de decisión léxica,2024.2.5,Win32,119.047619,,,,,,,,,,,,,,,,,,,,,,,301.7581,302.94,l,1,0.5001,1,302.9401,303.4402,,,,,,84,FEM,NOWORD,DIS,150,taga,,el,,0.5001,,303.4402,303.4402,-0.006481481,0.017592593,0,0,0,,0,84,84,83,1,bala,,,,
,,,,,,5ee95917bdb5522f9ee95e4f,676192165fb32c2e1fb7aee6,67d15f24b1f51f8b251a3b2f,2025-03-12_04h23.58.422,Tarea de decisión léxica,2024.2.5,Win32,119.047619,,,,,,,,,,,,,,,,,,,,,,,303.4409,304.8898,l,1,0.7664,1,304.8899,305.3898,,,,,,54,FEM,NOWORD,AGR,150,rora,,la,,0.7664,,305.3899,305.3899,-0.006481481,0.017592593,0,0,0,,0,85,85,53,1,boda,,,,
,,,,,,5ee95917bdb5522f9ee95e4f,676192165fb32c2e1fb7aee6,67d15f24b1f51f8b251a3b2f,2025-03-12_04h23.58.422,Tarea de decisión léxica,2024.2.5,Win32,119.047619,,,,,,,,,,,,,,,,,,,,,,,305.3905,306.3898,a,1,0.317,1,306.3899,306.873,,,,,,389,MAS,WORD,DIS,150,cerdo,,la,,0.317,,306.873,306.873,-0.006481481,0.017592593,0,0,0,,0,86,86,388,1,cenco,,,,
,,,,,,5ee95917bdb5522f9ee95e4f,676192165fb32c2e1fb7aee6,67d15f24b1f51f8b251a3b2f,2025-03-12_04h23.58.422,Tarea de decisión léxica,2024.2.5,Win32,119.047619,,,,,,,,,,,,,,,,,,,,,,,306.8736,307.9067,a,1,0.3505,1,307.9068,308.4064,,,,,,201,FEM,WORD,DIS,150,cuna,,el,,0.3505,,308.4065,308.4065,-0.006481481,0.017592593,0,0,0,,0,87,87,200,1,cusa,,,,
,,,,,,5ee95917bdb5522f9ee95e4f,676192165fb32c2e1fb7aee6,67d15f24b1f51f8b251a3b2f,2025-03-12_04h23.58.422,Tarea de decisión léxica,2024.2.5,Win32,119.047619,,,,,,,,,,,,,,,,,,,,,,,308.4071,309.4429,l,1,0.3532,1,309.443,309.9427,,,,,,410,MAS,NOWORD,AGR,150,pafro,,el,,0.3532,,309.9433,309.9437,-0.006481481,0.017592593,0,0,0,,0,88,88,409,1,carro,,,,
,,,,,,5ee95917bdb5522f9ee95e4f,676192165fb32c2e1fb7aee6,67d15f24b1f51f8b251a3b2f,2025-03-12_04h23.58.422,Tarea de decisión léxica,2024.2.5,Win32,119.047619,,,,,,,,,,,,,,,,,,,,,,,309.9441,310.9899,a,0,0.3669,0,310.9903,311.4897,,,,,,218,MAS,NOWORD,AGR,150,budo,,el,,0.3669,,311.4898,311.4898,-0.006481481,0.017592593,0,0,0,,0,89,89,217,1,luto,,,,
,,,,,,5ee95917bdb5522f9ee95e4f,676192165fb32c2e1fb7aee6,67d15f24b1f51f8b251a3b2f,2025-03-12_04h23.58.422,Tarea de decisión léxica,2024.2.5,Win32,119.047619,,,,,,,,,,,,,,,,,,,,,,,311.4904,312.8404,l,1,0.6838,1,312.8408,313.3428,,,,,,86,MAS,NOWORD,AGR,150,babo,,el,,0.6838,,313.3428,313.343,-0.006481481,0.017592593,0,0,0,,0,90,90,85,1,lago,,,,
,,,,,,5ee95917bdb5522f9ee95e4f,676192165fb32c2e1fb7aee6,67d15f24b1f51f8b251a3b2f,2025-03-12_04h23.58.422,Tarea de decisión léxica,2024.2.5,Win32,119.047619,,,,,,,,,,,,,,,,,,,,,,,313.3436,314.5413,a,1,0.5183,1,314.5414,315.041,,,,,,353,FEM,WORD,DIS,150,celda,,el,,0.5183,,315.041,315.041,-0.006481481,0.017592593,0,0,0,,0,91,91,352,1,cezca,,,,
,,,,,,5ee95917bdb5522f9ee95e4f,676192165fb32c2e1fb7aee6,67d15f24b1f51f8b251a3b2f,2025-03-12_04h23.58.422,Tarea de decisión léxica,2024.2.5,Win32,119.047619,,,,,,,,,,,,,,,,,,,,,,,315.0416,316.2568,l,1,0.5338,1,316.2569,316.7556,,,,,,232,FEM,NOWORD,DIS,150,heta,,el,,0.5338,,316.7556,316.7556,-0.006481481,0.017592593,0,0,0,,0,92,92,231,1,bota,,,,
,,,,,,5ee95917bdb5522f9ee95e4f,676192165fb32c2e1fb7aee6,67d15f24b1f51f8b251a3b2f,2025-03-12_04h23.58.422,Tarea de decisión léxica,2024.2.5,Win32,119.047619,,,,,,,,,,,,,,,,,,,,,,,316.7562,318.04,l,1,0.6172,1,318.0401,318.5231,,,,,,296,MAS,NOWORD,DIS,150,goler,,la,,0.6172,,318.5238,318.5244,-0.006481481,0.017592593,0,0,0,,0,93,93,295,1,dolor,,,,
,,,,,,5ee95917bdb5522f9ee95e4f,676192165fb32c2e1fb7aee6,67d15f24b1f51f8b251a3b2f,2025-03-12_04h23.58.422,Tarea de decisión léxica,2024.2.5,Win32,119.047619,,,,,,,,,,,,,,,,,,,,,,,318.5248,319.59,a,1,0.3836,1,319.59,320.073,,,,,,375,FEM,WORD,DIS,150,salsa,,el,,0.3836,,320.073,320.073,-0.006481481,0.017592593,0,0,0,,0,94,94,374,1,sasna,,,,
,,,,,,5ee95917bdb5522f9ee95e4f,676192165fb32c2e1fb7aee6,67d15f24b1f51f8b251a3b2f,2025-03-12_04h23.58.422,Tarea de decisión léxica,2024.2.5,Win32,119.047619,,,,,,,,,,,,,,,,,,,,,,,320.0736,321.3234,l,1,0.5643,1,321.3234,321.8232,,,,,,324,FEM,NOWORD,DIS,150,certa,,el,,0.5643,,321.8232,321.8233,-0.006481481,0.017592593,0,0,0,,0,95,95,323,1,cinta,,,,
,,,,,,5ee95917bdb5522f9ee95e4f,676192165fb32c2e1fb7aee6,67d15f24b1f51f8b251a3b2f,2025-03-12_04h23.58.422,Tarea de decisión léxica,2024.2.5,Win32,119.047619,,,,,,,,,,,,,,,,,,,,,,,321.8238,322.9901,l,1,0.4839,1,322.9902,323.4732,,,,,,438,FEM,NOWORD,AGR,150,glava,,la,,0.4839,,323.4732,323.4733,-0.006481481,0.017592593,0,0,0,,0,96,96,437,1,plaza,,,,
,,,,,,5ee95917bdb5522f9ee95e4f,676192165fb32c2e1fb7aee6,67d15f24b1f51f8b251a3b2f,2025-03-12_04h23.58.422,Tarea de decisión léxica,2024.2.5,Win32,119.047619,,,,,,,,,,,,,,,,,,,,,,,323.4739,324.64,a,1,0.4819,1,324.6402,325.1231,,,,,,177,MAS,WORD,AGR,150,reto,,el,,0.4819,,325.1231,325.1232,-0.006481481,0.017592593,0,0,0,,0,97,97,176,1,bito,,,,
,,,,,,5ee95917bdb5522f9ee95e4f,676192165fb32c2e1fb7aee6,67d15f24b1f51f8b251a3b2f,2025-03-12_04h23.58.422,Tarea de decisión léxica,2024.2.5,Win32,119.047619,,,,,,,,,,,,,,,,,,,,,,,325.1238,326.3581,l,1,0.5519,1,326.3581,326.8571,,,,,,26,FEM,NOWORD,AGR,150,paza,,la,,0.5519,,326.8578,326.8581,-0.006481481,0.017592593,0,0,0,,0,98,98,25,1,cama,,,,
,,,,,,5ee95917bdb5522f9ee95e4f,676192165fb32c2e1fb7aee6,67d15f24b1f51f8b251a3b2f,2025-03-12_04h23.58.422,Tarea de decisión léxica,2024.2.5,Win32,119.047619,,,,,,,,,,,,,,,,,,,,,,,326.8586,327.9733,l,1,0.4337,1,327.9733,328.4733,,,,,,456,MAS,NOWORD,DIS,150,riaso,,la,,0.4337,,328.4733,328.4733,-0.006481481,0.017592593,0,0,0,,0,99,99,455,1,reino,,,,
,,,,,,5ee95917bdb5522f9ee95e4f,676192165fb32c2e1fb7aee6,67d15f24b1f51f8b251a3b2f,2025-03-12_04h23.58.422,Tarea de decisión léxica,2024.2.5,Win32,119.047619,,,,,,,,,,,,,,,,,,,,,,,328.4738,329.7762,l,1,0.6197,1,329.7762,330.2761,,,,,,146,MAS,NOWORD,AGR,150,nobo,,el,,0.6197,,330.2762,330.2762,-0.006481481,0.017592593,0,0,0,,0,100,100,145,1,león,,,,
,,,,,,5ee95917bdb5522f9ee95e4f,676192165fb32c2e1fb7aee6,67d15f24b1f51f8b251a3b2f,2025-03-12_04h23.58.422,Tarea de decisión léxica,2024.2.5,Win32,119.047619,,,,,,,,,,,,,,,,,,,,,,,330.2768,331.5758,l,1,0.6195,1,331.5758,332.0735,,,,,,262,MAS,NOWORD,AGR,150,titio,,el,,0.6195,,332.0736,332.0737,-0.006481481,0.017592593,0,0,0,,0,101,101,261,1,sitio,,,,
,,,,,,5ee95917bdb5522f9ee95e4f,676192165fb32c2e1fb7aee6,67d15f24b1f51f8b251a3b2f,2025-03-12_04h23.58.422,Tarea de decisión léxica,2024.2.5,Win32,119.047619,,,,,,,,,,,,,,,,,,,,,,,332.0743,333.1398,a,1,0.3836,1,333.1399,333.6233,,,,,,213,FEM,WORD,DIS,150,rama,,el,,0.3836,,333.6234,333.6235,-0.006481481,0.017592593,0,0,0,,0,102,102,212,1,bana,,,,
,,,,,,5ee95917bdb5522f9ee95e4f,676192165fb32c2e1fb7aee6,67d15f24b1f51f8b251a3b2f,2025-03-12_04h23.58.422,Tarea de decisión léxica,2024.2.5,Win32,119.047619,,,,,,,,,,,,,,,,,,,,,,,333.6242,334.7232,a,1,0.4333,1,334.7233,335.2232,,,,,,419,MAS,WORD,DIS,150,truco,,la,,0.4333,,335.2238,335.2243,-0.006481481,0.017592593,0,0,0,,0,103,103,418,1,chudo,,,,
,,,,,,5ee95917bdb5522f9ee95e4f,676192165fb32c2e1fb7aee6,67d15f24b1f51f8b251a3b2f,2025-03-12_04h23.58.422,Tarea de decisión léxica,2024.2.5,Win32,119.047619,,,,,,,,,,,,,,,,,,,,,,,335.225,336.4565,l,1,0.5504,1,336.4566,336.9566,,,,,,458,MAS,NOWORD,AGR,150,glaco,,el,,0.5504,,336.9566,336.9566,-0.006481481,0.017592593,0,0,0,,0,104,104,457,1,plato,,,,
,,,,,,5ee95917bdb5522f9ee95e4f,676192165fb32c2e1fb7aee6,67d15f24b1f51f8b251a3b2f,2025-03-12_04h23.58.422,Tarea de decisión léxica,2024.2.5,Win32,119.047619,,,,,,,,,,,,,,,,,,,,,,,336.9574,338.1901,l,1,0.5484,1,338.1902,338.69,,,,,,58,MAS,NOWORD,AGR,150,heco,,el,,0.5484,,338.69,338.69,-0.006481481,0.017592593,0,0,0,,0,105,105,57,1,dedo,,,,
,,,,,,5ee95917bdb5522f9ee95e4f,676192165fb32c2e1fb7aee6,67d15f24b1f51f8b251a3b2f,2025-03-12_04h23.58.422,Tarea de decisión léxica,2024.2.5,Win32,119.047619,,,,,,,,,,,,,,,,,,,,,,,338.6907,339.7923,a,1,0.4192,1,339.7923,340.2918,,,,,,87,MAS,WORD,DIS,150,vaso,,la,,0.4192,,340.2918,340.2919,-0.006481481,0.017592593,0,0,0,,0,106,106,86,1,damo,,,,
,,,,,,5ee95917bdb5522f9ee95e4f,676192165fb32c2e1fb7aee6,67d15f24b1f51f8b251a3b2f,2025-03-12_04h23.58.422,Tarea de decisión léxica,2024.2.5,Win32,119.047619,,,,,,,,,,,,,,,,,,,,,,,340.2925,341.4401,l,1,0.467,1,341.4401,341.9396,,,,,,216,FEM,NOWORD,DIS,150,raua,,el,,0.467,,341.9402,341.9407,-0.006481481,0.017592593,0,0,0,,0,107,107,215,1,raíz,,,,
,,,,,,5ee95917bdb5522f9ee95e4f,676192165fb32c2e1fb7aee6,67d15f24b1f51f8b251a3b2f,2025-03-12_04h23.58.422,Tarea de decisión léxica,2024.2.5,Win32,119.047619,,,,,,,,,,,,,,,,,,,,,,,341.9411,343.1565,a,1,0.5501,1,343.1566,343.6564,,,,,,103,FEM,WORD,DIS,150,ruta,,el,,0.5501,,343.6565,343.6565,-0.006481481,0.017592593,0,0,0,,0,108,108,102,1,rova,,,,
,,,,,,5ee95917bdb5522f9ee95e4f,676192165fb32c2e1fb7aee6,67d15f24b1f51f8b251a3b2f,2025-03-12_04h23.58.422,Tarea de decisión léxica,2024.2.5,Win32,119.047619,,,,,,,,,,,,,,,,,,,,,,,343.6572,344.7566,l,1,0.4171,1,344.7567,345.2565,,,,,,158,MAS,NOWORD,AGR,150,hico,,el,,0.4171,,345.2565,345.2565,-0.006481481,0.017592593,0,0,0,,0,109,109,157,1,nido,,,,
,,,,,,5ee95917bdb5522f9ee95e4f,676192165fb32c2e1fb7aee6,67d15f24b1f51f8b251a3b2f,2025-03-12_04h23.58.422,Tarea de decisión léxica,2024.2.5,Win32,119.047619,,,,,,,,,,,,,,,,,,,,,,,345.2571,346.4234,l,1,0.5005,1,346.4235,346.923,,,,,,322,MAS,NOWORD,AGR,150,rarco,,el,,0.5005,,346.9231,346.9231,-0.006481481,0.017592593,0,0,0,,0,110,110,321,1,banco,,,,
,,,,,,5ee95917bdb5522f9ee95e4f,676192165fb32c2e1fb7aee6,67d15f24b1f51f8b251a3b2f,2025-03-12_04h23.58.422,Tarea de decisión léxica,2024.2.5,Win32,119.047619,,,,,,,,,,,,,,,,,,,,,,,346.9237,348.007,a,1,0.4007,1,348.007,348.5066,,,,,,67,FEM,WORD,AGR,150,nena,,la,,0.4007,,348.5066,348.5067,-0.006481481,0.017592593,0,0,0,,0,111,111,66,1,gesa,,,,
,,,,,,5ee95917bdb5522f9ee95e4f,676192165fb32c2e1fb7aee6,67d15f24b1f51f8b251a3b2f,2025-03-12_04h23.58.422,Tarea de decisión léxica,2024.2.5,Win32,119.047619,,,,,,,,,,,,,,,,,,,,,,,348.5072,349.5899,l,1,0.4002,1,349.5899,350.0896,,,,,,240,MAS,NOWORD,DIS,150,poño,,la,,0.4002,,350.0902,350.0906,-0.006481481,0.017592593,0,0,0,,0,112,112,239,1,mozo,,,,
,,,,,,5ee95917bdb5522f9ee95e4f,676192165fb32c2e1fb7aee6,67d15f24b1f51f8b251a3b2f,2025-03-12_04h23.58.422,Tarea de decisión léxica,2024.2.5,Win32,119.047619,,,,,,,,,,,,,,,,,,,,,,,350.091,351.1902,a,1,0.4174,1,351.1902,351.6899,,,,,,451,FEM,WORD,DIS,150,fruta,,el,,0.4174,,351.6899,351.69,-0.006481481,0.017592593,0,0,0,,0,113,113,450,1,clita,,,,
,,,,,,5ee95917bdb5522f9ee95e4f,676192165fb32c2e1fb7aee6,67d15f24b1f51f8b251a3b2f,2025-03-12_04h23.58.422,Tarea de decisión léxica,2024.2.5,Win32,119.047619,,,,,,,,,,,,,,,,,,,,,,,351.6906,352.8234,a,1,0.4505,1,352.8234,353.323,,,,,,257,FEM,WORD,AGR,150,amiga,,la,,0.4505,,353.323,353.323,-0.006481481,0.017592593,0,0,0,,0,114,114,256,1,asama,,,,
,,,,,,5ee95917bdb5522f9ee95e4f,676192165fb32c2e1fb7aee6,67d15f24b1f51f8b251a3b2f,2025-03-12_04h23.58.422,Tarea de decisión léxica,2024.2.5,Win32,119.047619,,,,,,,,,,,,,,,,,,,,,,,353.3237,354.4397,a,1,0.4313,1,354.4398,354.9396,,,,,,255,MAS,WORD,DIS,150,miedo,,la,,0.4313,,354.9396,354.9398,-0.006481481,0.017592593,0,0,0,,0,115,115,254,1,mauco,,,,
,,,,,,5ee95917bdb5522f9ee95e4f,676192165fb32c2e1fb7aee6,67d15f24b1f51f8b251a3b2f,2025-03-12_04h23.58.422,Tarea de decisión léxica,2024.2.5,Win32,119.047619,,,,,,,,,,,,,,,,,,,,,,,354.9404,356.0565,a,0,0.4335,0,356.0569,356.5396,,,,,,446,MAS,NOWORD,AGR,150,ascor,,el,,0.4335,,356.5397,356.5397,-0.006481481,0.017592593,0,0,0,,0,116,116,445,1,actor,,,,
,,,,,,5ee95917bdb5522f9ee95e4f,676192165fb32c2e1fb7aee6,67d15f24b1f51f8b251a3b2f,2025-03-12_04h23.58.422,Tarea de decisión léxica,2024.2.5,Win32,119.047619,,,,,,,,,,,,,,,,,,,,,,,356.5404,357.6564,a,0,0.4335,0,357.6565,358.1563,,,,,,358,FEM,NOWORD,AGR,150,gruba,,la,,0.4335,,358.1569,358.1574,-0.006481481,0.017592593,0,0,0,,0,117,117,357,1,bruja,,,,
,,,,,,5ee95917bdb5522f9ee95e4f,676192165fb32c2e1fb7aee6,67d15f24b1f51f8b251a3b2f,2025-03-12_04h23.58.422,Tarea de decisión léxica,2024.2.5,Win32,119.047619,,,,,,,,,,,,,,,,,,,,,,,358.1577,359.3065,l,1,0.4669,1,359.3068,359.7896,,,,,,178,MAS,NOWORD,AGR,150,bito,,el,,0.4669,,359.7896,359.7897,-0.006481481,0.017592593,0,0,0,,0,118,118,177,1,reto,,,,
,,,,,,5ee95917bdb5522f9ee95e4f,676192165fb32c2e1fb7aee6,67d15f24b1f51f8b251a3b2f,2025-03-12_04h23.58.422,Tarea de decisión léxica,2024.2.5,Win32,119.047619,,,,,,,,,,,,,,,,,,,,,,,359.7903,361.1262,l,1,0.653,1,361.1263,361.6258,,,,,,366,FEM,NOWORD,AGR,150,gulla,,la,,0.653,,361.6259,361.6259,-0.006481481,0.017592593,0,0,0,,0,119,119,365,1,ducha,,,,
,,,,,,5ee95917bdb5522f9ee95e4f,676192165fb32c2e1fb7aee6,67d15f24b1f51f8b251a3b2f,2025-03-12_04h23.58.422,Tarea de decisión léxica,2024.2.5,Win32,119.047619,,,,,,,,,,,,,,,,,,,,,,,361.6265,362.9065,a,0,0.5986,0,362.9071,363.4064,,,,,,46,FEM,NOWORD,AGR,150,pema,,la,,0.5986,,363.4065,363.4065,-0.006481481,0.017592593,0,0,0,,0,120,120,45,1,mesa,,,,
,,,,,,5ee95917bdb5522f9ee95e4f,676192165fb32c2e1fb7aee6,67d15f24b1f51f8b251a3b2f,2025-03-12_04h23.58.422,Tarea de decisión léxica,2024.2.5,Win32,119.047619,,,,,,,,,,,,,,,,,,,,,,,363.4071,364.7252,l,1,0.6354,1,364.7256,365.2247,,,,,,306,MAS,NOWORD,AGR,150,adiol,,el,,0.6354,,365.2247,365.2247,-0.006481481,0.017592593,0,0,0,,0,121,121,305,1,avión,,,,
,,,,,,5ee95917bdb5522f9ee95e4f,676192165fb32c2e1fb7aee6,67d15f24b1f51f8b251a3b2f,2025-03-12_04h23.58.422,Tarea de decisión léxica,2024.2.5,Win32,119.047619,,,,,,,,,,,,,,,,,,,,,,,365.2254,366.4565,l,1,0.5501,1,366.4565,366.9563,,,,,,168,FEM,NOWORD,DIS,150,zifa,,el,,0.5501,,366.9569,366.9573,-0.006481481,0.017592593,0,0,0,,0,122,122,167,1,jefa,,,,
,,,,,,5ee95917bdb5522f9ee95e4f,676192165fb32c2e1fb7aee6,67d15f24b1f51f8b251a3b2f,2025-03-12_04h23.58.422,Tarea de decisión léxica,2024.2.5,Win32,119.047619,,,,,,,,,,,,,,,,,,,,,,,366.9577,368.0565,l,1,0.4154,1,368.0565,368.5396,,,,,,190,MAS,NOWORD,AGR,150,muvo,,el,,0.4154,,368.5396,368.5397,-0.006481481,0.017592593,0,0,0,,0,123,123,189,1,puño,,,,
,,,,,,5ee95917bdb5522f9ee95e4f,676192165fb32c2e1fb7aee6,67d15f24b1f51f8b251a3b2f,2025-03-12_04h23.58.422,Tarea de decisión léxica,2024.2.5,Win32,119.047619,,,,,,,,,,,,,,,,,,,,,,,368.5402,369.74,a,1,0.5167,1,369.74,370.2397,,,,,,217,MAS,WORD,DIS,150,luto,,la,,0.5167,,370.2397,370.2398,-0.006481481,0.017592593,0,0,0,,0,124,124,216,1,budo,,,,
,,,,,,5ee95917bdb5522f9ee95e4f,676192165fb32c2e1fb7aee6,67d15f24b1f51f8b251a3b2f,2025-03-12_04h23.58.422,Tarea de decisión léxica,2024.2.5,Win32,119.047619,,,,,,,,,,,,,,,,,,,,,,,370.2404,371.4068,l,1,0.4839,1,371.4068,371.9064,,,,,,356,FEM,NOWORD,DIS,150,bepla,,el,,0.4839,,371.9064,371.9065,-0.006481481,0.017592593,0,0,0,,0,125,125,355,1,regla,,,,
,,,,,,5ee95917bdb5522f9ee95e4f,676192165fb32c2e1fb7aee6,67d15f24b1f51f8b251a3b2f,2025-03-12_04h23.58.422,Tarea de decisión léxica,2024.2.5,Win32,119.047619,,,,,,,,,,,,,,,,,,,,,,,371.9071,373.0234,a,1,0.4336,1,373.0235,373.5228,,,,,,49,FEM,WORD,AGR,150,edad,,la,,0.4336,,373.5229,373.5229,-0.006481481,0.017592593,0,0,0,,0,126,126,48,1,ecat,,,,
,,,,,,5ee95917bdb5522f9ee95e4f,676192165fb32c2e1fb7aee6,67d15f24b1f51f8b251a3b2f,2025-03-12_04h23.58.422,Tarea de decisión léxica,2024.2.5,Win32,119.047619,,,,,,,,,,,,,,,,,,,,,,,373.5235,374.5732,a,1,0.3668,1,374.5733,375.0731,,,,,,355,FEM,WORD,AGR,150,regla,,la,,0.3668,,375.0738,375.0741,-0.006481481,0.017592593,0,0,0,,0,127,127,354,1,bepla,,,,
,,,,,,5ee95917bdb5522f9ee95e4f,676192165fb32c2e1fb7aee6,67d15f24b1f51f8b251a3b2f,2025-03-12_04h23.58.422,Tarea de decisión léxica,2024.2.5,Win32,119.047619,,,,,,,,,,,,,,,,,,,,,,,375.0745,376.1732,a,1,0.4156,1,376.1733,376.6732,,,,,,263,FEM,WORD,DIS,150,vista,,el,,0.4156,,376.6732,376.6733,-0.006481481,0.017592593,0,0,0,,0,128,128,262,1,dosta,,,,
,,,,,,5ee95917bdb5522f9ee95e4f,676192165fb32c2e1fb7aee6,67d15f24b1f51f8b251a3b2f,2025-03-12_04h23.58.422,Tarea de decisión léxica,2024.2.5,Win32,119.047619,,,,,,,,,,,,,,,,,,,,,,,376.6739,377.8569,l,1,0.5005,1,377.8569,378.3563,,,,,,110,MAS,NOWORD,AGR,150,suno,,el,,0.5005,,378.3564,378.3565,-0.006481481,0.017592593,0,0,0,,0,129,129,109,1,rayo,,,,
,,,,,,5ee95917bdb5522f9ee95e4f,676192165fb32c2e1fb7aee6,67d15f24b1f51f8b251a3b2f,2025-03-12_04h23.58.422,Tarea de decisión léxica,2024.2.5,Win32,119.047619,,,,,,,,,,,,,,,,,,,,,,,378.357,379.6734,l,1,0.6331,1,379.6735,380.173,,,,,,418,FEM,NOWORD,AGR,150,banja,,la,,0.6331,,380.173,380.173,-0.006481481,0.017592593,0,0,0,,0,130,130,417,1,barba,,,,
,,,,,,5ee95917bdb5522f9ee95e4f,676192165fb32c2e1fb7aee6,67d15f24b1f51f8b251a3b2f,2025-03-12_04h23.58.422,Tarea de decisión léxica,2024.2.5,Win32,119.047619,,,,,,,,,,,,,,,,,,,,,,,380.1736,381.2595,a,1,0.4033,1,381.2596,381.758,,,,,,231,FEM,WORD,AGR,150,bota,,la,,0.4033,,381.7586,381.759,-0.006481481,0.017592593,0,0,0,,0,131,131,230,1,heta,,,,
,,,,,,5ee95917bdb5522f9ee95e4f,676192165fb32c2e1fb7aee6,67d15f24b1f51f8b251a3b2f,2025-03-12_04h23.58.422,Tarea de decisión léxica,2024.2.5,Win32,119.047619,,,,,,,,,,,,,,,,,,,,,,,381.7595,382.8898,l,1,0.4502,1,382.8898,383.3729,,,,,,328,MAS,NOWORD,DIS,150,lendo,,la,,0.4502,,383.3729,383.3729,-0.006481481,0.017592593,0,0,0,,0,132,132,327,1,fondo,,,,
,,,,,,5ee95917bdb5522f9ee95e4f,676192165fb32c2e1fb7aee6,67d15f24b1f51f8b251a3b2f,2025-03-12_04h23.58.422,Tarea de decisión léxica,2024.2.5,Win32,119.047619,,,,,,,,,,,,,,,,,,,,,,,383.3736,384.5064,l,0,0.4669,0,384.5069,385.0065,,,,,,459,MAS,WORD,AGR,150,grado,,el,,0.4669,,385.0066,385.0066,-0.006481481,0.017592593,0,0,0,,0,133,133,458,1,fraco,,,,
,,,,,,5ee95917bdb5522f9ee95e4f,676192165fb32c2e1fb7aee6,67d15f24b1f51f8b251a3b2f,2025-03-12_04h23.58.422,Tarea de decisión léxica,2024.2.5,Win32,119.047619,,,,,,,,,,,,,,,,,,,,,,,385.0072,386.1732,l,1,0.5001,1,386.1737,386.6733,,,,,,108,MAS,NOWORD,DIS,150,raot,,la,,0.5001,,386.6733,386.6733,-0.006481481,0.017592593,0,0,0,,0,134,134,107,1,saco,,,,
,,,,,,5ee95917bdb5522f9ee95e4f,676192165fb32c2e1fb7aee6,67d15f24b1f51f8b251a3b2f,2025-03-12_04h23.58.422,Tarea de decisión léxica,2024.2.5,Win32,119.047619,,,,,,,,,,,,,,,,,,,,,,,386.674,387.9232,l,1,0.5669,1,387.9232,388.4231,,,,,,224,FEM,NOWORD,DIS,150,cira,,el,,0.5669,,388.4232,388.4232,-0.006481481,0.017592593,0,0,0,,0,135,135,223,1,cera,,,,
,,,,,,5ee95917bdb5522f9ee95e4f,676192165fb32c2e1fb7aee6,67d15f24b1f51f8b251a3b2f,2025-03-12_04h23.58.422,Tarea de decisión léxica,2024.2.5,Win32,119.047619,,,,,,,,,,,,,,,,,,,,,,,388.4237,389.5405,l,0,0.4343,0,389.5409,390.0231,,,,,,405,FEM,WORD,DIS,150,barra,,el,,0.4343,,390.0237,390.0242,-0.006481481,0.017592593,0,0,0,,0,136,136,404,1,rarra,,,,
,,,,,,5ee95917bdb5522f9ee95e4f,676192165fb32c2e1fb7aee6,67d15f24b1f51f8b251a3b2f,2025-03-12_04h23.58.422,Tarea de decisión léxica,2024.2.5,Win32,119.047619,,,,,,,,,,,,,,,,,,,,,,,390.0245,391.2398,a,1,0.5333,1,391.2402,391.7397,,,,,,203,FEM,WORD,AGR,150,leña,,la,,0.5333,,391.7397,391.7397,-0.006481481,0.017592593,0,0,0,,0,137,137,202,1,beja,,,,
,,,,,,5ee95917bdb5522f9ee95e4f,676192165fb32c2e1fb7aee6,67d15f24b1f51f8b251a3b2f,2025-03-12_04h23.58.422,Tarea de decisión léxica,2024.2.5,Win32,119.047619,,,,,,,,,,,,,,,,,,,,,,,391.7403,393.0565,l,1,0.6335,1,393.0566,393.5563,,,,,,88,MAS,NOWORD,DIS,150,damo,,la,,0.6335,,393.5563,393.5565,-0.006481481,0.017592593,0,0,0,,0,138,138,87,1,vaso,,,,
,,,,,,5ee95917bdb5522f9ee95e4f,676192165fb32c2e1fb7aee6,67d15f24b1f51f8b251a3b2f,2025-03-12_04h23.58.422,Tarea de decisión léxica,2024.2.5,Win32,119.047619,,,,,,,,,,,,,,,,,,,,,,,393.557,394.6747,a,1,0.4352,1,394.6748,395.1749,,,,,,261,MAS,WORD,DIS,150,sitio,,la,,0.4352,,395.175,395.175,-0.006481481,0.017592593,0,0,0,,0,139,139,260,1,titio,,,,
,,,,,,5ee95917bdb5522f9ee95e4f,676192165fb32c2e1fb7aee6,67d15f24b1f51f8b251a3b2f,2025-03-12_04h23.58.422,Tarea de decisión léxica,2024.2.5,Win32,119.047619,,,,,,,,,,,,,,,,,,,,,,,395.1755,396.3233,l,1,0.4672,1,396.3234,396.8232,,,,,,186,MAS,NOWORD,AGR,150,raol,,el,,0.4672,,396.8233,396.8233,-0.006481481,0.017592593,0,0,0,,0,140,140,185,1,baúl,,,,
,,,,,,5ee95917bdb5522f9ee95e4f,676192165fb32c2e1fb7aee6,67d15f24b1f51f8b251a3b2f,2025-03-12_04h23.58.422,Tarea de decisión léxica,2024.2.5,Win32,119.047619,,,,,,,,,,,,,,,,,,,,,,,396.8239,397.9735,a,1,0.4672,1,397.9735,398.473,,,,,,35,MAS,WORD,AGR,150,pelo,,el,,0.4672,,398.4736,398.4741,-0.006481481,0.017592593,0,0,0,,0,141,141,34,1,meno,,,,
,,,,,,5ee95917bdb5522f9ee95e4f,676192165fb32c2e1fb7aee6,67d15f24b1f51f8b251a3b2f,2025-03-12_04h23.58.422,Tarea de decisión léxica,2024.2.5,Win32,119.047619,,,,,,,,,,,,,,,,,,,,,,,398.4745,399.6731,l,1,0.5168,1,399.6732,400.1729,,,,,,42,FEM,NOWORD,AGR,150,haje,,la,,0.5168,,400.173,400.173,-0.006481481,0.017592593,0,0,0,,0,142,142,41,1,nave,,,,
,,,,,,5ee95917bdb5522f9ee95e4f,676192165fb32c2e1fb7aee6,67d15f24b1f51f8b251a3b2f,2025-03-12_04h23.58.422,Tarea de decisión léxica,2024.2.5,Win32,119.047619,,,,,,,,,,,,,,,,,,,,,,,400.1736,401.2233,a,1,0.367,1,401.2234,401.723,,,,,,359,MAS,WORD,DIS,150,calor,,la,,0.367,,401.723,401.723,-0.006481481,0.017592593,0,0,0,,0,143,143,358,1,cacer,,,,
,,,,,,5ee95917bdb5522f9ee95e4f,676192165fb32c2e1fb7aee6,67d15f24b1f51f8b251a3b2f,2025-03-12_04h23.58.422,Tarea de decisión léxica,2024.2.5,Win32,119.047619,,,,,,,,,,,,,,,,,,,,,,,401.7236,402.8733,a,1,0.467,1,402.8733,403.373,,,,,,25,FEM,WORD,AGR,150,cama,,la,,0.467,,403.373,403.3731,-0.006481481,0.017592593,0,0,0,,0,144,144,24,1,paza,,,,
,,,,,,5ee95917bdb5522f9ee95e4f,676192165fb32c2e1fb7aee6,67d15f24b1f51f8b251a3b2f,2025-03-12_04h23.58.422,Tarea de decisión léxica,2024.2.5,Win32,119.047619,,,,,,,,,,,,,,,,,,,,,,,403.3737,404.44,a,1,0.3838,1,404.4401,404.9396,,,,,,173,FEM,WORD,AGR,150,rosa,,la,,0.3838,,404.9396,404.9397,-0.006481481,0.017592593,0,0,0,,0,145,145,172,1,boma,,,,
,,,,,,5ee95917bdb5522f9ee95e4f,676192165fb32c2e1fb7aee6,67d15f24b1f51f8b251a3b2f,2025-03-12_04h23.58.422,Tarea de decisión léxica,2024.2.5,Win32,119.047619,,,,,,,,,,,,,,,,,,,,,,,404.9403,406.0405,a,0,0.4342,0,406.0408,406.5395,,,,,,234,FEM,NOWORD,AGR,150,fasa,,la,,0.4342,,406.5401,406.5405,-0.006481481,0.017592593,0,0,0,,0,146,146,233,1,lana,,,,
,,,,,,5ee95917bdb5522f9ee95e4f,676192165fb32c2e1fb7aee6,67d15f24b1f51f8b251a3b2f,2025-03-12_04h23.58.422,Tarea de decisión léxica,2024.2.5,Win32,119.047619,,,,,,,,,,,,,,,,,,,,,,,406.5409,407.7734,a,0,0.5503,0,407.7734,408.2729,,,,,,150,MAS,NOWORD,AGR,150,pafo,,el,,0.5503,,408.273,408.273,-0.006481481,0.017592593,0,0,0,,0,147,147,149,1,cabo,,,,
,,,,,,5ee95917bdb5522f9ee95e4f,676192165fb32c2e1fb7aee6,67d15f24b1f51f8b251a3b2f,2025-03-12_04h23.58.422,Tarea de decisión léxica,2024.2.5,Win32,119.047619,,,,,,,,,,,,,,,,,,,,,,,408.2737,409.3399,a,1,0.3836,1,409.3403,409.8398,,,,,,195,FEM,WORD,AGR,150,tela,,la,,0.3836,,409.8399,409.84,-0.006481481,0.017592593,0,0,0,,0,148,148,194,1,sira,,,,
,,,,,,5ee95917bdb5522f9ee95e4f,676192165fb32c2e1fb7aee6,67d15f24b1f51f8b251a3b2f,2025-03-12_04h23.58.422,Tarea de decisión léxica,2024.2.5,Win32,119.047619,,,,,,,,,,,,,,,,,,,,,,,409.8405,410.9565,l,1,0.4335,1,410.9566,411.4397,,,,,,172,MAS,NOWORD,DIS,150,niro,,la,,0.4335,,411.4397,411.4398,-0.006481481,0.017592593,0,0,0,,0,149,149,171,1,hilo,,,,
,,,,,,5ee95917bdb5522f9ee95e4f,676192165fb32c2e1fb7aee6,67d15f24b1f51f8b251a3b2f,2025-03-12_04h23.58.422,Tarea de decisión léxica,2024.2.5,Win32,119.047619,,,,,,,,,,,,,,,,,,,,,,,411.4404,412.6565,a,1,0.5336,1,412.6566,413.1564,,,,,,125,MAS,WORD,AGR,150,lujo,,el,,0.5336,,413.1564,413.1565,-0.006481481,0.017592593,0,0,0,,0,150,150,124,1,vudo,,,,
,,,,,,5ee95917bdb5522f9ee95e4f,676192165fb32c2e1fb7aee6,67d15f24b1f51f8b251a3b2f,2025-03-12_04h23.58.422,Tarea de decisión léxica,2024.2.5,Win32,119.047619,,,,,,,,,,,,,,,,,,,,,,,413.1571,414.409,l,1,0.5694,1,414.4091,414.909,,,,,,448,MAS,NOWORD,DIS,150,buaso,,la,,0.5694,,414.9095,414.91,-0.006481481,0.017592593,0,0,0,,0,151,151,447,1,bolso,,,,
,,,,,,5ee95917bdb5522f9ee95e4f,676192165fb32c2e1fb7aee6,67d15f24b1f51f8b251a3b2f,2025-03-12_04h23.58.422,Tarea de decisión léxica,2024.2.5,Win32,119.047619,,,,,,,,,,,,,,,,,,,,,,,414.9104,416.0226,a,1,0.433,1,416.0226,416.5231,,,,,,411,MAS,WORD,AGR,150,pollo,,el,,0.433,,416.5231,416.5232,-0.006481481,0.017592593,0,0,0,,0,152,152,410,1,mobro,,,,
,,,,,,5ee95917bdb5522f9ee95e4f,676192165fb32c2e1fb7aee6,67d15f24b1f51f8b251a3b2f,2025-03-12_04h23.58.422,Tarea de decisión léxica,2024.2.5,Win32,119.047619,,,,,,,,,,,,,,,,,,,,,,,416.5239,417.6565,a,1,0.4486,1,417.6565,418.1563,,,,,,465,FEM,WORD,DIS,150,aguja,,el,,0.4486,,418.1564,418.1564,-0.006481481,0.017592593,0,0,0,,0,153,153,464,1,asuba,,,,
,,,,,,5ee95917bdb5522f9ee95e4f,676192165fb32c2e1fb7aee6,67d15f24b1f51f8b251a3b2f,2025-03-12_04h23.58.422,Tarea de decisión léxica,2024.2.5,Win32,119.047619,,,,,,,,,,,,,,,,,,,,,,,418.157,419.3231,l,1,0.5,1,419.3232,419.823,,,,,,472,FEM,NOWORD,DIS,150,prana,,el,,0.5,,419.823,419.823,-0.006481481,0.017592593,0,0,0,,0,154,154,471,1,grasa,,,,
,,,,,,5ee95917bdb5522f9ee95e4f,676192165fb32c2e1fb7aee6,67d15f24b1f51f8b251a3b2f,2025-03-12_04h23.58.422,Tarea de decisión léxica,2024.2.5,Win32,119.047619,,,,,,,,,,,,,,,,,,,,,,,419.8237,420.9569,a,1,0.4501,1,420.9569,421.4563,,,,,,147,FEM,WORD,DIS,150,hoja,,el,,0.4501,,421.4568,421.4573,-0.006481481,0.017592593,0,0,0,,0,155,155,146,1,pama,,,,
,,,,,,5ee95917bdb5522f9ee95e4f,676192165fb32c2e1fb7aee6,67d15f24b1f51f8b251a3b2f,2025-03-12_04h23.58.422,Tarea de decisión léxica,2024.2.5,Win32,119.047619,,,,,,,,,,,,,,,,,,,,,,,421.4578,422.6732,l,1,0.5338,1,422.6732,423.1731,,,,,,280,FEM,NOWORD,DIS,150,grina,,el,,0.5338,,423.1731,423.1732,-0.006481481,0.017592593,0,0,0,,0,156,156,279,1,prisa,,,,
,,,,,,5ee95917bdb5522f9ee95e4f,676192165fb32c2e1fb7aee6,67d15f24b1f51f8b251a3b2f,2025-03-12_04h23.58.422,Tarea de decisión léxica,2024.2.5,Win32,119.047619,,,,,,,,,,,,,,,,,,,,,,,423.1738,424.2735,a,1,0.4337,1,424.2735,424.7731,,,,,,19,MAS,WORD,AGR,150,niño,,el,,0.4337,,424.7731,424.7731,-0.006481481,0.017592593,0,0,0,,0,157,157,18,1,himo,,,,
,,,,,,5ee95917bdb5522f9ee95e4f,676192165fb32c2e1fb7aee6,67d15f24b1f51f8b251a3b2f,2025-03-12_04h23.58.422,Tarea de decisión léxica,2024.2.5,Win32,119.047619,,,,,,,,,,,,,,,,,,,,,,,424.7738,425.8734,a,1,0.4341,1,425.8735,426.3734,,,,,,65,MAS,WORD,AGR,150,dios,,el,,0.4341,,426.3734,426.3734,-0.006481481,0.017592593,0,0,0,,0,158,158,64,1,nios,,,,
,,,,,,5ee95917bdb5522f9ee95e4f,676192165fb32c2e1fb7aee6,67d15f24b1f51f8b251a3b2f,2025-03-12_04h23.58.422,Tarea de decisión léxica,2024.2.5,Win32,119.047619,,,,,,,,,,,,,,,,,,,,,,,426.374,427.5732,l,1,0.5333,1,427.5733,428.0731,,,,,,384,FEM,NOWORD,DIS,150,brame,,el,,0.5333,,428.0731,428.0732,-0.006481481,0.017592593,0,0,0,,0,159,159,383,1,frase,,,,
,,,,,,5ee95917bdb5522f9ee95e4f,676192165fb32c2e1fb7aee6,67d15f24b1f51f8b251a3b2f,2025-03-12_04h23.58.422,Tarea de decisión léxica,2024.2.5,Win32,119.047619,,,,,,,,,,,,,,,,,,,,,,,428.0738,429.1565,a,1,0.4002,1,429.1566,429.6565,,,,,,179,MAS,WORD,DIS,150,toro,,la,,0.4002,,429.6571,704.807,-0.006481481,0.017592593,0,0,0,space,0,160,160,178,1,sono,275.1168,,,
,,,,,,5ee95917bdb5522f9ee95e4f,676192165fb32c2e1fb7aee6,67d15f24b1f51f8b251a3b2f,2025-03-12_04h23.58.422,Tarea de decisión léxica,2024.2.5,Win32,119.047619,,,,,,,,,,,,,,,,,,,,,,,704.8079,706.1738,a,1,0.6845,1,706.1739,706.6751,,,,,,149,MAS,WORD,AGR,150,cabo,,el,,0.6845,,706.6751,706.6751,-0.006481481,0.017592593,0,0,0,,0,161,161,148,1,pafo,,,,
,,,,,,5ee95917bdb5522f9ee95e4f,676192165fb32c2e1fb7aee6,67d15f24b1f51f8b251a3b2f,2025-03-12_04h23.58.422,Tarea de decisión léxica,2024.2.5,Win32,119.047619,,,,,,,,,,,,,,,,,,,,,,,706.6757,707.6744,a,1,0.3331,1,707.6744,708.1739,,,,,,3,FEM,WORD,AGR,150,vida,,la,,0.3331,,708.1741,708.1741,-0.006481481,0.017592593,0,0,0,,0,162,162,2,1,dica,,,,
,,,,,,5ee95917bdb5522f9ee95e4f,676192165fb32c2e1fb7aee6,67d15f24b1f51f8b251a3b2f,2025-03-12_04h23.58.422,Tarea de decisión léxica,2024.2.5,Win32,119.047619,,,,,,,,,,,,,,,,,,,,,,,708.1746,709.5064,a,1,0.6504,1,709.5064,710.0061,,,,,,159,MAS,WORD,AGR,150,giro,,el,,0.6504,,710.0061,710.0062,-0.006481481,0.017592593,0,0,0,,0,163,163,158,1,bilo,,,,
,,,,,,5ee95917bdb5522f9ee95e4f,676192165fb32c2e1fb7aee6,67d15f24b1f51f8b251a3b2f,2025-03-12_04h23.58.422,Tarea de decisión léxica,2024.2.5,Win32,119.047619,,,,,,,,,,,,,,,,,,,,,,,710.0069,711.1231,l,1,0.4337,1,711.1232,711.6229,,,,,,368,MAS,NOWORD,DIS,150,rerob,,la,,0.4337,,711.623,711.623,-0.006481481,0.017592593,0,0,0,,0,164,164,367,1,reloj,,,,
,,,,,,5ee95917bdb5522f9ee95e4f,676192165fb32c2e1fb7aee6,67d15f24b1f51f8b251a3b2f,2025-03-12_04h23.58.422,Tarea de decisión léxica,2024.2.5,Win32,119.047619,,,,,,,,,,,,,,,,,,,,,,,711.6236,712.8398,l,1,0.5316,1,712.8399,713.3393,,,,,,68,FEM,NOWORD,DIS,150,gesa,,el,,0.5316,,713.3399,713.3403,-0.006481481,0.017592593,0,0,0,,0,165,165,67,1,nena,,,,
,,,,,,5ee95917bdb5522f9ee95e4f,676192165fb32c2e1fb7aee6,67d15f24b1f51f8b251a3b2f,2025-03-12_04h23.58.422,Tarea de decisión léxica,2024.2.5,Win32,119.047619,,,,,,,,,,,,,,,,,,,,,,,713.3407,714.5567,a,1,0.5338,1,714.5567,715.0564,,,,,,423,MAS,WORD,DIS,150,queso,,la,,0.5338,,715.0564,715.0564,-0.006481481,0.017592593,0,0,0,,0,166,166,422,1,quigo,,,,
,,,,,,5ee95917bdb5522f9ee95e4f,676192165fb32c2e1fb7aee6,67d15f24b1f51f8b251a3b2f,2025-03-12_04h23.58.422,Tarea de decisión léxica,2024.2.5,Win32,119.047619,,,,,,,,,,,,,,,,,,,,,,,715.057,716.2915,l,1,0.552,1,716.2915,716.7914,,,,,,344,FEM,NOWORD,DIS,150,trada,,el,,0.552,,716.7915,716.7915,-0.006481481,0.017592593,0,0,0,,0,167,167,343,1,plata,,,,
,,,,,,5ee95917bdb5522f9ee95e4f,676192165fb32c2e1fb7aee6,67d15f24b1f51f8b251a3b2f,2025-03-12_04h23.58.422,Tarea de decisión léxica,2024.2.5,Win32,119.047619,,,,,,,,,,,,,,,,,,,,,,,716.7922,717.8911,a,0,0.4184,0,717.8916,718.3911,,,,,,188,MAS,NOWORD,DIS,150,suto,,la,,0.4184,,718.3911,718.3911,-0.006481481,0.017592593,0,0,0,,0,168,168,187,1,mito,,,,
,,,,,,5ee95917bdb5522f9ee95e4f,676192165fb32c2e1fb7aee6,67d15f24b1f51f8b251a3b2f,2025-03-12_04h23.58.422,Tarea de decisión léxica,2024.2.5,Win32,119.047619,,,,,,,,,,,,,,,,,,,,,,,718.3917,719.4731,a,1,0.4004,1,719.4735,719.9728,,,,,,161,MAS,WORD,DIS,150,coro,,la,,0.4004,,719.9728,719.9729,-0.006481481,0.017592593,0,0,0,,0,169,169,160,1,bopo,,,,
,,,,,,5ee95917bdb5522f9ee95e4f,676192165fb32c2e1fb7aee6,67d15f24b1f51f8b251a3b2f,2025-03-12_04h23.58.422,Tarea de decisión léxica,2024.2.5,Win32,119.047619,,,,,,,,,,,,,,,,,,,,,,,719.9734,721.1898,l,1,0.5337,1,721.1899,721.6898,,,,,,266,FEM,NOWORD,AGR,150,pitat,,la,,0.5337,,721.6904,721.6908,-0.006481481,0.017592593,0,0,0,,0,170,170,265,1,mitad,,,,
,,,,,,5ee95917bdb5522f9ee95e4f,676192165fb32c2e1fb7aee6,67d15f24b1f51f8b251a3b2f,2025-03-12_04h23.58.422,Tarea de decisión léxica,2024.2.5,Win32,119.047619,,,,,,,,,,,,,,,,,,,,,,,721.6912,722.823,l,1,0.4504,1,722.823,723.3231,,,,,,308,MAS,NOWORD,DIS,150,holol,,la,,0.4504,,723.3231,723.3232,-0.006481481,0.017592593,0,0,0,,0,171,171,307,1,hotel,,,,
,,,,,,5ee95917bdb5522f9ee95e4f,676192165fb32c2e1fb7aee6,67d15f24b1f51f8b251a3b2f,2025-03-12_04h23.58.422,Tarea de decisión léxica,2024.2.5,Win32,119.047619,,,,,,,,,,,,,,,,,,,,,,,723.3237,724.6564,a,1,0.6501,1,724.6564,725.1561,,,,,,47,MAS,WORD,DIS,150,club,,la,,0.6501,,725.1562,725.1563,-0.006481481,0.017592593,0,0,0,,0,172,172,46,1,chub,,,,
,,,,,,5ee95917bdb5522f9ee95e4f,676192165fb32c2e1fb7aee6,67d15f24b1f51f8b251a3b2f,2025-03-12_04h23.58.422,Tarea de decisión léxica,2024.2.5,Win32,119.047619,,,,,,,,,,,,,,,,,,,,,,,725.1568,726.3397,l,1,0.5171,1,726.3398,726.8227,,,,,,256,MAS,NOWORD,DIS,150,mauco,,la,,0.5171,,726.8227,726.8228,-0.006481481,0.017592593,0,0,0,,0,173,173,255,1,miedo,,,,
,,,,,,5ee95917bdb5522f9ee95e4f,676192165fb32c2e1fb7aee6,67d15f24b1f51f8b251a3b2f,2025-03-12_04h23.58.422,Tarea de decisión léxica,2024.2.5,Win32,119.047619,,,,,,,,,,,,,,,,,,,,,,,726.8235,728.0396,l,1,0.5314,1,728.0397,728.5229,,,,,,8,MAS,NOWORD,DIS,150,nivo,,la,,0.5314,,728.5229,728.523,-0.006481481,0.017592593,0,0,0,,0,174,174,7,1,hijo,,,,
,,,,,,5ee95917bdb5522f9ee95e4f,676192165fb32c2e1fb7aee6,67d15f24b1f51f8b251a3b2f,2025-03-12_04h23.58.422,Tarea de decisión léxica,2024.2.5,Win32,119.047619,,,,,,,,,,,,,,,,,,,,,,,728.5236,730.09,l,1,0.882,1,730.0901,730.5895,,,,,,204,FEM,NOWORD,DIS,150,beja,,el,,0.882,,730.5901,730.5904,-0.006481481,0.017592593,0,0,0,,0,175,175,203,1,leña,,,,
,,,,,,5ee95917bdb5522f9ee95e4f,676192165fb32c2e1fb7aee6,67d15f24b1f51f8b251a3b2f,2025-03-12_04h23.58.422,Tarea de decisión léxica,2024.2.5,Win32,119.047619,,,,,,,,,,,,,,,,,,,,,,,730.5908,731.7074,l,0,0.4344,0,731.7078,732.2064,,,,,,393,FEM,WORD,DIS,150,aldea,,el,,0.4344,,732.2064,732.2064,-0.006481481,0.017592593,0,0,0,,0,176,176,392,1,ashea,,,,
,,,,,,5ee95917bdb5522f9ee95e4f,676192165fb32c2e1fb7aee6,67d15f24b1f51f8b251a3b2f,2025-03-12_04h23.58.422,Tarea de decisión léxica,2024.2.5,Win32,119.047619,,,,,,,,,,,,,,,,,,,,,,,732.207,733.2563,a,1,0.3671,1,733.2567,733.7562,,,,,,115,FEM,WORD,AGR,150,pata,,la,,0.3671,,733.7563,733.7563,-0.006481481,0.017592593,0,0,0,,0,177,177,114,1,haca,,,,
,,,,,,5ee95917bdb5522f9ee95e4f,676192165fb32c2e1fb7aee6,67d15f24b1f51f8b251a3b2f,2025-03-12_04h23.58.422,Tarea de decisión léxica,2024.2.5,Win32,119.047619,,,,,,,,,,,,,,,,,,,,,,,733.7569,734.7731,a,1,0.35,1,734.7731,735.2727,,,,,,421,MAS,WORD,AGR,150,primo,,el,,0.35,,735.2728,735.2729,-0.006481481,0.017592593,0,0,0,,0,178,178,420,1,griso,,,,
,,,,,,5ee95917bdb5522f9ee95e4f,676192165fb32c2e1fb7aee6,67d15f24b1f51f8b251a3b2f,2025-03-12_04h23.58.422,Tarea de decisión léxica,2024.2.5,Win32,119.047619,,,,,,,,,,,,,,,,,,,,,,,735.2734,736.4563,l,1,0.5003,1,736.4563,736.9394,,,,,,6,FEM,NOWORD,AGR,150,poga,,la,,0.5003,,736.94,736.9403,-0.006481481,0.017592593,0,0,0,,0,179,179,5,1,cosa,,,,
,,,,,,5ee95917bdb5522f9ee95e4f,676192165fb32c2e1fb7aee6,67d15f24b1f51f8b251a3b2f,2025-03-12_04h23.58.422,Tarea de decisión léxica,2024.2.5,Win32,119.047619,,,,,,,,,,,,,,,,,,,,,,,736.9407,737.9897,a,1,0.3643,1,737.9898,738.4894,,,,,,53,FEM,WORD,AGR,150,boda,,la,,0.3643,,738.4895,738.4896,-0.006481481,0.017592593,0,0,0,,0,180,180,52,1,rora,,,,
,,,,,,5ee95917bdb5522f9ee95e4f,676192165fb32c2e1fb7aee6,67d15f24b1f51f8b251a3b2f,2025-03-12_04h23.58.422,Tarea de decisión léxica,2024.2.5,Win32,119.047619,,,,,,,,,,,,,,,,,,,,,,,738.4901,739.5896,a,1,0.4168,1,739.5897,740.0729,,,,,,449,FEM,WORD,AGR,150,pluma,,la,,0.4168,,740.0729,740.0729,-0.006481481,0.017592593,0,0,0,,0,181,181,448,1,crusa,,,,
,,,,,,5ee95917bdb5522f9ee95e4f,676192165fb32c2e1fb7aee6,67d15f24b1f51f8b251a3b2f,2025-03-12_04h23.58.422,Tarea de decisión léxica,2024.2.5,Win32,119.047619,,,,,,,,,,,,,,,,,,,,,,,740.0735,741.3062,l,1,0.5666,1,741.3064,741.8061,,,,,,192,FEM,NOWORD,DIS,150,bila,,el,,0.5666,,741.8061,741.8061,-0.006481481,0.017592593,0,0,0,,0,182,182,191,1,pila,,,,
,,,,,,5ee95917bdb5522f9ee95e4f,676192165fb32c2e1fb7aee6,67d15f24b1f51f8b251a3b2f,2025-03-12_04h23.58.422,Tarea de decisión léxica,2024.2.5,Win32,119.047619,,,,,,,,,,,,,,,,,,,,,,,741.8068,742.9731,l,1,0.4836,1,742.9732,743.4731,,,,,,98,MAS,NOWORD,AGR,150,fopo,,el,,0.4836,,743.4731,743.4731,-0.006481481,0.017592593,0,0,0,,0,183,183,97,1,mono,,,,
,,,,,,5ee95917bdb5522f9ee95e4f,676192165fb32c2e1fb7aee6,67d15f24b1f51f8b251a3b2f,2025-03-12_04h23.58.422,Tarea de decisión léxica,2024.2.5,Win32,119.047619,,,,,,,,,,,,,,,,,,,,,,,743.4737,744.6562,l,1,0.5002,1,744.6563,745.1562,,,,,,22,MAS,NOWORD,AGR,150,blan,,el,,0.5002,,745.157,745.1573,-0.006481481,0.017592593,0,0,0,,0,184,184,21,1,plan,,,,
,,,,,,5ee95917bdb5522f9ee95e4f,676192165fb32c2e1fb7aee6,67d15f24b1f51f8b251a3b2f,2025-03-12_04h23.58.422,Tarea de decisión léxica,2024.2.5,Win32,119.047619,,,,,,,,,,,,,,,,,,,,,,,745.1578,746.2562,a,1,0.4137,1,746.2562,746.7561,,,,,,427,FEM,WORD,DIS,150,oreja,,el,,0.4137,,746.7562,746.7562,-0.006481481,0.017592593,0,0,0,,0,185,185,426,1,oseva,,,,
,,,,,,5ee95917bdb5522f9ee95e4f,676192165fb32c2e1fb7aee6,67d15f24b1f51f8b251a3b2f,2025-03-12_04h23.58.422,Tarea de decisión léxica,2024.2.5,Win32,119.047619,,,,,,,,,,,,,,,,,,,,,,,746.7569,747.9064,a,0,0.4624,0,747.9069,748.406,,,,,,134,FEM,NOWORD,AGR,150,vesa,,la,,0.4624,,748.4061,748.4062,-0.006481481,0.017592593,0,0,0,,0,186,186,133,1,vaca,,,,
,,,,,,5ee95917bdb5522f9ee95e4f,676192165fb32c2e1fb7aee6,67d15f24b1f51f8b251a3b2f,2025-03-12_04h23.58.422,Tarea de decisión léxica,2024.2.5,Win32,119.047619,,,,,,,,,,,,,,,,,,,,,,,748.4067,749.6063,l,1,0.5171,1,749.6068,750.1062,,,,,,260,MAS,NOWORD,DIS,150,jaumo,,la,,0.5171,,750.1062,750.1062,-0.006481481,0.017592593,0,0,0,,0,187,187,259,1,juego,,,,
,,,,,,5ee95917bdb5522f9ee95e4f,676192165fb32c2e1fb7aee6,67d15f24b1f51f8b251a3b2f,2025-03-12_04h23.58.422,Tarea de decisión léxica,2024.2.5,Win32,119.047619,,,,,,,,,,,,,,,,,,,,,,,750.1068,751.2561,l,1,0.4668,1,751.2562,751.7563,,,,,,374,FEM,NOWORD,AGR,150,pogza,,la,,0.4668,,751.7563,751.7565,-0.006481481,0.017592593,0,0,0,,0,188,188,373,1,pizza,,,,
,,,,,,5ee95917bdb5522f9ee95e4f,676192165fb32c2e1fb7aee6,67d15f24b1f51f8b251a3b2f,2025-03-12_04h23.58.422,Tarea de decisión léxica,2024.2.5,Win32,119.047619,,,,,,,,,,,,,,,,,,,,,,,751.757,752.9729,l,1,0.5308,1,752.973,753.4562,,,,,,130,MAS,NOWORD,AGR,150,pima,,el,,0.5308,,753.4569,753.4572,-0.006481481,0.017592593,0,0,0,,0,189,189,129,1,oído,,,,
,,,,,,5ee95917bdb5522f9ee95e4f,676192165fb32c2e1fb7aee6,67d15f24b1f51f8b251a3b2f,2025-03-12_04h23.58.422,Tarea de decisión léxica,2024.2.5,Win32,119.047619,,,,,,,,,,,,,,,,,,,,,,,753.4576,754.7399,a,0,0.5996,0,754.7403,755.2394,,,,,,56,MAS,NOWORD,DIS,150,jado,,la,,0.5996,,755.2395,755.2395,-0.006481481,0.017592593,0,0,0,,0,190,190,55,1,gato,,,,
,,,,,,5ee95917bdb5522f9ee95e4f,676192165fb32c2e1fb7aee6,67d15f24b1f51f8b251a3b2f,2025-03-12_04h23.58.422,Tarea de decisión léxica,2024.2.5,Win32,119.047619,,,,,,,,,,,,,,,,,,,,,,,755.2401,756.4063,a,0,0.4833,0,756.4063,756.906,,,,,,336,FEM,NOWORD,DIS,150,pesta,,el,,0.4833,,756.9061,756.9061,-0.006481481,0.017592593,0,0,0,,0,191,191,335,1,costa,,,,
,,,,,,5ee95917bdb5522f9ee95e4f,676192165fb32c2e1fb7aee6,67d15f24b1f51f8b251a3b2f,2025-03-12_04h23.58.422,Tarea de decisión léxica,2024.2.5,Win32,119.047619,,,,,,,,,,,,,,,,,,,,,,,756.9067,758.2397,l,1,0.6668,1,758.2401,758.7395,,,,,,258,FEM,NOWORD,AGR,150,asama,,la,,0.6668,,758.7396,758.7396,-0.006481481,0.017592593,0,0,0,,0,192,192,257,1,amiga,,,,
,,,,,,5ee95917bdb5522f9ee95e4f,676192165fb32c2e1fb7aee6,67d15f24b1f51f8b251a3b2f,2025-03-12_04h23.58.422,Tarea de decisión léxica,2024.2.5,Win32,119.047619,,,,,,,,,,,,,,,,,,,,,,,758.7402,759.7732,l,1,0.367,1,759.7732,760.2731,,,,,,298,MAS,NOWORD,AGR,150,brubo,,el,,0.367,,760.2732,760.2732,-0.006481481,0.017592593,0,0,0,,0,193,193,297,1,grupo,,,,
,,,,,,5ee95917bdb5522f9ee95e4f,676192165fb32c2e1fb7aee6,67d15f24b1f51f8b251a3b2f,2025-03-12_04h23.58.422,Tarea de decisión léxica,2024.2.5,Win32,119.047619,,,,,,,,,,,,,,,,,,,,,,,760.2738,761.3733,l,1,0.4165,1,761.3733,761.8729,,,,,,246,FEM,NOWORD,AGR,150,pafle,,la,,0.4165,,761.8735,761.874,-0.006481481,0.017592593,0,0,0,,0,194,194,245,1,madre,,,,
,,,,,,5ee95917bdb5522f9ee95e4f,676192165fb32c2e1fb7aee6,67d15f24b1f51f8b251a3b2f,2025-03-12_04h23.58.422,Tarea de decisión léxica,2024.2.5,Win32,119.047619,,,,,,,,,,,,,,,,,,,,,,,761.8744,762.8729,a,1,0.3167,1,762.873,763.3885,,,,,,243,MAS,WORD,AGR,150,amigo,,el,,0.3167,,763.3885,763.3887,-0.006481481,0.017592593,0,0,0,,0,195,195,242,1,asamo,,,,
,,,,,,5ee95917bdb5522f9ee95e4f,676192165fb32c2e1fb7aee6,67d15f24b1f51f8b251a3b2f,2025-03-12_04h23.58.422,Tarea de decisión léxica,2024.2.5,Win32,119.047619,,,,,,,,,,,,,,,,,,,,,,,763.3892,764.6895,l,1,0.6333,1,764.6896,765.1894,,,,,,292,FEM,NOWORD,DIS,150,mesta,,el,,0.6333,,765.1894,765.1894,-0.006481481,0.017592593,0,0,0,,0,196,196,291,1,pista,,,,
,,,,,,5ee95917bdb5522f9ee95e4f,676192165fb32c2e1fb7aee6,67d15f24b1f51f8b251a3b2f,2025-03-12_04h23.58.422,Tarea de decisión léxica,2024.2.5,Win32,119.047619,,,,,,,,,,,,,,,,,,,,,,,765.19,766.3395,a,1,0.4667,1,766.3396,766.8394,,,,,,425,FEM,WORD,AGR,150,viuda,,la,,0.4667,,766.8394,766.8394,-0.006481481,0.017592593,0,0,0,,0,197,197,424,1,virca,,,,
,,,,,,5ee95917bdb5522f9ee95e4f,676192165fb32c2e1fb7aee6,67d15f24b1f51f8b251a3b2f,2025-03-12_04h23.58.422,Tarea de decisión léxica,2024.2.5,Win32,119.047619,,,,,,,,,,,,,,,,,,,,,,,766.84,767.8398,a,1,0.3171,1,767.8399,768.3394,,,,,,229,MAS,WORD,AGR,150,amor,,el,,0.3171,,768.3394,768.3395,-0.006481481,0.017592593,0,0,0,,0,198,198,228,1,ador,,,,
,,,,,,5ee95917bdb5522f9ee95e4f,676192165fb32c2e1fb7aee6,67d15f24b1f51f8b251a3b2f,2025-03-12_04h23.58.422,Tarea de decisión léxica,2024.2.5,Win32,119.047619,,,,,,,,,,,,,,,,,,,,,,,768.3401,769.4746,a,1,0.4518,1,769.4747,769.9743,,,,,,461,FEM,WORD,DIS,150,tabla,,el,,0.4518,,769.975,769.9754,-0.006481481,0.017592593,0,0,0,,0,199,199,460,1,pagra,,,,
,,,,,,5ee95917bdb5522f9ee95e4f,676192165fb32c2e1fb7aee6,67d15f24b1f51f8b251a3b2f,2025-03-12_04h23.58.422,Tarea de decisión léxica,2024.2.5,Win32,119.047619,,,,,,,,,,,,,,,,,,,,,,,769.9759,771.0065,a,1,0.3505,1,771.0066,771.5064,,,,,,341,MAS,WORD,AGR,150,valor,,el,,0.3505,,771.5064,771.5065,-0.006481481,0.017592593,0,0,0,,0,200,200,340,1,daror,,,,
,,,,,,5ee95917bdb5522f9ee95e4f,676192165fb32c2e1fb7aee6,67d15f24b1f51f8b251a3b2f,2025-03-12_04h23.58.422,Tarea de decisión léxica,2024.2.5,Win32,119.047619,,,,,,,,,,,,,,,,,,,,,,,771.5071,772.6415,l,1,0.4519,1,772.6415,773.1394,,,,,,12,MAS,NOWORD,DIS,150,bapo,,la,,0.4519,,773.1395,773.1395,-0.006481481,0.017592593,0,0,0,,0,201,201,11,1,lado,,,,
,,,,,,5ee95917bdb5522f9ee95e4f,676192165fb32c2e1fb7aee6,67d15f24b1f51f8b251a3b2f,2025-03-12_04h23.58.422,Tarea de decisión léxica,2024.2.5,Win32,119.047619,,,,,,,,,,,,,,,,,,,,,,,773.1401,774.3732,l,1,0.5503,1,774.3733,774.8732,,,,,,400,MAS,NOWORD,DIS,150,serro,,la,,0.5503,,774.8734,774.8734,-0.006481481,0.017592593,0,0,0,,0,202,202,399,1,techo,,,,
,,,,,,5ee95917bdb5522f9ee95e4f,676192165fb32c2e1fb7aee6,67d15f24b1f51f8b251a3b2f,2025-03-12_04h23.58.422,Tarea de decisión léxica,2024.2.5,Win32,119.047619,,,,,,,,,,,,,,,,,,,,,,,774.8743,776.2397,a,1,0.6836,1,776.2397,776.7226,,,,,,17,FEM,WORD,AGR,150,mamá,,la,,0.6836,,776.7232,776.7237,-0.006481481,0.017592593,0,0,0,,0,203,203,16,1,paba,,,,
,,,,,,5ee95917bdb5522f9ee95e4f,676192165fb32c2e1fb7aee6,67d15f24b1f51f8b251a3b2f,2025-03-12_04h23.58.422,Tarea de decisión léxica,2024.2.5,Win32,119.047619,,,,,,,,,,,,,,,,,,,,,,,776.724,777.8564,a,1,0.4502,1,777.8564,778.3564,,,,,,215,FEM,WORD,AGR,150,raíz,,la,,0.4502,,778.3565,778.3565,-0.006481481,0.017592593,0,0,0,,0,204,204,214,1,raua,,,,
,,,,,,5ee95917bdb5522f9ee95e4f,676192165fb32c2e1fb7aee6,67d15f24b1f51f8b251a3b2f,2025-03-12_04h23.58.422,Tarea de decisión léxica,2024.2.5,Win32,119.047619,,,,,,,,,,,,,,,,,,,,,,,778.3571,779.6918,a,0,0.6524,0,779.6922,780.1895,,,,,,474,FEM,NOWORD,AGR,150,felia,,la,,0.6524,,780.1895,780.1896,-0.006481481,0.017592593,0,0,0,,0,205,205,473,1,feria,,,,
,,,,,,5ee95917bdb5522f9ee95e4f,676192165fb32c2e1fb7aee6,67d15f24b1f51f8b251a3b2f,2025-03-12_04h23.58.422,Tarea de decisión léxica,2024.2.5,Win32,119.047619,,,,,,,,,,,,,,,,,,,,,,,780.1901,781.3917,l,1,0.5191,1,781.3921,781.8894,,,,,,318,FEM,NOWORD,AGR,150,plaad,,la,,0.5191,,781.8894,781.8894,-0.006481481,0.017592593,0,0,0,,0,206,206,317,1,playa,,,,
,,,,,,5ee95917bdb5522f9ee95e4f,676192165fb32c2e1fb7aee6,67d15f24b1f51f8b251a3b2f,2025-03-12_04h23.58.422,Tarea de decisión léxica,2024.2.5,Win32,119.047619,,,,,,,,,,,,,,,,,,,,,,,781.89,783.1729,a,0,0.6003,0,783.1733,783.6728,,,,,,274,FEM,NOWORD,AGR,150,frosa,,la,,0.6003,,783.6728,783.6729,-0.006481481,0.017592593,0,0,0,,0,207,207,273,1,broma,,,,
,,,,,,5ee95917bdb5522f9ee95e4f,676192165fb32c2e1fb7aee6,67d15f24b1f51f8b251a3b2f,2025-03-12_04h23.58.422,Tarea de decisión léxica,2024.2.5,Win32,119.047619,,,,,,,,,,,,,,,,,,,,,,,783.6735,784.8565,a,0,0.5003,0,784.8565,785.3407,,,,,,34,FEM,NOWORD,AGR,150,loda,,la,,0.5003,0,785.3413,785.3417,-0.006481481,0.017592593,0,0,0,,0,208,208,33,1,boca,,,,
,,,,,,5ee95917bdb5522f9ee95e4f,676192165fb32c2e1fb7aee6,67d15f24b1f51f8b251a3b2f,2025-03-12_04h23.58.422,Tarea de decisión léxica,2024.2.5,Win32,119.047619,,,,,,,,,,,,,,,,,,,,,,,785.3421,786.4563,a,1,0.4336,1,786.4568,786.9561,,,,,,75,MAS,WORD,AGR,150,olor,,el,,0.4336,,786.9561,786.9561,-0.006481481,0.017592593,0,0,0,,0,209,209,74,1,ocer,,,,
,,,,,,5ee95917bdb5522f9ee95e4f,676192165fb32c2e1fb7aee6,67d15f24b1f51f8b251a3b2f,2025-03-12_04h23.58.422,Tarea de decisión léxica,2024.2.5,Win32,119.047619,,,,,,,,,,,,,,,,,,,,,,,786.9567,788.0231,a,1,0.3838,1,788.0231,788.5229,,,,,,1,FEM,WORD,DIS,150,casa,,el,,0.3838,,788.523,788.523,-0.006481481,0.017592593,0,0,0,,0,210,210,0,1,mada,,,,
,,,,,,5ee95917bdb5522f9ee95e4f,676192165fb32c2e1fb7aee6,67d15f24b1f51f8b251a3b2f,2025-03-12_04h23.58.422,Tarea de decisión léxica,2024.2.5,Win32,119.047619,,,,,,,,,,,,,,,,,,,,,,,788.5236,789.6731,a,1,0.4642,1,789.6731,790.1727,,,,,,175,FEM,WORD,DIS,150,goma,,el,,0.4642,,790.1727,790.1727,-0.006481481,0.017592593,0,0,0,,0,211,211,174,1,hosa,,,,
,,,,,,5ee95917bdb5522f9ee95e4f,676192165fb32c2e1fb7aee6,67d15f24b1f51f8b251a3b2f,2025-03-12_04h23.58.422,Tarea de decisión léxica,2024.2.5,Win32,119.047619,,,,,,,,,,,,,,,,,,,,,,,790.1734,791.2396,a,1,0.3835,1,791.2397,791.7228,,,,,,333,FEM,WORD,AGR,150,tarea,,la,,0.3835,,791.7228,791.7229,-0.006481481,0.017592593,0,0,0,,0,212,212,332,1,dalea,,,,
,,,,,,5ee95917bdb5522f9ee95e4f,676192165fb32c2e1fb7aee6,67d15f24b1f51f8b251a3b2f,2025-03-12_04h23.58.422,Tarea de decisión léxica,2024.2.5,Win32,119.047619,,,,,,,,,,,,,,,,,,,,,,,791.7235,792.9397,a,1,0.5316,1,792.9397,793.4393,,,,,,109,MAS,WORD,DIS,150,rayo,,la,,0.5316,,793.4398,793.4404,-0.006481481,0.017592593,0,0,0,,0,213,213,108,1,suno,,,,
,,,,,,5ee95917bdb5522f9ee95e4f,676192165fb32c2e1fb7aee6,67d15f24b1f51f8b251a3b2f,2025-03-12_04h23.58.422,Tarea de decisión léxica,2024.2.5,Win32,119.047619,,,,,,,,,,,,,,,,,,,,,,,793.4407,794.5743,l,1,0.451,1,794.5744,795.0561,,,,,,402,MAS,NOWORD,AGR,150,pirvo,,el,,0.451,,795.0561,795.0561,-0.006481481,0.017592593,0,0,0,,0,214,214,401,1,polvo,,,,
,,,,,,5ee95917bdb5522f9ee95e4f,676192165fb32c2e1fb7aee6,67d15f24b1f51f8b251a3b2f,2025-03-12_04h23.58.422,Tarea de decisión léxica,2024.2.5,Win32,119.047619,,,,,,,,,,,,,,,,,,,,,,,795.0568,796.1569,a,1,0.4342,1,796.1569,796.6565,,,,,,197,MAS,WORD,DIS,150,bate,,la,,0.4342,,796.6565,796.6565,-0.006481481,0.017592593,0,0,0,,0,215,215,196,1,dade,,,,
,,,,,,5ee95917bdb5522f9ee95e4f,676192165fb32c2e1fb7aee6,67d15f24b1f51f8b251a3b2f,2025-03-12_04h23.58.422,Tarea de decisión léxica,2024.2.5,Win32,119.047619,,,,,,,,,,,,,,,,,,,,,,,796.6572,797.8904,l,1,0.5343,1,797.8905,798.39,,,,,,148,FEM,NOWORD,DIS,150,pama,,el,,0.5343,,798.39,798.39,-0.006481481,0.017592593,0,0,0,,0,216,216,147,1,hoja,,,,
,,,,,,5ee95917bdb5522f9ee95e4f,676192165fb32c2e1fb7aee6,67d15f24b1f51f8b251a3b2f,2025-03-12_04h23.58.422,Tarea de decisión léxica,2024.2.5,Win32,119.047619,,,,,,,,,,,,,,,,,,,,,,,798.3908,799.4567,a,0,0.3833,0,799.4572,799.9415,,,,,,442,FEM,NOWORD,AGR,150,telza,,la,,0.3833,,799.9415,799.9415,-0.006481481,0.017592593,0,0,0,,0,217,217,441,1,selva,,,,
,,,,,,5ee95917bdb5522f9ee95e4f,676192165fb32c2e1fb7aee6,67d15f24b1f51f8b251a3b2f,2025-03-12_04h23.58.422,Tarea de decisión léxica,2024.2.5,Win32,119.047619,,,,,,,,,,,,,,,,,,,,,,,799.9421,801.125,a,1,0.4982,1,801.1253,801.623,,,,,,209,MAS,WORD,AGR,150,velo,,el,,0.4982,,801.6236,801.624,-0.006481481,0.017592593,0,0,0,,0,218,218,208,1,dero,,,,
,,,,,,5ee95917bdb5522f9ee95e4f,676192165fb32c2e1fb7aee6,67d15f24b1f51f8b251a3b2f,2025-03-12_04h23.58.422,Tarea de decisión léxica,2024.2.5,Win32,119.047619,,,,,,,,,,,,,,,,,,,,,,,801.6243,802.8063,l,1,0.517,1,802.8064,803.3061,,,,,,444,MAS,NOWORD,DIS,150,taron,,la,,0.517,,803.3062,803.3062,-0.006481481,0.017592593,0,0,0,,0,219,219,443,1,salón,,,,
,,,,,,5ee95917bdb5522f9ee95e4f,676192165fb32c2e1fb7aee6,67d15f24b1f51f8b251a3b2f,2025-03-12_04h23.58.422,Tarea de decisión léxica,2024.2.5,Win32,119.047619,,,,,,,,,,,,,,,,,,,,,,,803.3068,804.5564,a,1,0.565,1,804.5565,805.0561,,,,,,131,FEM,WORD,AGR,150,mina,,la,,0.565,,805.0561,805.0562,-0.006481481,0.017592593,0,0,0,,0,220,220,130,1,fada,,,,
,,,,,,5ee95917bdb5522f9ee95e4f,676192165fb32c2e1fb7aee6,67d15f24b1f51f8b251a3b2f,2025-03-12_04h23.58.422,Tarea de decisión léxica,2024.2.5,Win32,119.047619,,,,,,,,,,,,,,,,,,,,,,,805.0568,806.3064,l,1,0.5669,1,806.3064,806.8063,,,,,,312,MAS,NOWORD,DIS,150,nosor,,la,,0.5669,,806.8063,806.8063,-0.006481481,0.017592593,0,0,0,,0,221,221,311,1,honor,,,,
,,,,,,5ee95917bdb5522f9ee95e4f,676192165fb32c2e1fb7aee6,67d15f24b1f51f8b251a3b2f,2025-03-12_04h23.58.422,Tarea de decisión léxica,2024.2.5,Win32,119.047619,,,,,,,,,,,,,,,,,,,,,,,806.807,808.0564,l,1,0.5671,1,808.0564,808.556,,,,,,44,FEM,NOWORD,DIS,150,meda,,el,,0.5671,,808.556,808.556,-0.006481481,0.017592593,0,0,0,,0,222,222,43,1,pena,,,,
,,,,,,5ee95917bdb5522f9ee95e4f,676192165fb32c2e1fb7aee6,67d15f24b1f51f8b251a3b2f,2025-03-12_04h23.58.422,Tarea de decisión léxica,2024.2.5,Win32,119.047619,,,,,,,,,,,,,,,,,,,,,,,808.5567,809.8063,a,1,0.5665,1,809.8063,810.3061,,,,,,387,FEM,WORD,AGR,150,crema,,la,,0.5665,,810.3067,810.3071,-0.006481481,0.017592593,0,0,0,,0,223,223,386,1,bresa,,,,
,,,,,,5ee95917bdb5522f9ee95e4f,676192165fb32c2e1fb7aee6,67d15f24b1f51f8b251a3b2f,2025-03-12_04h23.58.422,Tarea de decisión léxica,2024.2.5,Win32,119.047619,,,,,,,,,,,,,,,,,,,,,,,810.3076,811.5231,l,1,0.5338,1,811.5232,812.023,,,,,,66,MAS,NOWORD,AGR,150,nios,,el,,0.5338,,812.023,812.0231,-0.006481481,0.017592593,0,0,0,,0,224,224,65,1,dios,,,,
,,,,,,5ee95917bdb5522f9ee95e4f,676192165fb32c2e1fb7aee6,67d15f24b1f51f8b251a3b2f,2025-03-12_04h23.58.422,Tarea de decisión léxica,2024.2.5,Win32,119.047619,,,,,,,,,,,,,,,,,,,,,,,812.0239,813.1898,a,1,0.4839,1,813.1899,813.6893,,,,,,331,MAS,WORD,DIS,150,éxito,,la,,0.4839,,813.6894,813.6894,-0.006481481,0.017592593,0,0,0,,0,225,225,330,1,erato,,,,
,,,,,,5ee95917bdb5522f9ee95e4f,676192165fb32c2e1fb7aee6,67d15f24b1f51f8b251a3b2f,2025-03-12_04h23.58.422,Tarea de decisión léxica,2024.2.5,Win32,119.047619,,,,,,,,,,,,,,,,,,,,,,,813.69,814.8728,l,1,0.5,1,814.8729,815.3727,,,,,,152,MAS,NOWORD,DIS,150,sogo,,la,,0.5,,815.3727,815.3728,-0.006481481,0.017592593,0,0,0,,0,226,226,151,1,tomo,,,,
,,,,,,5ee95917bdb5522f9ee95e4f,676192165fb32c2e1fb7aee6,67d15f24b1f51f8b251a3b2f,2025-03-12_04h23.58.422,Tarea de decisión léxica,2024.2.5,Win32,119.047619,,,,,,,,,,,,,,,,,,,,,,,815.3733,816.5898,a,1,0.534,1,816.5898,817.0895,,,,,,79,FEM,WORD,DIS,150,piel,,el,,0.534,,817.0901,817.0907,-0.006481481,0.017592593,0,0,0,,0,227,227,78,1,ciel,,,,
,,,,,,5ee95917bdb5522f9ee95e4f,676192165fb32c2e1fb7aee6,67d15f24b1f51f8b251a3b2f,2025-03-12_04h23.58.422,Tarea de decisión léxica,2024.2.5,Win32,119.047619,,,,,,,,,,,,,,,,,,,,,,,817.0911,818.2231,a,0,0.4505,0,818.2235,818.7061,,,,,,40,MAS,NOWORD,DIS,150,redo,,la,,0.4505,,818.7061,818.7061,-0.006481481,0.017592593,0,0,0,,0,228,228,39,1,voto,,,,
,,,,,,5ee95917bdb5522f9ee95e4f,676192165fb32c2e1fb7aee6,67d15f24b1f51f8b251a3b2f,2025-03-12_04h23.58.422,Tarea de decisión léxica,2024.2.5,Win32,119.047619,,,,,,,,,,,,,,,,,,,,,,,818.7068,819.8583,a,1,0.4855,1,819.8587,820.3581,,,,,,157,MAS,WORD,DIS,150,nido,,la,,0.4855,,820.3582,820.3582,-0.006481481,0.017592593,0,0,0,,0,229,229,156,1,hico,,,,
,,,,,,5ee95917bdb5522f9ee95e4f,676192165fb32c2e1fb7aee6,67d15f24b1f51f8b251a3b2f,2025-03-12_04h23.58.422,Tarea de decisión léxica,2024.2.5,Win32,119.047619,,,,,,,,,,,,,,,,,,,,,,,820.3587,821.6896,a,0,0.6504,0,821.6901,822.2062,,,,,,302,FEM,NOWORD,AGR,150,ranga,,la,,0.6504,,822.2062,822.2063,-0.006481481,0.017592593,0,0,0,,0,230,230,301,1,banda,,,,
,,,,,,5ee95917bdb5522f9ee95e4f,676192165fb32c2e1fb7aee6,67d15f24b1f51f8b251a3b2f,2025-03-12_04h23.58.422,Tarea de decisión léxica,2024.2.5,Win32,119.047619,,,,,,,,,,,,,,,,,,,,,,,822.2068,823.2729,a,1,0.3999,1,823.2733,823.7731,,,,,,139,MAS,WORD,DIS,150,mago,,la,,0.3999,,823.7731,823.7731,-0.006481481,0.017592593,0,0,0,,0,231,231,138,1,nila,,,,
,,,,,,5ee95917bdb5522f9ee95e4f,676192165fb32c2e1fb7aee6,67d15f24b1f51f8b251a3b2f,2025-03-12_04h23.58.422,Tarea de decisión léxica,2024.2.5,Win32,119.047619,,,,,,,,,,,,,,,,,,,,,,,823.774,825.0565,a,1,0.5997,1,825.0565,825.5563,,,,,,235,FEM,WORD,AGR,150,grúa,,la,,0.5997,,825.5569,825.5572,-0.006481481,0.017592593,0,0,0,,0,232,232,234,1,tria,,,,
,,,,,,5ee95917bdb5522f9ee95e4f,676192165fb32c2e1fb7aee6,67d15f24b1f51f8b251a3b2f,2025-03-12_04h23.58.422,Tarea de decisión léxica,2024.2.5,Win32,119.047619,,,,,,,,,,,,,,,,,,,,,,,825.5576,826.6395,l,1,0.4149,1,826.6397,827.1398,,,,,,62,FEM,NOWORD,AGR,150,efla,,la,,0.4149,,827.1399,827.14,-0.006481481,0.017592593,0,0,0,,0,233,233,61,1,obra,,,,
,,,,,,5ee95917bdb5522f9ee95e4f,676192165fb32c2e1fb7aee6,67d15f24b1f51f8b251a3b2f,2025-03-12_04h23.58.422,Tarea de decisión léxica,2024.2.5,Win32,119.047619,,,,,,,,,,,,,,,,,,,,,,,827.1406,828.2062,l,1,0.3835,1,828.2062,828.6893,,,,,,166,FEM,NOWORD,AGR,150,dera,,la,,0.3835,,828.6893,828.6894,-0.006481481,0.017592593,0,0,0,,0,234,234,165,1,vela,,,,
,,,,,,5ee95917bdb5522f9ee95e4f,676192165fb32c2e1fb7aee6,67d15f24b1f51f8b251a3b2f,2025-03-12_04h23.58.422,Tarea de decisión léxica,2024.2.5,Win32,119.047619,,,,,,,,,,,,,,,,,,,,,,,828.69,829.8231,a,1,0.4474,1,829.8231,830.3229,,,,,,69,FEM,WORD,DIS,150,zona,,el,,0.4474,,830.323,830.323,-0.006481481,0.017592593,0,0,0,,0,235,235,68,1,ñola,,,,
,,,,,,5ee95917bdb5522f9ee95e4f,676192165fb32c2e1fb7aee6,67d15f24b1f51f8b251a3b2f,2025-03-12_04h23.58.422,Tarea de decisión léxica,2024.2.5,Win32,119.047619,,,,,,,,,,,,,,,,,,,,,,,830.3236,831.4753,l,1,0.4983,1,831.4755,831.9729,,,,,,24,FEM,NOWORD,DIS,150,giva,,el,,0.4983,,831.973,831.973,-0.006481481,0.017592593,0,0,0,,0,236,236,23,1,hija,,,,
,,,,,,5ee95917bdb5522f9ee95e4f,676192165fb32c2e1fb7aee6,67d15f24b1f51f8b251a3b2f,2025-03-12_04h23.58.422,Tarea de decisión léxica,2024.2.5,Win32,119.047619,,,,,,,,,,,,,,,,,,,,,,,831.9737,833.09,a,0,0.4339,0,833.0904,833.5896,,,,,,76,MAS,NOWORD,DIS,150,ocer,,la,,0.4339,,833.5903,833.5907,-0.006481481,0.017592593,0,0,0,,0,237,237,75,1,olor,,,,
,,,,,,5ee95917bdb5522f9ee95e4f,676192165fb32c2e1fb7aee6,67d15f24b1f51f8b251a3b2f,2025-03-12_04h23.58.422,Tarea de decisión léxica,2024.2.5,Win32,119.047619,,,,,,,,,,,,,,,,,,,,,,,833.5911,834.8567,l,1,0.5824,1,834.8573,835.3564,,,,,,254,MAS,NOWORD,AGR,150,trido,,el,,0.5824,,835.3564,835.3565,-0.006481481,0.017592593,0,0,0,,0,238,238,253,1,chico,,,,
,,,,,,5ee95917bdb5522f9ee95e4f,676192165fb32c2e1fb7aee6,67d15f24b1f51f8b251a3b2f,2025-03-12_04h23.58.422,Tarea de decisión léxica,2024.2.5,Win32,119.047619,,,,,,,,,,,,,,,,,,,,,,,835.3572,836.5065,a,1,0.4671,1,836.5066,837.0063,,,,,,275,MAS,WORD,AGR,150,punto,,el,,0.4671,,837.0064,837.0064,-0.006481481,0.017592593,0,0,0,,0,239,239,274,1,musto,,,,
,,,,,,5ee95917bdb5522f9ee95e4f,676192165fb32c2e1fb7aee6,67d15f24b1f51f8b251a3b2f,2025-03-12_04h23.58.422,Tarea de decisión léxica,2024.2.5,Win32,119.047619,,,,,,,,,,,,,,,,,,,,,,,837.0072,838.3397,l,1,0.65,1,838.3397,838.8395,,,,,,124,FEM,NOWORD,DIS,150,maba,,el,,0.65,,838.8395,838.8396,-0.006481481,0.017592593,0,0,0,,0,240,240,123,1,flor,,,,
,,,,,,5ee95917bdb5522f9ee95e4f,676192165fb32c2e1fb7aee6,67d15f24b1f51f8b251a3b2f,2025-03-12_04h23.58.422,Tarea de decisión léxica,2024.2.5,Win32,119.047619,,,,,,,,,,,,,,,,,,,,,,,838.8402,839.9565,a,1,0.4337,1,839.9565,840.4561,,,,,,317,FEM,WORD,DIS,150,playa,,el,,0.4337,,840.4562,840.4562,-0.006481481,0.017592593,0,0,0,,0,241,241,316,1,plaad,,,,
,,,,,,5ee95917bdb5522f9ee95e4f,676192165fb32c2e1fb7aee6,67d15f24b1f51f8b251a3b2f,2025-03-12_04h23.58.422,Tarea de decisión léxica,2024.2.5,Win32,119.047619,,,,,,,,,,,,,,,,,,,,,,,840.457,841.7395,a,1,0.6003,1,841.7396,842.2393,,,,,,207,MAS,WORD,DIS,150,kilo,,la,,0.6003,,842.2399,842.2403,-0.006481481,0.017592593,0,0,0,,0,242,242,206,1,kedo,,,,
,,,,,,5ee95917bdb5522f9ee95e4f,676192165fb32c2e1fb7aee6,67d15f24b1f51f8b251a3b2f,2025-03-12_04h23.58.422,Tarea de decisión léxica,2024.2.5,Win32,119.047619,,,,,,,,,,,,,,,,,,,,,,,842.2407,843.3918,l,1,0.4859,1,843.3919,843.8895,,,,,,252,MAS,NOWORD,DIS,150,refor,,la,,0.4859,,843.8896,843.8896,-0.006481481,0.017592593,0,0,0,,0,243,243,251,1,señor,,,,
,,,,,,5ee95917bdb5522f9ee95e4f,676192165fb32c2e1fb7aee6,67d15f24b1f51f8b251a3b2f,2025-03-12_04h23.58.422,Tarea de decisión léxica,2024.2.5,Win32,119.047619,,,,,,,,,,,,,,,,,,,,,,,843.8902,845.0063,a,1,0.4483,1,845.0063,845.5062,,,,,,15,FEM,WORD,DIS,150,idea,,el,,0.4483,,845.5062,845.5063,-0.006481481,0.017592593,0,0,0,,0,244,244,14,1,odea,,,,
,,,,,,5ee95917bdb5522f9ee95e4f,676192165fb32c2e1fb7aee6,67d15f24b1f51f8b251a3b2f,2025-03-12_04h23.58.422,Tarea de decisión léxica,2024.2.5,Win32,119.047619,,,,,,,,,,,,,,,,,,,,,,,845.5069,846.6895,l,1,0.515,1,846.6896,847.1905,,,,,,478,MAS,NOWORD,AGR,150,hocon,,el,,0.515,,847.1906,847.1907,-0.006481481,0.017592593,0,0,0,,0,245,245,477,1,botón,,,,
,,,,,,5ee95917bdb5522f9ee95e4f,676192165fb32c2e1fb7aee6,67d15f24b1f51f8b251a3b2f,2025-03-12_04h23.58.422,Tarea de decisión léxica,2024.2.5,Win32,119.047619,,,,,,,,,,,,,,,,,,,,,,,847.1912,848.3063,a,1,0.4337,1,848.3063,848.806,,,,,,85,MAS,WORD,AGR,150,lago,,el,,0.4337,,848.8061,848.8061,-0.006481481,0.017592593,0,0,0,,0,246,246,84,1,babo,,,,
,,,,,,5ee95917bdb5522f9ee95e4f,676192165fb32c2e1fb7aee6,67d15f24b1f51f8b251a3b2f,2025-03-12_04h23.58.422,Tarea de decisión léxica,2024.2.5,Win32,119.047619,,,,,,,,,,,,,,,,,,,,,,,848.8066,849.9898,a,1,0.5171,1,849.9898,850.4727,,,,,,327,MAS,WORD,DIS,150,fondo,,la,,0.5171,,850.4734,850.4737,-0.006481481,0.017592593,0,0,0,,0,247,247,326,1,lendo,,,,
,,,,,,5ee95917bdb5522f9ee95e4f,676192165fb32c2e1fb7aee6,67d15f24b1f51f8b251a3b2f,2025-03-12_04h23.58.422,Tarea de decisión léxica,2024.2.5,Win32,119.047619,,,,,,,,,,,,,,,,,,,,,,,850.4741,851.723,a,1,0.5664,1,851.7231,852.2217,,,,,,313,MAS,WORD,AGR,150,novio,,el,,0.5664,,852.2218,852.2218,-0.006481481,0.017592593,0,0,0,,0,248,248,312,1,govio,,,,
,,,,,,5ee95917bdb5522f9ee95e4f,676192165fb32c2e1fb7aee6,67d15f24b1f51f8b251a3b2f,2025-03-12_04h23.58.422,Tarea de decisión léxica,2024.2.5,Win32,119.047619,,,,,,,,,,,,,,,,,,,,,,,852.2224,853.6728,a,0,0.7835,0,853.6732,854.1729,,,,,,268,MAS,NOWORD,DIS,150,figro,,la,,0.7835,,854.1729,854.1729,-0.006481481,0.017592593,0,0,0,,0,249,249,267,1,libro,,,,
,,,,,,5ee95917bdb5522f9ee95e4f,676192165fb32c2e1fb7aee6,67d15f24b1f51f8b251a3b2f,2025-03-12_04h23.58.422,Tarea de decisión léxica,2024.2.5,Win32,119.047619,,,,,,,,,,,,,,,,,,,,,,,854.1736,855.4565,l,1,0.6002,1,855.457,855.9562,,,,,,230,MAS,NOWORD,AGR,150,ador,,el,,0.6002,,855.9562,855.9563,-0.006481481,0.017592593,0,0,0,,0,250,250,229,1,amor,,,,
,,,,,,5ee95917bdb5522f9ee95e4f,676192165fb32c2e1fb7aee6,67d15f24b1f51f8b251a3b2f,2025-03-12_04h23.58.422,Tarea de decisión léxica,2024.2.5,Win32,119.047619,,,,,,,,,,,,,,,,,,,,,,,855.9569,857.1898,a,1,0.5669,1,857.1899,857.6895,,,,,,37,MAS,WORD,DIS,150,rato,,la,,0.5669,,857.69,857.6904,-0.006481481,0.017592593,0,0,0,,0,251,251,36,1,gaco,,,,
,,,,,,5ee95917bdb5522f9ee95e4f,676192165fb32c2e1fb7aee6,67d15f24b1f51f8b251a3b2f,2025-03-12_04h23.58.422,Tarea de decisión léxica,2024.2.5,Win32,119.047619,,,,,,,,,,,,,,,,,,,,,,,857.6908,859.0563,l,1,0.6837,1,859.0564,859.5565,,,,,,52,FEM,NOWORD,DIS,150,mava,,el,,0.6837,,859.5566,859.5566,-0.006481481,0.017592593,0,0,0,,0,252,252,51,1,caja,,,,
,,,,,,5ee95917bdb5522f9ee95e4f,676192165fb32c2e1fb7aee6,67d15f24b1f51f8b251a3b2f,2025-03-12_04h23.58.422,Tarea de decisión léxica,2024.2.5,Win32,119.047619,,,,,,,,,,,,,,,,,,,,,,,859.5572,860.6894,l,1,0.45,1,860.6894,861.1727,,,,,,210,MAS,NOWORD,AGR,150,dero,,el,,0.45,,861.1728,861.1729,-0.006481481,0.017592593,0,0,0,,0,253,253,209,1,velo,,,,
,,,,,,5ee95917bdb5522f9ee95e4f,676192165fb32c2e1fb7aee6,67d15f24b1f51f8b251a3b2f,2025-03-12_04h23.58.422,Tarea de decisión léxica,2024.2.5,Win32,119.047619,,,,,,,,,,,,,,,,,,,,,,,861.1734,862.4063,a,1,0.567,1,862.4063,862.9059,,,,,,463,FEM,WORD,AGR,150,cabra,,la,,0.567,,862.906,862.906,-0.006481481,0.017592593,0,0,0,,0,254,254,462,1,matla,,,,
,,,,,,5ee95917bdb5522f9ee95e4f,676192165fb32c2e1fb7aee6,67d15f24b1f51f8b251a3b2f,2025-03-12_04h23.58.422,Tarea de decisión léxica,2024.2.5,Win32,119.047619,,,,,,,,,,,,,,,,,,,,,,,862.9066,864.0243,a,1,0.4351,1,864.0245,864.524,,,,,,9,MAS,WORD,AGR,150,tipo,,el,,0.4351,,864.5241,864.5241,-0.006481481,0.017592593,0,0,0,,0,255,255,8,1,sibo,,,,
,,,,,,5ee95917bdb5522f9ee95e4f,676192165fb32c2e1fb7aee6,67d15f24b1f51f8b251a3b2f,2025-03-12_04h23.58.422,Tarea de decisión léxica,2024.2.5,Win32,119.047619,,,,,,,,,,,,,,,,,,,,,,,864.5248,865.673,l,1,0.4671,1,865.673,866.1727,,,,,,176,FEM,NOWORD,DIS,150,hosa,,el,,0.4671,,866.1733,866.1737,-0.006481481,0.017592593,0,0,0,,0,256,256,175,1,goma,,,,
,,,,,,5ee95917bdb5522f9ee95e4f,676192165fb32c2e1fb7aee6,67d15f24b1f51f8b251a3b2f,2025-03-12_04h23.58.422,Tarea de decisión léxica,2024.2.5,Win32,119.047619,,,,,,,,,,,,,,,,,,,,,,,866.1741,867.3729,a,1,0.5335,1,867.3729,867.8727,,,,,,335,FEM,WORD,DIS,150,costa,,el,,0.5335,,867.8727,867.8728,-0.006481481,0.017592593,0,0,0,,0,257,257,334,1,pesta,,,,
,,,,,,5ee95917bdb5522f9ee95e4f,676192165fb32c2e1fb7aee6,67d15f24b1f51f8b251a3b2f,2025-03-12_04h23.58.422,Tarea de decisión léxica,2024.2.5,Win32,119.047619,,,,,,,,,,,,,,,,,,,,,,,867.8734,868.9398,a,1,0.4005,1,868.9398,869.4395,,,,,,413,FEM,WORD,DIS,150,rueda,,el,,0.4005,,869.4395,869.4396,-0.006481481,0.017592593,0,0,0,,0,258,258,412,1,bieda,,,,
,,,,,,5ee95917bdb5522f9ee95e4f,676192165fb32c2e1fb7aee6,67d15f24b1f51f8b251a3b2f,2025-03-12_04h23.58.422,Tarea de decisión léxica,2024.2.5,Win32,119.047619,,,,,,,,,,,,,,,,,,,,,,,869.4402,870.6233,l,1,0.5007,1,870.6233,871.1227,,,,,,316,FEM,NOWORD,DIS,150,riosa,,el,,0.5007,,871.1227,871.1228,-0.006481481,0.017592593,0,0,0,,0,259,259,315,1,reina,,,,
,,,,,,5ee95917bdb5522f9ee95e4f,676192165fb32c2e1fb7aee6,67d15f24b1f51f8b251a3b2f,2025-03-12_04h23.58.422,Tarea de decisión léxica,2024.2.5,Win32,119.047619,,,,,,,,,,,,,,,,,,,,,,,871.1234,872.2231,a,1,0.4173,1,872.2232,872.7227,,,,,,323,FEM,WORD,AGR,150,cinta,,la,,0.4173,,872.7227,872.7227,-0.006481481,0.017592593,0,0,0,,0,260,260,322,1,certa,,,,
,,,,,,5ee95917bdb5522f9ee95e4f,676192165fb32c2e1fb7aee6,67d15f24b1f51f8b251a3b2f,2025-03-12_04h23.58.422,Tarea de decisión léxica,2024.2.5,Win32,119.047619,,,,,,,,,,,,,,,,,,,,,,,872.7234,873.8898,l,1,0.4837,1,873.8898,874.3894,,,,,,162,MAS,NOWORD,AGR,150,bopo,,el,,0.4837,,874.39,874.3904,-0.006481481,0.017592593,0,0,0,,0,261,261,161,1,coro,,,,
,,,,,,5ee95917bdb5522f9ee95e4f,676192165fb32c2e1fb7aee6,67d15f24b1f51f8b251a3b2f,2025-03-12_04h23.58.422,Tarea de decisión léxica,2024.2.5,Win32,119.047619,,,,,,,,,,,,,,,,,,,,,,,874.3909,875.5562,l,1,0.4996,1,875.5563,876.0561,,,,,,226,MAS,NOWORD,AGR,150,boco,,el,,0.4996,,876.0561,876.0561,-0.006481481,0.017592593,0,0,0,,0,262,262,225,1,lodo,,,,
,,,,,,5ee95917bdb5522f9ee95e4f,676192165fb32c2e1fb7aee6,67d15f24b1f51f8b251a3b2f,2025-03-12_04h23.58.422,Tarea de decisión léxica,2024.2.5,Win32,119.047619,,,,,,,,,,,,,,,,,,,,,,,876.0568,877.1731,l,1,0.4332,1,877.1731,877.6725,,,,,,220,FEM,NOWORD,DIS,150,miva,,el,,0.4332,,877.6725,877.6726,-0.006481481,0.017592593,0,0,0,,0,263,263,219,1,pipa,,,,
,,,,,,5ee95917bdb5522f9ee95e4f,676192165fb32c2e1fb7aee6,67d15f24b1f51f8b251a3b2f,2025-03-12_04h23.58.422,Tarea de decisión léxica,2024.2.5,Win32,119.047619,,,,,,,,,,,,,,,,,,,,,,,877.6732,878.8229,a,1,0.4837,1,878.823,879.3228,,,,,,391,MAS,WORD,AGR,150,dueño,,el,,0.4837,,879.3228,879.3229,-0.006481481,0.017592593,0,0,0,,0,264,264,390,1,dievo,,,,
