counterbalancing_condition,consent_prescreening.block_1/declare_consent,consent_prescreening.block_1/age_years,consent_prescreening.block_1/gender,consent_prescreening.block_1/language_disorder,consent_prescreening.block_1/first_language,PROLIFIC_PID,STUDY_ID,SESSION_ID,date,expName,psychopyVersion,OS,frameRate,check_prescreening_answers.started,check_prescreening_answers.stopped,Instructions.started,Instructions.stopped,instr_done_keyboard.keys,instr_done_keyboard.rt,instr_done_keyboard.duration,instr_done_touch.x,instr_done_touch.y,instr_done_touch.leftButton,instr_done_touch.midButton,instr_done_touch.rightButton,instruction_pages.thisRepN,instruction_pages.thisTrialN,instruction_pages.thisN,instruction_pages.thisIndex,instruction_pages.ran,pageN,phase,instruct_text,has_image,instruct_image,instr_done_touch.clicked_name,presentTrial.started,presentTrial.stopped,response.keys,response.corr,response.rt,response.duration,rt,corr,feedback.started,feedback.stopped,practice_trials.thisRepN,practice_trials.thisTrialN,practice_trials.thisN,practice_trials.thisIndex,practice_trials.ran,TrialID,Gender,StimulusType,Condition,PrimeDuration,Prime,len,Flanker,corrAns,Break.started,Break.stopped,break_done_touch.x,break_done_touch.y,break_done_touch.leftButton,break_done_touch.midButton,break_done_touch.rightButton,break_done_keyboard.keys,experiment_trials.thisRepN,experiment_trials.thisTrialN,experiment_trials.thisN,experiment_trials.thisIndex,experiment_trials.ran,PairedWith,break_done_keyboard.rt,break_done_keyboard.duration,End.started,End.stopped
2,"[""over_18"",""comfortable"",""read_info"",""consent_given""]",31,F,"[""none""]","[""spanish""]",5f3b3d16d2664625fcfa73aa,676192165fb32c2e1fb7aee6,67d1f4222cd749549bd47199,2025-03-12_22h20.03.544,Tarea de decisión léxica,2024.2.5,Win32,60.24096386,,,,,,,,,,,,,,,,,,,,,,,,,,,,,,,,,,,,,,,,,,,,,,,,,,,,,,,,,,,,,,,,,
,,,,,,5f3b3d16d2664625fcfa73aa,676192165fb32c2e1fb7aee6,67d1f4222cd749549bd47199,2025-03-12_22h20.03.544,Tarea de decisión léxica,2024.2.5,Win32,60.24096386,22.6144,22.6147,,,,,,,,,,,,,,,,,,,,,,,,,,,,,,,,,,,,,,,,,,,,,,,,,,,,,,,,,,,,,,,
,,,,,,5f3b3d16d2664625fcfa73aa,676192165fb32c2e1fb7aee6,67d1f4222cd749549bd47199,2025-03-12_22h20.03.544,Tarea de decisión léxica,2024.2.5,Win32,60.24096386,,,22.6526,27.2775,space,4.5899,,-0.312037056,-0.314814721,0,0,0,0,0,0,0,1,1,instructions,"INSTRUCCIONES
Va a realizar una prueba de decisión léxica. Desde el comienzo de la prueba mire siempre al centro de la pantalla. Se presentará una serie de cadenas de letras, una a la vez, en la pantalla. Su tarea consiste en determinar si cada cadena de letras constituye una palabra real en español o una no-palabra (una secuencia de letras que no constituye una palabra real). 

Pulse la tecla ESPACIO para continuar.",0,keyboardresponseWN.png,,,,,,,,,,,,,,,,,,,,,,,,,,,,,,,,,,,,,,,,,,,
,,,,,,5f3b3d16d2664625fcfa73aa,676192165fb32c2e1fb7aee6,67d1f4222cd749549bd47199,2025-03-12_22h20.03.544,Tarea de decisión léxica,2024.2.5,Win32,60.24096386,,,27.2807,29.3938,,,,-0.036111149,-0.419444426,1,0,0,0,1,1,1,1,2,instructions,"El procedimiento es el siguiente: Aparecerán dos barras verticales posicionadas en el centro de la pantalla, separadas por un pequeño espacio.Por favor, enfoque su atención en el espacio entre las barras. Esto preparará sus ojos para la siguiente cadena de letras, que aparecerá entre las dos barras durante un instante.

Pulse la tecla ESPACIO para continuar.",0,keyboardresponseWN.png,instr_done_button,,,,,,,,,,,,,,,,,,,,,,,,,,,,,,,,,,,,,,,,,,
,,,,,,5f3b3d16d2664625fcfa73aa,676192165fb32c2e1fb7aee6,67d1f4222cd749549bd47199,2025-03-12_22h20.03.544,Tarea de decisión léxica,2024.2.5,Win32,60.24096386,,,29.3963,31.0604,space,1.5713,,-0.036111149,-0.419444426,0,0,0,0,2,2,2,1,3,instructions,"En el teclado de su dispositivo, pulse la tecla ""A"" si la cadena de letras es una palabra real en español (por ejemplo: ""mano"") y la tecla ""L"" si la cadena de letras es una no-palabra (por ejemplo: ""minu"").
Pulse la tecla ESPACIO para continuar.",1,keyboardresponseWN.png,,,,,,,,,,,,,,,,,,,,,,,,,,,,,,,,,,,,,,,,,,,
,,,,,,5f3b3d16d2664625fcfa73aa,676192165fb32c2e1fb7aee6,67d1f4222cd749549bd47199,2025-03-12_22h20.03.544,Tarea de decisión léxica,2024.2.5,Win32,60.24096386,,,31.0641,31.6602,space,0.5728,,-0.036111149,-0.419444426,0,0,0,0,3,3,3,1,4,instructions,"Es muy importante que responda con la mayor rapidez y precisión posibles. Si no responde dentro de 2 segundos, aparecerá el mensaje ""Muy lento"" y el experimento pasará a la siguiente palabra. Inmediatamente después de su respuesta se indicará si fue correcta o no. Los primeros 15 intentos serán de práctica y habrá dos descansos durante la prueba.

Pulse la tecla ESPACIO  para iniciar la parte de práctica.",0,keyboardresponseWN.png,,,,,,,,,,,,,,,,,,,,,,,,,,,,,,,,,,,,,,,,,,,
,,,,,,5f3b3d16d2664625fcfa73aa,676192165fb32c2e1fb7aee6,67d1f4222cd749549bd47199,2025-03-12_22h20.03.544,Tarea de decisión léxica,2024.2.5,Win32,60.24096386,,,,,,,,,,,,,,,,,,,,,,,,31.7154,32.844,l,0,0.4513,,0.4513,0,32.8446,33.3434,0,0,0,6,1,1007,MAS,WORD,DIS,150,masa,4,la,l,,,,,,,,,,,,,,,,,,
,,,,,,5f3b3d16d2664625fcfa73aa,676192165fb32c2e1fb7aee6,67d1f4222cd749549bd47199,2025-03-12_22h20.03.544,Tarea de decisión léxica,2024.2.5,Win32,60.24096386,,,,,,,,,,,,,,,,,,,,,,,,33.3449,34.4435,a,0,0.4194,,0.4194,0,34.4437,34.9433,0,1,1,1,1,1002,FEM,NOWORD,DIS,150,mabo,4,el,a,,,,,,,,,,,,,,,,,,
,,,,,,5f3b3d16d2664625fcfa73aa,676192165fb32c2e1fb7aee6,67d1f4222cd749549bd47199,2025-03-12_22h20.03.544,Tarea de decisión léxica,2024.2.5,Win32,60.24096386,,,,,,,,,,,,,,,,,,,,,,,,34.9445,37.5935,,0,,,0.4194,-1,37.5945,38.0934,0,2,2,4,1,1005,MAS,NOWORD,DIS,150,nobad,5,la,a,,,,,,,,,,,,,,,,,,
,,,,,,5f3b3d16d2664625fcfa73aa,676192165fb32c2e1fb7aee6,67d1f4222cd749549bd47199,2025-03-12_22h20.03.544,Tarea de decisión léxica,2024.2.5,Win32,60.24096386,,,,,,,,,,,,,,,,,,,,,,,,38.0955,39.7103,l,1,0.9357,,0.9357,1,39.7119,40.21,0,3,3,0,1,1001,FEM,NOWORD,AGR,150,croz,4,la,a,,,,,,,,,,,,,,,,,,
,,,,,,5f3b3d16d2664625fcfa73aa,676192165fb32c2e1fb7aee6,67d1f4222cd749549bd47199,2025-03-12_22h20.03.544,Tarea de decisión léxica,2024.2.5,Win32,60.24096386,,,,,,,,,,,,,,,,,,,,,,,,40.212,41.2772,a,1,0.396,,0.396,1,41.2773,41.7771,0,4,4,8,1,1009,FEM,WORD,AGR,150,viejo,5,la,l,,,,,,,,,,,,,,,,,,
,,,,,,5f3b3d16d2664625fcfa73aa,676192165fb32c2e1fb7aee6,67d1f4222cd749549bd47199,2025-03-12_22h20.03.544,Tarea de decisión léxica,2024.2.5,Win32,60.24096386,,,,,,,,,,,,,,,,,,,,,,,,41.779,43.2435,l,1,0.7879,,0.7879,1,43.2436,43.7432,0,5,5,2,1,1003,FEM,NOWORD,DIS,150,muvor,5,el,a,,,,,,,,,,,,,,,,,,
,,,,,,5f3b3d16d2664625fcfa73aa,676192165fb32c2e1fb7aee6,67d1f4222cd749549bd47199,2025-03-12_22h20.03.544,Tarea de decisión léxica,2024.2.5,Win32,60.24096386,,,,,,,,,,,,,,,,,,,,,,,,43.7445,44.81,l,1,0.386,,0.386,1,44.8102,45.31,0,6,6,3,1,1004,FEM,NOWORD,AGR,150,bireo,5,la,a,,,,,,,,,,,,,,,,,,
,,,,,,5f3b3d16d2664625fcfa73aa,676192165fb32c2e1fb7aee6,67d1f4222cd749549bd47199,2025-03-12_22h20.03.544,Tarea de decisión léxica,2024.2.5,Win32,60.24096386,,,,,,,,,,,,,,,,,,,,,,,,45.3117,46.5932,a,1,0.6042,,0.6042,1,46.5933,47.0933,0,7,7,9,1,1010,MAS,WORD,DIS,150,video,5,la,l,,,,,,,,,,,,,,,,,,
,,,,,,5f3b3d16d2664625fcfa73aa,676192165fb32c2e1fb7aee6,67d1f4222cd749549bd47199,2025-03-12_22h20.03.544,Tarea de decisión léxica,2024.2.5,Win32,60.24096386,,,,,,,,,,,,,,,,,,,,,,,,47.0947,48.0767,a,1,0.3095,,0.3095,1,48.0768,48.5767,0,8,8,7,1,1008,MAS,WORD,DIS,150,frío,4,la,l,,,,,,,,,,,,,,,,,,
,,,,,,5f3b3d16d2664625fcfa73aa,676192165fb32c2e1fb7aee6,67d1f4222cd749549bd47199,2025-03-12_22h20.03.544,Tarea de decisión léxica,2024.2.5,Win32,60.24096386,,,,,,,,,,,,,,,,,,,,,,,,48.5783,49.5599,a,1,0.3098,,0.3098,1,49.56,50.0599,0,9,9,5,1,1006,FEM,WORD,AGR,150,cara,4,la,l,,,,,,,,,,,,,,,,,,
,,,,,,5f3b3d16d2664625fcfa73aa,676192165fb32c2e1fb7aee6,67d1f4222cd749549bd47199,2025-03-12_22h20.03.544,Tarea de decisión léxica,2024.2.5,Win32,60.24096386,,,51.3133,52.1935,space,0.8664,,-0.036111149,-0.419444426,0,0,0,,,,,,,,,,,,52.2778,53.2767,a,1,0.3196,,0.3196,1,53.2768,53.7765,,,,,,191,FEM,WORD,AGR,150,pila,,la,,53.777,53.7798,-0.036111149,-0.419444426,0,0,0,,0,0,0,190,1,bila,,,,
,,,,,,5f3b3d16d2664625fcfa73aa,676192165fb32c2e1fb7aee6,67d1f4222cd749549bd47199,2025-03-12_22h20.03.544,Tarea de decisión léxica,2024.2.5,Win32,60.24096386,,,,,,,,,,,,,,,,,,,,,,,,53.7822,54.6935,a,1,0.2358,,0.2358,1,54.6936,55.1933,,,,,,341,MAS,WORD,DIS,150,valor,,la,,55.1935,55.1936,-0.036111149,-0.419444426,0,0,0,,0,1,1,340,1,daror,,,,
,,,,,,5f3b3d16d2664625fcfa73aa,676192165fb32c2e1fb7aee6,67d1f4222cd749549bd47199,2025-03-12_22h20.03.544,Tarea de decisión léxica,2024.2.5,Win32,60.24096386,,,,,,,,,,,,,,,,,,,,,,,,55.1953,56.0934,a,1,0.2218,,0.2218,1,56.0935,56.5931,,,,,,301,FEM,WORD,DIS,150,banda,,el,,56.5948,56.5957,-0.036111149,-0.419444426,0,0,0,,0,2,2,300,1,ranga,,,,
,,,,,,5f3b3d16d2664625fcfa73aa,676192165fb32c2e1fb7aee6,67d1f4222cd749549bd47199,2025-03-12_22h20.03.544,Tarea de decisión léxica,2024.2.5,Win32,60.24096386,,,,,,,,,,,,,,,,,,,,,,,,56.5968,57.6433,l,1,0.3665,,0.3665,1,57.6434,58.1433,,,,,,168,FEM,NOWORD,AGR,150,zifa,,la,,58.1434,58.1437,-0.036111149,-0.419444426,0,0,0,,0,3,3,167,1,jefa,,,,
,,,,,,5f3b3d16d2664625fcfa73aa,676192165fb32c2e1fb7aee6,67d1f4222cd749549bd47199,2025-03-12_22h20.03.544,Tarea de decisión léxica,2024.2.5,Win32,60.24096386,,,,,,,,,,,,,,,,,,,,,,,,58.1455,59.16,l,1,0.3343,,0.3343,1,59.1602,59.6601,,,,,,352,MAS,NOWORD,AGR,150,duepo,,el,,59.6601,59.6603,-0.036111149,-0.419444426,0,0,0,,0,4,4,351,1,vuelo,,,,
,,,,,,5f3b3d16d2664625fcfa73aa,676192165fb32c2e1fb7aee6,67d1f4222cd749549bd47199,2025-03-12_22h20.03.544,Tarea de decisión léxica,2024.2.5,Win32,60.24096386,,,,,,,,,,,,,,,,,,,,,,,,59.6618,60.7267,l,1,0.3923,,0.3923,1,60.7269,61.2266,,,,,,460,MAS,NOWORD,AGR,150,fraco,,el,,61.2268,61.227,-0.036111149,-0.419444426,0,0,0,,0,5,5,459,1,grado,,,,
,,,,,,5f3b3d16d2664625fcfa73aa,676192165fb32c2e1fb7aee6,67d1f4222cd749549bd47199,2025-03-12_22h20.03.544,Tarea de decisión léxica,2024.2.5,Win32,60.24096386,,,,,,,,,,,,,,,,,,,,,,,,61.2288,62.5433,a,1,0.6356,,0.6356,1,62.5433,63.0434,,,,,,231,FEM,WORD,AGR,150,bota,,la,,63.0435,63.0437,-0.036111149,-0.419444426,0,0,0,,0,6,6,230,1,heta,,,,
,,,,,,5f3b3d16d2664625fcfa73aa,676192165fb32c2e1fb7aee6,67d1f4222cd749549bd47199,2025-03-12_22h20.03.544,Tarea de decisión léxica,2024.2.5,Win32,60.24096386,,,,,,,,,,,,,,,,,,,,,,,,63.0451,64.1265,a,1,0.4012,,0.4012,1,64.1267,64.6265,,,,,,57,MAS,WORD,DIS,150,dedo,,la,,64.6281,64.629,-0.036111149,-0.419444426,0,0,0,,0,7,7,56,1,heco,,,,
,,,,,,5f3b3d16d2664625fcfa73aa,676192165fb32c2e1fb7aee6,67d1f4222cd749549bd47199,2025-03-12_22h20.03.544,Tarea de decisión léxica,2024.2.5,Win32,60.24096386,,,,,,,,,,,,,,,,,,,,,,,,64.6302,65.6098,a,1,0.3016,,0.3016,1,65.61,66.1099,,,,,,385,FEM,WORD,DIS,150,letra,,el,,66.1099,66.11,-0.036111149,-0.419444426,0,0,0,,0,8,8,384,1,febra,,,,
,,,,,,5f3b3d16d2664625fcfa73aa,676192165fb32c2e1fb7aee6,67d1f4222cd749549bd47199,2025-03-12_22h20.03.544,Tarea de decisión léxica,2024.2.5,Win32,60.24096386,,,,,,,,,,,,,,,,,,,,,,,,66.1115,67.2432,a,1,0.4608,,0.4608,1,67.2433,67.7432,,,,,,61,FEM,WORD,DIS,150,obra,,el,,67.7433,67.7435,-0.036111149,-0.419444426,0,0,0,,0,9,9,60,1,efla,,,,
,,,,,,5f3b3d16d2664625fcfa73aa,676192165fb32c2e1fb7aee6,67d1f4222cd749549bd47199,2025-03-12_22h20.03.544,Tarea de decisión léxica,2024.2.5,Win32,60.24096386,,,,,,,,,,,,,,,,,,,,,,,,67.7448,68.7766,a,1,0.3581,,0.3581,1,68.7767,69.2766,,,,,,229,MAS,WORD,DIS,150,amor,,la,,69.2767,69.2768,-0.036111149,-0.419444426,0,0,0,,0,10,10,228,1,ador,,,,
,,,,,,5f3b3d16d2664625fcfa73aa,676192165fb32c2e1fb7aee6,67d1f4222cd749549bd47199,2025-03-12_22h20.03.544,Tarea de decisión léxica,2024.2.5,Win32,60.24096386,,,,,,,,,,,,,,,,,,,,,,,,69.2783,70.3765,l,1,0.4175,,0.4175,1,70.3766,70.8766,,,,,,452,FEM,NOWORD,AGR,150,clita,,la,,70.8783,70.8791,-0.036111149,-0.419444426,0,0,0,,0,11,11,451,1,fruta,,,,
,,,,,,5f3b3d16d2664625fcfa73aa,676192165fb32c2e1fb7aee6,67d1f4222cd749549bd47199,2025-03-12_22h20.03.544,Tarea de decisión léxica,2024.2.5,Win32,60.24096386,,,,,,,,,,,,,,,,,,,,,,,,70.8802,71.9099,a,0,0.3502,,0.3502,0,71.911,72.4101,,,,,,154,MAS,NOWORD,DIS,150,tado,,la,,72.4101,72.4102,-0.036111149,-0.419444426,0,0,0,,0,12,12,153,1,pato,,,,
,,,,,,5f3b3d16d2664625fcfa73aa,676192165fb32c2e1fb7aee6,67d1f4222cd749549bd47199,2025-03-12_22h20.03.544,Tarea de decisión léxica,2024.2.5,Win32,60.24096386,,,,,,,,,,,,,,,,,,,,,,,,72.4118,73.76,l,1,0.6787,,0.6787,1,73.7614,74.26,,,,,,480,MAS,NOWORD,AGR,150,rimpo,,el,,74.2601,74.2602,-0.036111149,-0.419444426,0,0,0,,0,13,13,479,1,rumbo,,,,
,,,,,,5f3b3d16d2664625fcfa73aa,676192165fb32c2e1fb7aee6,67d1f4222cd749549bd47199,2025-03-12_22h20.03.544,Tarea de decisión léxica,2024.2.5,Win32,60.24096386,,,,,,,,,,,,,,,,,,,,,,,,74.2619,75.4936,l,1,0.555,,0.555,1,75.4936,75.9932,,,,,,254,MAS,NOWORD,DIS,150,trido,,la,,75.9932,75.9933,-0.036111149,-0.419444426,0,0,0,,0,14,14,253,1,chico,,,,
,,,,,,5f3b3d16d2664625fcfa73aa,676192165fb32c2e1fb7aee6,67d1f4222cd749549bd47199,2025-03-12_22h20.03.544,Tarea de decisión léxica,2024.2.5,Win32,60.24096386,,,,,,,,,,,,,,,,,,,,,,,,75.9947,77.2932,a,1,0.6178,,0.6178,1,77.2933,77.7932,,,,,,11,MAS,WORD,AGR,150,lado,,el,,77.7933,77.7933,-0.036111149,-0.419444426,0,0,0,,0,15,15,10,1,bapo,,,,
,,,,,,5f3b3d16d2664625fcfa73aa,676192165fb32c2e1fb7aee6,67d1f4222cd749549bd47199,2025-03-12_22h20.03.544,Tarea de decisión léxica,2024.2.5,Win32,60.24096386,,,,,,,,,,,,,,,,,,,,,,,,77.7946,79.1099,l,1,0.6433,,0.6433,1,79.1099,79.6101,,,,,,204,FEM,NOWORD,AGR,150,beja,,la,,79.6116,79.6125,-0.036111149,-0.419444426,0,0,0,,0,16,16,203,1,leña,,,,
,,,,,,5f3b3d16d2664625fcfa73aa,676192165fb32c2e1fb7aee6,67d1f4222cd749549bd47199,2025-03-12_22h20.03.544,Tarea de decisión léxica,2024.2.5,Win32,60.24096386,,,,,,,,,,,,,,,,,,,,,,,,79.6136,80.6934,a,1,0.4042,,0.4042,1,80.6935,81.1932,,,,,,259,MAS,WORD,AGR,150,juego,,el,,81.1932,81.1934,-0.036111149,-0.419444426,0,0,0,,0,17,17,258,1,jaumo,,,,
,,,,,,5f3b3d16d2664625fcfa73aa,676192165fb32c2e1fb7aee6,67d1f4222cd749549bd47199,2025-03-12_22h20.03.544,Tarea de decisión léxica,2024.2.5,Win32,60.24096386,,,,,,,,,,,,,,,,,,,,,,,,81.195,82.3598,a,1,0.485,,0.485,1,82.36,82.86,,,,,,389,MAS,WORD,DIS,150,cerdo,,la,,82.8601,82.8603,-0.036111149,-0.419444426,0,0,0,,0,18,18,388,1,cenco,,,,
,,,,,,5f3b3d16d2664625fcfa73aa,676192165fb32c2e1fb7aee6,67d1f4222cd749549bd47199,2025-03-12_22h20.03.544,Tarea de decisión léxica,2024.2.5,Win32,60.24096386,,,,,,,,,,,,,,,,,,,,,,,,82.8617,83.9265,a,1,0.3915,,0.3915,1,83.9267,84.4267,,,,,,381,MAS,WORD,DIS,150,humor,,la,,84.4268,84.4269,-0.036111149,-0.419444426,0,0,0,,0,19,19,380,1,nusor,,,,
,,,,,,5f3b3d16d2664625fcfa73aa,676192165fb32c2e1fb7aee6,67d1f4222cd749549bd47199,2025-03-12_22h20.03.544,Tarea de decisión léxica,2024.2.5,Win32,60.24096386,,,,,,,,,,,,,,,,,,,,,,,,84.4288,85.4099,a,1,0.3014,,0.3014,1,85.41,85.91,,,,,,81,FEM,WORD,DIS,150,dama,,el,,85.9101,85.9102,-0.036111149,-0.419444426,0,0,0,,0,20,20,80,1,vasa,,,,
,,,,,,5f3b3d16d2664625fcfa73aa,676192165fb32c2e1fb7aee6,67d1f4222cd749549bd47199,2025-03-12_22h20.03.544,Tarea de decisión léxica,2024.2.5,Win32,60.24096386,,,,,,,,,,,,,,,,,,,,,,,,85.9117,86.9767,l,1,0.3879,,0.3879,1,86.9769,87.4765,,,,,,58,MAS,NOWORD,DIS,150,heco,,la,,87.4784,87.4795,-0.036111149,-0.419444426,0,0,0,,0,21,21,57,1,dedo,,,,
,,,,,,5f3b3d16d2664625fcfa73aa,676192165fb32c2e1fb7aee6,67d1f4222cd749549bd47199,2025-03-12_22h20.03.544,Tarea de decisión léxica,2024.2.5,Win32,60.24096386,,,,,,,,,,,,,,,,,,,,,,,,87.4808,88.5765,l,1,0.4252,,0.4252,1,88.5767,89.0765,,,,,,390,MAS,NOWORD,DIS,150,cenco,,la,,89.0766,89.0767,-0.036111149,-0.419444426,0,0,0,,0,22,22,389,1,cerdo,,,,
,,,,,,5f3b3d16d2664625fcfa73aa,676192165fb32c2e1fb7aee6,67d1f4222cd749549bd47199,2025-03-12_22h20.03.544,Tarea de decisión léxica,2024.2.5,Win32,60.24096386,,,,,,,,,,,,,,,,,,,,,,,,89.0783,90.2931,a,1,0.543,,0.543,1,90.2932,90.7931,,,,,,95,FEM,WORD,AGR,151,moda,,la,,90.7932,90.7934,-0.036111149,-0.419444426,0,0,0,,0,23,23,94,1,neda,,,,
,,,,,,5f3b3d16d2664625fcfa73aa,676192165fb32c2e1fb7aee6,67d1f4222cd749549bd47199,2025-03-12_22h20.03.544,Tarea de decisión léxica,2024.2.5,Win32,60.24096386,,,,,,,,,,,,,,,,,,,,,,,,90.7947,91.8598,l,1,0.3889,,0.3889,1,91.8599,92.3598,,,,,,122,MAS,NOWORD,DIS,150,bomo,,la,,92.3599,92.3599,-0.036111149,-0.419444426,0,0,0,,0,24,24,121,1,hoyo,,,,
,,,,,,5f3b3d16d2664625fcfa73aa,676192165fb32c2e1fb7aee6,67d1f4222cd749549bd47199,2025-03-12_22h20.03.544,Tarea de decisión léxica,2024.2.5,Win32,60.24096386,,,,,,,,,,,,,,,,,,,,,,,,92.3615,93.5432,l,1,0.5016,,0.5016,1,93.5433,94.0433,,,,,,104,FEM,NOWORD,AGR,150,rova,,la,,94.0433,94.0435,-0.036111149,-0.419444426,0,0,0,,0,25,25,103,1,ruta,,,,
,,,,,,5f3b3d16d2664625fcfa73aa,676192165fb32c2e1fb7aee6,67d1f4222cd749549bd47199,2025-03-12_22h20.03.544,Tarea de decisión léxica,2024.2.5,Win32,60.24096386,,,,,,,,,,,,,,,,,,,,,,,,94.0453,95.0598,l,1,0.3419,,0.3419,1,95.0599,95.5598,,,,,,368,MAS,NOWORD,AGR,150,rerob,,el,,95.5614,95.5619,-0.036111149,-0.419444426,0,0,0,,0,26,26,367,1,reloj,,,,
,,,,,,5f3b3d16d2664625fcfa73aa,676192165fb32c2e1fb7aee6,67d1f4222cd749549bd47199,2025-03-12_22h20.03.544,Tarea de decisión léxica,2024.2.5,Win32,60.24096386,,,,,,,,,,,,,,,,,,,,,,,,95.5626,96.6098,a,1,0.3666,,0.3666,1,96.61,97.1099,,,,,,211,FEM,WORD,AGR,150,joya,,la,,97.11,97.11,-0.036111149,-0.419444426,0,0,0,,0,27,27,210,1,joad,,,,
,,,,,,5f3b3d16d2664625fcfa73aa,676192165fb32c2e1fb7aee6,67d1f4222cd749549bd47199,2025-03-12_22h20.03.544,Tarea de decisión léxica,2024.2.5,Win32,60.24096386,,,,,,,,,,,,,,,,,,,,,,,,97.1114,98.5263,l,1,0.7376,,0.7376,1,98.5264,99.0267,,,,,,428,FEM,NOWORD,AGR,150,oseva,,la,,99.0267,99.0268,-0.036111149,-0.419444426,0,0,0,,0,28,28,427,1,oreja,,,,
,,,,,,5f3b3d16d2664625fcfa73aa,676192165fb32c2e1fb7aee6,67d1f4222cd749549bd47199,2025-03-12_22h20.03.544,Tarea de decisión léxica,2024.2.5,Win32,60.24096386,,,,,,,,,,,,,,,,,,,,,,,,99.0283,100.4266,a,1,0.7183,,0.7183,1,100.4266,100.9265,,,,,,205,FEM,WORD,DIS,150,rana,,el,,100.9265,100.9267,-0.036111149,-0.419444426,0,0,0,,0,29,29,204,1,bara,,,,
,,,,,,5f3b3d16d2664625fcfa73aa,676192165fb32c2e1fb7aee6,67d1f4222cd749549bd47199,2025-03-12_22h20.03.544,Tarea de decisión léxica,2024.2.5,Win32,60.24096386,,,,,,,,,,,,,,,,,,,,,,,,100.9281,102.0435,l,1,0.4358,,0.4358,1,102.0436,102.5435,,,,,,406,FEM,NOWORD,DIS,150,rarra,,el,,102.5436,102.5438,-0.036111149,-0.419444426,0,0,0,,0,30,30,405,1,barra,,,,
,,,,,,5f3b3d16d2664625fcfa73aa,676192165fb32c2e1fb7aee6,67d1f4222cd749549bd47199,2025-03-12_22h20.03.544,Tarea de decisión léxica,2024.2.5,Win32,60.24096386,,,,,,,,,,,,,,,,,,,,,,,,102.5453,103.5598,a,1,0.3348,,0.3348,1,103.5599,104.0598,,,,,,173,FEM,WORD,DIS,150,rosa,,el,,104.0614,104.0623,-0.036111149,-0.419444426,0,0,0,,0,31,31,172,1,boma,,,,
,,,,,,5f3b3d16d2664625fcfa73aa,676192165fb32c2e1fb7aee6,67d1f4222cd749549bd47199,2025-03-12_22h20.03.544,Tarea de decisión léxica,2024.2.5,Win32,60.24096386,,,,,,,,,,,,,,,,,,,,,,,,104.0635,105.1432,a,1,0.4091,,0.4091,1,105.1434,105.6432,,,,,,125,MAS,WORD,DIS,150,lujo,,la,,105.6433,105.6436,-0.036111149,-0.419444426,0,0,0,,0,32,32,124,1,vudo,,,,
,,,,,,5f3b3d16d2664625fcfa73aa,676192165fb32c2e1fb7aee6,67d1f4222cd749549bd47199,2025-03-12_22h20.03.544,Tarea de decisión léxica,2024.2.5,Win32,60.24096386,,,,,,,,,,,,,,,,,,,,,,,,105.6452,106.6932,a,1,0.3774,,0.3774,1,106.6933,107.1931,,,,,,277,MAS,WORD,DIS,150,fuego,,la,,107.1932,107.1932,-0.036111149,-0.419444426,0,0,0,,0,33,33,276,1,vuemo,,,,
,,,,,,5f3b3d16d2664625fcfa73aa,676192165fb32c2e1fb7aee6,67d1f4222cd749549bd47199,2025-03-12_22h20.03.544,Tarea de decisión léxica,2024.2.5,Win32,60.24096386,,,,,,,,,,,,,,,,,,,,,,,,107.195,108.1931,l,1,0.325,,0.325,1,108.1933,108.6932,,,,,,216,FEM,NOWORD,AGR,150,raua,,la,,108.6932,108.6932,-0.036111149,-0.419444426,0,0,0,,0,34,34,215,1,raíz,,,,
,,,,,,5f3b3d16d2664625fcfa73aa,676192165fb32c2e1fb7aee6,67d1f4222cd749549bd47199,2025-03-12_22h20.03.544,Tarea de decisión léxica,2024.2.5,Win32,60.24096386,,,,,,,,,,,,,,,,,,,,,,,,108.6946,109.8265,a,1,0.4597,,0.4597,1,109.8266,110.3265,,,,,,151,MAS,WORD,AGR,150,tomo,,el,,110.328,110.3289,-0.036111149,-0.419444426,0,0,0,,0,35,35,150,1,sogo,,,,
,,,,,,5f3b3d16d2664625fcfa73aa,676192165fb32c2e1fb7aee6,67d1f4222cd749549bd47199,2025-03-12_22h20.03.544,Tarea de decisión léxica,2024.2.5,Win32,60.24096386,,,,,,,,,,,,,,,,,,,,,,,,110.3301,111.4275,l,1,0.4307,,0.4307,1,111.4276,111.9266,,,,,,166,FEM,NOWORD,DIS,150,dera,,el,,111.9267,111.9269,-0.036111149,-0.419444426,0,0,0,,0,36,36,165,1,vela,,,,
,,,,,,5f3b3d16d2664625fcfa73aa,676192165fb32c2e1fb7aee6,67d1f4222cd749549bd47199,2025-03-12_22h20.03.544,Tarea de decisión léxica,2024.2.5,Win32,60.24096386,,,,,,,,,,,,,,,,,,,,,,,,111.9286,113.16,l,1,0.5624,,0.5624,1,113.1602,113.66,,,,,,190,MAS,NOWORD,DIS,150,muvo,,la,,113.6601,113.6602,-0.036111149,-0.419444426,0,0,0,,0,37,37,189,1,puño,,,,
,,,,,,5f3b3d16d2664625fcfa73aa,676192165fb32c2e1fb7aee6,67d1f4222cd749549bd47199,2025-03-12_22h20.03.544,Tarea de decisión léxica,2024.2.5,Win32,60.24096386,,,,,,,,,,,,,,,,,,,,,,,,113.6615,114.877,l,1,0.5343,,0.5343,1,114.8771,115.3767,,,,,,262,MAS,NOWORD,DIS,150,titio,,la,,115.3768,115.377,-0.036111149,-0.419444426,0,0,0,,0,38,38,261,1,sitio,,,,
,,,,,,5f3b3d16d2664625fcfa73aa,676192165fb32c2e1fb7aee6,67d1f4222cd749549bd47199,2025-03-12_22h20.03.544,Tarea de decisión léxica,2024.2.5,Win32,60.24096386,,,,,,,,,,,,,,,,,,,,,,,,115.3782,116.4767,a,1,0.4233,,0.4233,1,116.4768,116.977,,,,,,189,MAS,WORD,DIS,150,puño,,la,,116.977,116.9772,-0.036111149,-0.419444426,0,0,0,,0,39,39,188,1,muvo,,,,
,,,,,,5f3b3d16d2664625fcfa73aa,676192165fb32c2e1fb7aee6,67d1f4222cd749549bd47199,2025-03-12_22h20.03.544,Tarea de decisión léxica,2024.2.5,Win32,60.24096386,,,,,,,,,,,,,,,,,,,,,,,,116.9788,118.127,l,1,0.4673,,0.4673,1,118.1271,118.6266,,,,,,276,MAS,NOWORD,AGR,150,musto,,el,,118.6282,118.6291,-0.036111149,-0.419444426,0,0,0,,0,40,40,275,1,punto,,,,
,,,,,,5f3b3d16d2664625fcfa73aa,676192165fb32c2e1fb7aee6,67d1f4222cd749549bd47199,2025-03-12_22h20.03.544,Tarea de decisión léxica,2024.2.5,Win32,60.24096386,,,,,,,,,,,,,,,,,,,,,,,,118.6305,119.7431,a,1,0.4439,,0.4439,1,119.7434,120.2432,,,,,,139,MAS,WORD,AGR,150,mago,,el,,120.2432,120.2433,-0.036111149,-0.419444426,0,0,0,,0,41,41,138,1,nila,,,,
,,,,,,5f3b3d16d2664625fcfa73aa,676192165fb32c2e1fb7aee6,67d1f4222cd749549bd47199,2025-03-12_22h20.03.544,Tarea de decisión léxica,2024.2.5,Win32,60.24096386,,,,,,,,,,,,,,,,,,,,,,,,120.2446,121.6605,l,1,0.7378,,0.7378,1,121.6606,122.16,,,,,,184,FEM,NOWORD,AGR,150,raad,,la,,122.16,122.1602,-0.036111149,-0.419444426,0,0,0,,0,42,42,183,1,raya,,,,
,,,,,,5f3b3d16d2664625fcfa73aa,676192165fb32c2e1fb7aee6,67d1f4222cd749549bd47199,2025-03-12_22h20.03.544,Tarea de decisión léxica,2024.2.5,Win32,60.24096386,,,,,,,,,,,,,,,,,,,,,,,,122.1614,123.4267,l,1,0.5842,,0.5842,1,123.4268,123.9268,,,,,,418,FEM,NOWORD,DIS,150,banja,,el,,123.9269,123.927,-0.036111149,-0.419444426,0,0,0,,0,43,43,417,1,barba,,,,
,,,,,,5f3b3d16d2664625fcfa73aa,676192165fb32c2e1fb7aee6,67d1f4222cd749549bd47199,2025-03-12_22h20.03.544,Tarea de decisión léxica,2024.2.5,Win32,60.24096386,,,,,,,,,,,,,,,,,,,,,,,,123.9282,125.1434,l,1,0.5445,,0.5445,1,125.1436,125.6432,,,,,,470,MAS,NOWORD,DIS,150,matia,,la,,125.6433,125.6434,-0.036111149,-0.419444426,0,0,0,,0,44,44,469,1,patio,,,,
,,,,,,5f3b3d16d2664625fcfa73aa,676192165fb32c2e1fb7aee6,67d1f4222cd749549bd47199,2025-03-12_22h20.03.544,Tarea de decisión léxica,2024.2.5,Win32,60.24096386,,,,,,,,,,,,,,,,,,,,,,,,125.6447,126.8432,a,1,0.5244,,0.5244,1,126.8434,127.3432,,,,,,5,FEM,WORD,DIS,150,cosa,,el,,127.3447,127.3458,-0.036111149,-0.419444426,0,0,0,,0,45,45,4,1,poga,,,,
,,,,,,5f3b3d16d2664625fcfa73aa,676192165fb32c2e1fb7aee6,67d1f4222cd749549bd47199,2025-03-12_22h20.03.544,Tarea de decisión léxica,2024.2.5,Win32,60.24096386,,,,,,,,,,,,,,,,,,,,,,,,127.3469,128.4766,l,1,0.4496,,0.4496,1,128.4768,128.9769,,,,,,292,FEM,NOWORD,AGR,150,mesta,,la,,128.977,128.9773,-0.036111149,-0.419444426,0,0,0,,0,46,46,291,1,pista,,,,
,,,,,,5f3b3d16d2664625fcfa73aa,676192165fb32c2e1fb7aee6,67d1f4222cd749549bd47199,2025-03-12_22h20.03.544,Tarea de decisión léxica,2024.2.5,Win32,60.24096386,,,,,,,,,,,,,,,,,,,,,,,,128.9789,130.0764,l,1,0.4188,,0.4188,1,130.0766,130.5766,,,,,,442,FEM,NOWORD,DIS,150,telza,,el,,130.5767,130.5768,-0.036111149,-0.419444426,0,0,0,,0,47,47,441,1,selva,,,,
,,,,,,5f3b3d16d2664625fcfa73aa,676192165fb32c2e1fb7aee6,67d1f4222cd749549bd47199,2025-03-12_22h20.03.544,Tarea de decisión léxica,2024.2.5,Win32,60.24096386,,,,,,,,,,,,,,,,,,,,,,,,130.578,131.6433,a,1,0.3923,,0.3923,1,131.6435,132.1433,,,,,,343,FEM,WORD,AGR,150,plata,,la,,132.1434,132.1435,-0.036111149,-0.419444426,0,0,0,,0,48,48,342,1,trada,,,,
,,,,,,5f3b3d16d2664625fcfa73aa,676192165fb32c2e1fb7aee6,67d1f4222cd749549bd47199,2025-03-12_22h20.03.544,Tarea de decisión léxica,2024.2.5,Win32,60.24096386,,,,,,,,,,,,,,,,,,,,,,,,132.1447,133.4102,a,1,0.5851,,0.5851,1,133.4104,133.9099,,,,,,181,FEM,WORD,DIS,150,seda,,el,,133.91,133.9102,-0.036111149,-0.419444426,0,0,0,,0,49,49,180,1,teda,,,,
,,,,,,5f3b3d16d2664625fcfa73aa,676192165fb32c2e1fb7aee6,67d1f4222cd749549bd47199,2025-03-12_22h20.03.544,Tarea de decisión léxica,2024.2.5,Win32,60.24096386,,,,,,,,,,,,,,,,,,,,,,,,133.9115,134.91,a,1,0.3239,,0.3239,1,134.9101,135.4102,,,,,,457,MAS,WORD,DIS,150,plato,,la,,135.4116,135.4127,-0.036111149,-0.419444426,0,0,0,,0,50,50,456,1,glaco,,,,
,,,,,,5f3b3d16d2664625fcfa73aa,676192165fb32c2e1fb7aee6,67d1f4222cd749549bd47199,2025-03-12_22h20.03.544,Tarea de decisión léxica,2024.2.5,Win32,60.24096386,,,,,,,,,,,,,,,,,,,,,,,,135.4138,136.5769,l,1,0.4843,,0.4843,1,136.577,137.0765,,,,,,380,MAS,NOWORD,AGR,150,tunso,,el,,137.0765,137.0766,-0.036111149,-0.419444426,0,0,0,,0,51,51,379,1,turno,,,,
,,,,,,5f3b3d16d2664625fcfa73aa,676192165fb32c2e1fb7aee6,67d1f4222cd749549bd47199,2025-03-12_22h20.03.544,Tarea de decisión léxica,2024.2.5,Win32,60.24096386,,,,,,,,,,,,,,,,,,,,,,,,137.078,138.1264,a,1,0.3708,,0.3708,1,138.1265,138.6268,,,,,,399,MAS,WORD,AGR,150,techo,,el,,138.6268,138.6269,-0.036111149,-0.419444426,0,0,0,,0,52,52,398,1,serro,,,,
,,,,,,5f3b3d16d2664625fcfa73aa,676192165fb32c2e1fb7aee6,67d1f4222cd749549bd47199,2025-03-12_22h20.03.544,Tarea de decisión léxica,2024.2.5,Win32,60.24096386,,,,,,,,,,,,,,,,,,,,,,,,138.6285,139.6604,a,1,0.3545,,0.3545,1,139.6606,140.1596,,,,,,69,FEM,WORD,DIS,150,zona,,el,,140.1596,140.1599,-0.036111149,-0.419444426,0,0,0,,0,53,53,68,1,ñola,,,,
,,,,,,5f3b3d16d2664625fcfa73aa,676192165fb32c2e1fb7aee6,67d1f4222cd749549bd47199,2025-03-12_22h20.03.544,Tarea de decisión léxica,2024.2.5,Win32,60.24096386,,,,,,,,,,,,,,,,,,,,,,,,140.161,141.31,l,1,0.4783,,0.4783,1,141.3101,141.8101,,,,,,300,FEM,NOWORD,AGR,150,bosga,,la,,141.8102,141.8103,-0.036111149,-0.419444426,0,0,0,,0,54,54,299,1,bolsa,,,,
,,,,,,5f3b3d16d2664625fcfa73aa,676192165fb32c2e1fb7aee6,67d1f4222cd749549bd47199,2025-03-12_22h20.03.544,Tarea de decisión léxica,2024.2.5,Win32,60.24096386,,,,,,,,,,,,,,,,,,,,,,,,141.8117,142.9266,a,1,0.4388,,0.4388,1,142.9266,143.4264,,,,,,45,FEM,WORD,DIS,150,mesa,,el,,143.4276,143.4284,-0.036111149,-0.419444426,0,0,0,,0,55,55,44,1,pema,,,,
,,,,,,5f3b3d16d2664625fcfa73aa,676192165fb32c2e1fb7aee6,67d1f4222cd749549bd47199,2025-03-12_22h20.03.544,Tarea de decisión léxica,2024.2.5,Win32,60.24096386,,,,,,,,,,,,,,,,,,,,,,,,143.4295,144.4768,a,1,0.3673,,0.3673,1,144.4772,144.9769,,,,,,51,FEM,WORD,AGR,150,caja,,la,,144.9769,144.9771,-0.036111149,-0.419444426,0,0,0,,0,56,56,50,1,mava,,,,
,,,,,,5f3b3d16d2664625fcfa73aa,676192165fb32c2e1fb7aee6,67d1f4222cd749549bd47199,2025-03-12_22h20.03.544,Tarea de decisión léxica,2024.2.5,Win32,60.24096386,,,,,,,,,,,,,,,,,,,,,,,,144.9787,146.1266,l,1,0.4777,,0.4777,1,146.1267,146.627,,,,,,18,FEM,NOWORD,DIS,150,paba,,el,,146.627,146.6271,-0.036111149,-0.419444426,0,0,0,,0,57,57,17,1,mamá,,,,
,,,,,,5f3b3d16d2664625fcfa73aa,676192165fb32c2e1fb7aee6,67d1f4222cd749549bd47199,2025-03-12_22h20.03.544,Tarea de decisión léxica,2024.2.5,Win32,60.24096386,,,,,,,,,,,,,,,,,,,,,,,,146.6287,147.8278,l,1,0.5308,,0.5308,1,147.8279,148.3266,,,,,,214,FEM,NOWORD,DIS,150,bana,,el,,148.3266,148.3268,-0.036111149,-0.419444426,0,0,0,,0,58,58,213,1,rama,,,,
,,,,,,5f3b3d16d2664625fcfa73aa,676192165fb32c2e1fb7aee6,67d1f4222cd749549bd47199,2025-03-12_22h20.03.544,Tarea de decisión léxica,2024.2.5,Win32,60.24096386,,,,,,,,,,,,,,,,,,,,,,,,148.328,149.3766,a,1,0.3778,,0.3778,1,149.3766,149.8766,,,,,,235,FEM,WORD,AGR,150,grúa,,la,,149.8781,149.8791,-0.036111149,-0.419444426,0,0,0,,0,59,59,234,1,tria,,,,
,,,,,,5f3b3d16d2664625fcfa73aa,676192165fb32c2e1fb7aee6,67d1f4222cd749549bd47199,2025-03-12_22h20.03.544,Tarea de decisión léxica,2024.2.5,Win32,60.24096386,,,,,,,,,,,,,,,,,,,,,,,,149.8802,151.26,l,1,0.7111,,0.7111,1,151.2601,151.7599,,,,,,332,MAS,NOWORD,AGR,150,erato,,el,,151.7599,151.76,-0.036111149,-0.419444426,0,0,0,,0,60,60,331,1,éxito,,,,
,,,,,,5f3b3d16d2664625fcfa73aa,676192165fb32c2e1fb7aee6,67d1f4222cd749549bd47199,2025-03-12_22h20.03.544,Tarea de decisión léxica,2024.2.5,Win32,60.24096386,,,,,,,,,,,,,,,,,,,,,,,,151.7614,153.1597,a,1,0.7192,,0.7192,1,153.1599,153.6599,,,,,,117,MAS,WORD,DIS,150,palo,,la,,153.6599,153.66,-0.036111149,-0.419444426,0,0,0,,0,61,61,116,1,movo,,,,
,,,,,,5f3b3d16d2664625fcfa73aa,676192165fb32c2e1fb7aee6,67d1f4222cd749549bd47199,2025-03-12_22h20.03.544,Tarea de decisión léxica,2024.2.5,Win32,60.24096386,,,,,,,,,,,,,,,,,,,,,,,,153.6613,154.8766,l,1,0.5345,,0.5345,1,154.8766,155.3765,,,,,,232,FEM,NOWORD,AGR,150,heta,,la,,155.3766,155.3768,-0.036111149,-0.419444426,0,0,0,,0,62,62,231,1,bota,,,,
,,,,,,5f3b3d16d2664625fcfa73aa,676192165fb32c2e1fb7aee6,67d1f4222cd749549bd47199,2025-03-12_22h20.03.544,Tarea de decisión léxica,2024.2.5,Win32,60.24096386,,,,,,,,,,,,,,,,,,,,,,,,155.378,156.4433,a,1,0.3852,,0.3852,1,156.4433,156.9433,,,,,,215,FEM,WORD,AGR,150,raíz,,la,,156.9433,156.9434,-0.036111149,-0.419444426,0,0,0,,0,63,63,214,1,raua,,,,
,,,,,,5f3b3d16d2664625fcfa73aa,676192165fb32c2e1fb7aee6,67d1f4222cd749549bd47199,2025-03-12_22h20.03.544,Tarea de decisión léxica,2024.2.5,Win32,60.24096386,,,,,,,,,,,,,,,,,,,,,,,,156.9448,157.9767,a,1,0.3519,,0.3519,1,157.9769,158.4765,,,,,,443,MAS,WORD,AGR,150,salón,,el,,158.478,158.479,-0.036111149,-0.419444426,0,0,0,,0,64,64,442,1,taron,,,,
,,,,,,5f3b3d16d2664625fcfa73aa,676192165fb32c2e1fb7aee6,67d1f4222cd749549bd47199,2025-03-12_22h20.03.544,Tarea de decisión léxica,2024.2.5,Win32,60.24096386,,,,,,,,,,,,,,,,,,,,,,,,158.4801,159.6279,a,1,0.4804,,0.4804,1,159.628,160.1267,,,,,,109,MAS,WORD,DIS,150,rayo,,la,,160.127,160.1274,-0.036111149,-0.419444426,0,0,0,,0,65,65,108,1,suno,,,,
,,,,,,5f3b3d16d2664625fcfa73aa,676192165fb32c2e1fb7aee6,67d1f4222cd749549bd47199,2025-03-12_22h20.03.544,Tarea de decisión léxica,2024.2.5,Win32,60.24096386,,,,,,,,,,,,,,,,,,,,,,,,160.1299,161.1431,a,1,0.3337,,0.3337,1,161.1432,161.6433,,,,,,59,FEM,WORD,AGR,150,sala,,la,,161.6433,161.6434,-0.036111149,-0.419444426,0,0,0,,0,66,66,58,1,tafa,,,,
,,,,,,5f3b3d16d2664625fcfa73aa,676192165fb32c2e1fb7aee6,67d1f4222cd749549bd47199,2025-03-12_22h20.03.544,Tarea de decisión léxica,2024.2.5,Win32,60.24096386,,,,,,,,,,,,,,,,,,,,,,,,161.6446,162.7932,l,1,0.4687,,0.4687,1,162.7932,163.2931,,,,,,12,MAS,NOWORD,AGR,150,bapo,,el,,163.2932,163.2934,-0.036111149,-0.419444426,0,0,0,,0,67,67,11,1,lado,,,,
,,,,,,5f3b3d16d2664625fcfa73aa,676192165fb32c2e1fb7aee6,67d1f4222cd749549bd47199,2025-03-12_22h20.03.544,Tarea de decisión léxica,2024.2.5,Win32,60.24096386,,,,,,,,,,,,,,,,,,,,,,,,163.2946,164.5768,l,1,0.6005,,0.6005,1,164.5769,165.0766,,,,,,344,FEM,NOWORD,AGR,150,trada,,la,,165.0767,165.0768,-0.036111149,-0.419444426,0,0,0,,0,68,68,343,1,plata,,,,
,,,,,,5f3b3d16d2664625fcfa73aa,676192165fb32c2e1fb7aee6,67d1f4222cd749549bd47199,2025-03-12_22h20.03.544,Tarea de decisión léxica,2024.2.5,Win32,60.24096386,,,,,,,,,,,,,,,,,,,,,,,,165.078,166.1598,a,1,0.4085,,0.4085,1,166.1599,166.66,,,,,,383,FEM,WORD,AGR,150,frase,,la,,166.6618,166.6627,-0.036111149,-0.419444426,0,0,0,,0,69,69,382,1,brame,,,,
,,,,,,5f3b3d16d2664625fcfa73aa,676192165fb32c2e1fb7aee6,67d1f4222cd749549bd47199,2025-03-12_22h20.03.544,Tarea de decisión léxica,2024.2.5,Win32,60.24096386,,,,,,,,,,,,,,,,,,,,,,,,166.6638,167.7103,a,1,0.3708,,0.3708,1,167.7104,168.2101,,,,,,65,MAS,WORD,DIS,150,dios,,la,,168.2102,168.2104,-0.036111149,-0.419444426,0,0,0,,0,70,70,64,1,nios,,,,
,,,,,,5f3b3d16d2664625fcfa73aa,676192165fb32c2e1fb7aee6,67d1f4222cd749549bd47199,2025-03-12_22h20.03.544,Tarea de decisión léxica,2024.2.5,Win32,60.24096386,,,,,,,,,,,,,,,,,,,,,,,,168.2116,169.2933,a,1,0.4034,,0.4034,1,169.2934,169.7931,,,,,,209,MAS,WORD,DIS,150,velo,,la,,169.7932,169.7933,-0.036111149,-0.419444426,0,0,0,,0,71,71,208,1,dero,,,,
,,,,,,5f3b3d16d2664625fcfa73aa,676192165fb32c2e1fb7aee6,67d1f4222cd749549bd47199,2025-03-12_22h20.03.544,Tarea de decisión léxica,2024.2.5,Win32,60.24096386,,,,,,,,,,,,,,,,,,,,,,,,169.7944,170.8263,a,1,0.3523,,0.3523,1,170.8264,171.3264,,,,,,311,MAS,WORD,AGR,150,honor,,el,,171.3265,171.3266,-0.036111149,-0.419444426,0,0,0,,0,72,72,310,1,nosor,,,,
,,,,,,5f3b3d16d2664625fcfa73aa,676192165fb32c2e1fb7aee6,67d1f4222cd749549bd47199,2025-03-12_22h20.03.544,Tarea de decisión léxica,2024.2.5,Win32,60.24096386,,,,,,,,,,,,,,,,,,,,,,,,171.3278,172.2933,a,1,0.2856,,0.2856,1,172.2934,172.7933,,,,,,249,FEM,WORD,DIS,150,clase,,el,,172.7934,172.7935,-0.036111149,-0.419444426,0,0,0,,0,73,73,248,1,plane,,,,
,,,,,,5f3b3d16d2664625fcfa73aa,676192165fb32c2e1fb7aee6,67d1f4222cd749549bd47199,2025-03-12_22h20.03.544,Tarea de decisión léxica,2024.2.5,Win32,60.24096386,,,,,,,,,,,,,,,,,,,,,,,,172.7948,173.9766,l,1,0.5007,,0.5007,1,173.9767,174.4763,,,,,,320,MAS,NOWORD,AGR,150,tuero,,el,,174.4777,174.4786,-0.036111149,-0.419444426,0,0,0,,0,74,74,319,1,suelo,,,,
,,,,,,5f3b3d16d2664625fcfa73aa,676192165fb32c2e1fb7aee6,67d1f4222cd749549bd47199,2025-03-12_22h20.03.544,Tarea de decisión léxica,2024.2.5,Win32,60.24096386,,,,,,,,,,,,,,,,,,,,,,,,174.4796,175.7267,l,1,0.5675,,0.5675,1,175.7269,176.2263,,,,,,346,FEM,NOWORD,DIS,150,anera,,el,,176.2264,176.2266,-0.036111149,-0.419444426,0,0,0,,0,75,75,345,1,arena,,,,
,,,,,,5f3b3d16d2664625fcfa73aa,676192165fb32c2e1fb7aee6,67d1f4222cd749549bd47199,2025-03-12_22h20.03.544,Tarea de decisión léxica,2024.2.5,Win32,60.24096386,,,,,,,,,,,,,,,,,,,,,,,,176.2278,177.3929,l,1,0.4878,,0.4878,1,177.393,177.8931,,,,,,436,MAS,NOWORD,AGR,150,ricno,,el,,177.8932,177.8933,-0.036111149,-0.419444426,0,0,0,,0,76,76,435,1,ritmo,,,,
,,,,,,5f3b3d16d2664625fcfa73aa,676192165fb32c2e1fb7aee6,67d1f4222cd749549bd47199,2025-03-12_22h20.03.544,Tarea de decisión léxica,2024.2.5,Win32,60.24096386,,,,,,,,,,,,,,,,,,,,,,,,177.8946,179.0264,l,1,0.4614,,0.4614,1,179.0265,179.5268,,,,,,132,FEM,NOWORD,AGR,150,fada,,la,,179.5269,179.5271,-0.036111149,-0.419444426,0,0,0,,0,77,77,131,1,mina,,,,
,,,,,,5f3b3d16d2664625fcfa73aa,676192165fb32c2e1fb7aee6,67d1f4222cd749549bd47199,2025-03-12_22h20.03.544,Tarea de decisión léxica,2024.2.5,Win32,60.24096386,,,,,,,,,,,,,,,,,,,,,,,,179.5283,180.5601,l,1,0.3561,,0.3561,1,180.5603,181.0603,,,,,,318,FEM,NOWORD,DIS,150,plaad,,el,,181.0604,181.0606,-0.036111149,-0.419444426,0,0,0,,0,78,78,317,1,playa,,,,
,,,,,,5f3b3d16d2664625fcfa73aa,676192165fb32c2e1fb7aee6,67d1f4222cd749549bd47199,2025-03-12_22h20.03.544,Tarea de decisión léxica,2024.2.5,Win32,60.24096386,,,,,,,,,,,,,,,,,,,,,,,,181.0619,182.1937,l,1,0.4626,,0.4626,1,182.194,182.6932,,,,,,26,FEM,NOWORD,DIS,150,paza,,el,,182.6946,182.6955,-0.036111149,-0.419444426,0,0,0,,0,79,79,25,1,cama,,,,
,,,,,,5f3b3d16d2664625fcfa73aa,676192165fb32c2e1fb7aee6,67d1f4222cd749549bd47199,2025-03-12_22h20.03.544,Tarea de decisión léxica,2024.2.5,Win32,60.24096386,,,,,,,,,,,,,,,,,,,,,,,,182.6965,183.6932,l,1,0.3262,,0.3262,1,183.6932,184.1932,,,,,,98,MAS,NOWORD,DIS,150,fopo,,la,,184.1933,184.1935,-0.036111149,-0.419444426,0,0,0,,0,80,80,97,1,mono,,,,
,,,,,,5f3b3d16d2664625fcfa73aa,676192165fb32c2e1fb7aee6,67d1f4222cd749549bd47199,2025-03-12_22h20.03.544,Tarea de decisión léxica,2024.2.5,Win32,60.24096386,,,,,,,,,,,,,,,,,,,,,,,,184.1948,185.2266,l,0,0.3533,,0.3533,0,185.2276,185.7265,,,,,,29,MAS,WORD,DIS,150,modo,,la,,185.7266,185.7266,-0.036111149,-0.419444426,0,0,0,,0,81,81,28,1,pono,,,,
,,,,,,5f3b3d16d2664625fcfa73aa,676192165fb32c2e1fb7aee6,67d1f4222cd749549bd47199,2025-03-12_22h20.03.544,Tarea de decisión léxica,2024.2.5,Win32,60.24096386,,,,,,,,,,,,,,,,,,,,,,,,185.7279,186.8601,a,1,0.451,,0.451,1,186.8615,187.3601,,,,,,9,MAS,WORD,DIS,150,tipo,,la,,187.3601,187.3602,-0.036111149,-0.419444426,0,0,0,,0,82,82,8,1,sibo,,,,
,,,,,,5f3b3d16d2664625fcfa73aa,676192165fb32c2e1fb7aee6,67d1f4222cd749549bd47199,2025-03-12_22h20.03.544,Tarea de decisión léxica,2024.2.5,Win32,60.24096386,,,,,,,,,,,,,,,,,,,,,,,,187.3619,188.5269,l,1,0.4883,,0.4883,1,188.527,189.0266,,,,,,284,MAS,NOWORD,AGR,150,tuevo,,el,,189.0281,189.0291,-0.036111149,-0.419444426,0,0,0,,0,83,83,283,1,sueño,,,,
,,,,,,5f3b3d16d2664625fcfa73aa,676192165fb32c2e1fb7aee6,67d1f4222cd749549bd47199,2025-03-12_22h20.03.544,Tarea de decisión léxica,2024.2.5,Win32,60.24096386,,,,,,,,,,,,,,,,,,,,,,,,189.0301,190.1768,l,1,0.4735,,0.4735,1,190.1769,190.6766,,,,,,326,FEM,NOWORD,DIS,150,mabia,,el,,190.6766,190.6768,-0.036111149,-0.419444426,0,0,0,,0,84,84,325,1,magia,,,,
,,,,,,5f3b3d16d2664625fcfa73aa,676192165fb32c2e1fb7aee6,67d1f4222cd749549bd47199,2025-03-12_22h20.03.544,Tarea de decisión léxica,2024.2.5,Win32,60.24096386,,,,,,,,,,,,,,,,,,,,,,,,190.6782,191.9096,a,1,0.5574,,0.5574,1,191.9098,192.4098,,,,,,439,FEM,WORD,AGR,150,presa,,la,,192.4099,192.41,-0.036111149,-0.419444426,0,0,0,,0,85,85,438,1,prema,,,,
,,,,,,5f3b3d16d2664625fcfa73aa,676192165fb32c2e1fb7aee6,67d1f4222cd749549bd47199,2025-03-12_22h20.03.544,Tarea de decisión léxica,2024.2.5,Win32,60.24096386,,,,,,,,,,,,,,,,,,,,,,,,192.4114,193.5602,l,1,0.4684,,0.4684,1,193.5603,194.0601,,,,,,10,MAS,NOWORD,DIS,150,sibo,,la,,194.0602,194.0604,-0.036111149,-0.419444426,0,0,0,,0,86,86,9,1,tipo,,,,
,,,,,,5f3b3d16d2664625fcfa73aa,676192165fb32c2e1fb7aee6,67d1f4222cd749549bd47199,2025-03-12_22h20.03.544,Tarea de decisión léxica,2024.2.5,Win32,60.24096386,,,,,,,,,,,,,,,,,,,,,,,,194.0617,195.1433,a,1,0.4015,,0.4015,1,195.1435,195.6434,,,,,,295,MAS,WORD,AGR,150,dolor,,el,,195.6434,195.6435,-0.036111149,-0.419444426,0,0,0,,0,87,87,294,1,goler,,,,
,,,,,,5f3b3d16d2664625fcfa73aa,676192165fb32c2e1fb7aee6,67d1f4222cd749549bd47199,2025-03-12_22h20.03.544,Tarea de decisión léxica,2024.2.5,Win32,60.24096386,,,,,,,,,,,,,,,,,,,,,,,,195.6451,196.7434,a,1,0.4256,,0.4256,1,196.7436,197.2433,,,,,,435,MAS,WORD,AGR,150,ritmo,,el,,197.245,197.2462,-0.036111149,-0.419444426,0,0,0,,0,88,88,434,1,ricno,,,,
,,,,,,5f3b3d16d2664625fcfa73aa,676192165fb32c2e1fb7aee6,67d1f4222cd749549bd47199,2025-03-12_22h20.03.544,Tarea de decisión léxica,2024.2.5,Win32,60.24096386,,,,,,,,,,,,,,,,,,,,,,,,197.2474,198.5764,l,1,0.6584,,0.6584,1,198.5765,199.0764,,,,,,62,FEM,NOWORD,DIS,150,efla,,el,,199.0764,199.0765,-0.036111149,-0.419444426,0,0,0,,0,89,89,61,1,obra,,,,
,,,,,,5f3b3d16d2664625fcfa73aa,676192165fb32c2e1fb7aee6,67d1f4222cd749549bd47199,2025-03-12_22h20.03.544,Tarea de decisión léxica,2024.2.5,Win32,60.24096386,,,,,,,,,,,,,,,,,,,,,,,,199.0778,200.11,a,1,0.3559,,0.3559,1,200.11,200.61,,,,,,147,FEM,WORD,AGR,150,hoja,,la,,200.61,200.6102,-0.036111149,-0.419444426,0,0,0,,0,90,90,146,1,pama,,,,
,,,,,,5f3b3d16d2664625fcfa73aa,676192165fb32c2e1fb7aee6,67d1f4222cd749549bd47199,2025-03-12_22h20.03.544,Tarea de decisión léxica,2024.2.5,Win32,60.24096386,,,,,,,,,,,,,,,,,,,,,,,,200.6114,201.7933,l,1,0.5005,,0.5005,1,201.7934,202.293,,,,,,64,FEM,NOWORD,AGR,150,funa,,la,,202.293,202.2932,-0.036111149,-0.419444426,0,0,0,,0,91,91,63,1,luna,,,,
,,,,,,5f3b3d16d2664625fcfa73aa,676192165fb32c2e1fb7aee6,67d1f4222cd749549bd47199,2025-03-12_22h20.03.544,Tarea de decisión léxica,2024.2.5,Win32,60.24096386,,,,,,,,,,,,,,,,,,,,,,,,202.2943,203.3431,l,1,0.3779,,0.3779,1,203.3436,203.8434,,,,,,100,MAS,NOWORD,AGR,150,soro,,el,,203.8434,203.8435,-0.036111149,-0.419444426,0,0,0,,0,92,92,99,1,lobo,,,,
,,,,,,5f3b3d16d2664625fcfa73aa,676192165fb32c2e1fb7aee6,67d1f4222cd749549bd47199,2025-03-12_22h20.03.544,Tarea de decisión léxica,2024.2.5,Win32,60.24096386,,,,,,,,,,,,,,,,,,,,,,,,203.8447,205.1098,l,1,0.5917,,0.5917,1,205.1099,205.6104,,,,,,384,FEM,NOWORD,AGR,150,brame,,la,,205.6119,205.6128,-0.036111149,-0.419444426,0,0,0,,0,93,93,383,1,frase,,,,
,,,,,,5f3b3d16d2664625fcfa73aa,676192165fb32c2e1fb7aee6,67d1f4222cd749549bd47199,2025-03-12_22h20.03.544,Tarea de decisión léxica,2024.2.5,Win32,60.24096386,,,,,,,,,,,,,,,,,,,,,,,,205.614,206.7435,l,1,0.4612,,0.4612,1,206.7437,207.2434,,,,,,174,FEM,NOWORD,DIS,150,boma,,el,,207.2434,207.2435,-0.036111149,-0.419444426,0,0,0,,0,94,94,173,1,rosa,,,,
,,,,,,5f3b3d16d2664625fcfa73aa,676192165fb32c2e1fb7aee6,67d1f4222cd749549bd47199,2025-03-12_22h20.03.544,Tarea de decisión léxica,2024.2.5,Win32,60.24096386,,,,,,,,,,,,,,,,,,,,,,,,207.2451,208.36,l,1,0.4347,,0.4347,1,208.3601,208.8603,,,,,,432,MAS,NOWORD,AGR,150,tetor,,el,,208.8603,208.8604,-0.036111149,-0.419444426,0,0,0,,0,95,95,431,1,motor,,,,
,,,,,,5f3b3d16d2664625fcfa73aa,676192165fb32c2e1fb7aee6,67d1f4222cd749549bd47199,2025-03-12_22h20.03.544,Tarea de decisión léxica,2024.2.5,Win32,60.24096386,,,,,,,,,,,,,,,,,,,,,,,,208.8618,210.0605,a,1,0.5181,,0.5181,1,210.0607,210.5599,,,,,,363,FEM,WORD,AGR,150,deuda,,la,,210.5601,210.5602,-0.036111149,-0.419444426,0,0,0,,0,96,96,362,1,veida,,,,
,,,,,,5f3b3d16d2664625fcfa73aa,676192165fb32c2e1fb7aee6,67d1f4222cd749549bd47199,2025-03-12_22h20.03.544,Tarea de decisión léxica,2024.2.5,Win32,60.24096386,,,,,,,,,,,,,,,,,,,,,,,,210.5618,211.5766,a,1,0.3402,,0.3402,1,211.5767,212.0765,,,,,,265,FEM,WORD,DIS,150,mitad,,el,,212.0766,212.0767,-0.036111149,-0.419444426,0,0,0,,0,97,97,264,1,pitat,,,,
,,,,,,5f3b3d16d2664625fcfa73aa,676192165fb32c2e1fb7aee6,67d1f4222cd749549bd47199,2025-03-12_22h20.03.544,Tarea de decisión léxica,2024.2.5,Win32,60.24096386,,,,,,,,,,,,,,,,,,,,,,,,212.078,213.2933,l,1,0.5345,,0.5345,1,213.2933,213.7934,,,,,,440,FEM,NOWORD,AGR,150,prema,,la,,213.7949,213.7959,-0.036111149,-0.419444426,0,0,0,,0,98,98,439,1,presa,,,,
,,,,,,5f3b3d16d2664625fcfa73aa,676192165fb32c2e1fb7aee6,67d1f4222cd749549bd47199,2025-03-12_22h20.03.544,Tarea de decisión léxica,2024.2.5,Win32,60.24096386,,,,,,,,,,,,,,,,,,,,,,,,213.797,214.96,l,1,0.4839,,0.4839,1,214.9601,215.46,,,,,,156,FEM,NOWORD,AGR,150,luma,,la,,215.4601,215.4603,-0.036111149,-0.419444426,0,0,0,,0,99,99,155,1,fuga,,,,
,,,,,,5f3b3d16d2664625fcfa73aa,676192165fb32c2e1fb7aee6,67d1f4222cd749549bd47199,2025-03-12_22h20.03.544,Tarea de decisión léxica,2024.2.5,Win32,60.24096386,,,,,,,,,,,,,,,,,,,,,,,,215.4618,216.493,l,0,0.3586,,0.3586,0,216.494,216.9932,,,,,,221,FEM,WORD,DIS,150,mula,,el,,216.9933,216.9933,-0.036111149,-0.419444426,0,0,0,,0,100,100,220,1,puca,,,,
,,,,,,5f3b3d16d2664625fcfa73aa,676192165fb32c2e1fb7aee6,67d1f4222cd749549bd47199,2025-03-12_22h20.03.544,Tarea de decisión léxica,2024.2.5,Win32,60.24096386,,,,,,,,,,,,,,,,,,,,,,,,216.9949,218.0766,a,1,0.4055,,0.4055,1,218.0779,218.5766,,,,,,199,MAS,WORD,AGR,150,lazo,,el,,218.5767,218.577,-0.036111149,-0.419444426,0,0,0,,0,101,101,198,1,fano,,,,
,,,,,,5f3b3d16d2664625fcfa73aa,676192165fb32c2e1fb7aee6,67d1f4222cd749549bd47199,2025-03-12_22h20.03.544,Tarea de decisión léxica,2024.2.5,Win32,60.24096386,,,,,,,,,,,,,,,,,,,,,,,,218.5785,219.7596,l,1,0.5,,0.5,1,219.7597,220.2598,,,,,,234,FEM,NOWORD,DIS,150,fasa,,el,,220.2599,220.2602,-0.036111149,-0.419444426,0,0,0,,0,102,102,233,1,lana,,,,
,,,,,,5f3b3d16d2664625fcfa73aa,676192165fb32c2e1fb7aee6,67d1f4222cd749549bd47199,2025-03-12_22h20.03.544,Tarea de decisión léxica,2024.2.5,Win32,60.24096386,,,,,,,,,,,,,,,,,,,,,,,,220.2614,221.3265,l,1,0.3873,,0.3873,1,221.3266,221.8266,,,,,,478,MAS,NOWORD,DIS,150,hocon,,la,,221.8283,221.8295,-0.036111149,-0.419444426,0,0,0,,0,103,103,477,1,botón,,,,
,,,,,,5f3b3d16d2664625fcfa73aa,676192165fb32c2e1fb7aee6,67d1f4222cd749549bd47199,2025-03-12_22h20.03.544,Tarea de decisión léxica,2024.2.5,Win32,60.24096386,,,,,,,,,,,,,,,,,,,,,,,,221.8306,223.0097,a,1,0.5047,,0.5047,1,223.0098,223.51,,,,,,321,MAS,WORD,DIS,150,banco,,la,,223.5101,223.5101,-0.036111149,-0.419444426,0,0,0,,0,104,104,320,1,rarco,,,,
,,,,,,5f3b3d16d2664625fcfa73aa,676192165fb32c2e1fb7aee6,67d1f4222cd749549bd47199,2025-03-12_22h20.03.544,Tarea de decisión léxica,2024.2.5,Win32,60.24096386,,,,,,,,,,,,,,,,,,,,,,,,223.5116,224.7098,a,1,0.5212,,0.5212,1,224.7099,225.2098,,,,,,63,FEM,WORD,AGR,150,luna,,la,,225.2099,225.21,-0.036111149,-0.419444426,0,0,0,,0,105,105,62,1,funa,,,,
,,,,,,5f3b3d16d2664625fcfa73aa,676192165fb32c2e1fb7aee6,67d1f4222cd749549bd47199,2025-03-12_22h20.03.544,Tarea de decisión léxica,2024.2.5,Win32,60.24096386,,,,,,,,,,,,,,,,,,,,,,,,225.2113,226.2931,a,1,0.404,,0.404,1,226.2932,226.793,,,,,,237,MAS,WORD,DIS,150,nudo,,la,,226.7931,226.7933,-0.036111149,-0.419444426,0,0,0,,0,106,106,236,1,huco,,,,
,,,,,,5f3b3d16d2664625fcfa73aa,676192165fb32c2e1fb7aee6,67d1f4222cd749549bd47199,2025-03-12_22h20.03.544,Tarea de decisión léxica,2024.2.5,Win32,60.24096386,,,,,,,,,,,,,,,,,,,,,,,,226.7947,227.8598,l,1,0.3898,,0.3898,1,227.8598,228.3596,,,,,,52,FEM,NOWORD,AGR,150,mava,,la,,228.3614,228.3623,-0.036111149,-0.419444426,0,0,0,,0,107,107,51,1,caja,,,,
,,,,,,5f3b3d16d2664625fcfa73aa,676192165fb32c2e1fb7aee6,67d1f4222cd749549bd47199,2025-03-12_22h20.03.544,Tarea de decisión léxica,2024.2.5,Win32,60.24096386,,,,,,,,,,,,,,,,,,,,,,,,228.3634,229.5596,l,1,0.5175,,0.5175,1,229.5598,230.0597,,,,,,8,MAS,NOWORD,AGR,150,nivo,,el,,230.0598,230.06,-0.036111149,-0.419444426,0,0,0,,0,108,108,7,1,hijo,,,,
,,,,,,5f3b3d16d2664625fcfa73aa,676192165fb32c2e1fb7aee6,67d1f4222cd749549bd47199,2025-03-12_22h20.03.544,Tarea de decisión léxica,2024.2.5,Win32,60.24096386,,,,,,,,,,,,,,,,,,,,,,,,230.0612,231.1935,l,1,0.4574,,0.4574,1,231.1937,231.6932,,,,,,152,MAS,NOWORD,AGR,150,sogo,,el,,231.6933,231.6934,-0.036111149,-0.419444426,0,0,0,,0,109,109,151,1,tomo,,,,
,,,,,,5f3b3d16d2664625fcfa73aa,676192165fb32c2e1fb7aee6,67d1f4222cd749549bd47199,2025-03-12_22h20.03.544,Tarea de decisión léxica,2024.2.5,Win32,60.24096386,,,,,,,,,,,,,,,,,,,,,,,,231.6949,232.7598,l,1,0.394,,0.394,1,232.76,233.2597,,,,,,42,FEM,NOWORD,DIS,150,haje,,el,,233.2598,233.2599,-0.036111149,-0.419444426,0,0,0,,0,110,110,41,1,nave,,,,
,,,,,,5f3b3d16d2664625fcfa73aa,676192165fb32c2e1fb7aee6,67d1f4222cd749549bd47199,2025-03-12_22h20.03.544,Tarea de decisión léxica,2024.2.5,Win32,60.24096386,,,,,,,,,,,,,,,,,,,,,,,,233.2611,234.2931,l,1,0.3615,,0.3615,1,234.2931,234.7931,,,,,,142,FEM,NOWORD,DIS,150,sina,,el,,234.7932,234.7933,-0.036111149,-0.419444426,0,0,0,,0,111,111,141,1,cruz,,,,
,,,,,,5f3b3d16d2664625fcfa73aa,676192165fb32c2e1fb7aee6,67d1f4222cd749549bd47199,2025-03-12_22h20.03.544,Tarea de decisión léxica,2024.2.5,Win32,60.24096386,,,,,,,,,,,,,,,,,,,,,,,,234.7944,235.8766,a,1,0.4052,,0.4052,1,235.8768,236.3765,,,,,,123,FEM,WORD,AGR,150,flor,,la,,236.3778,236.3788,-0.036111149,-0.419444426,0,0,0,,0,112,112,122,1,maba,,,,
,,,,,,5f3b3d16d2664625fcfa73aa,676192165fb32c2e1fb7aee6,67d1f4222cd749549bd47199,2025-03-12_22h20.03.544,Tarea de decisión léxica,2024.2.5,Win32,60.24096386,,,,,,,,,,,,,,,,,,,,,,,,236.3799,237.6599,l,1,0.6049,,0.6049,1,237.6601,238.1599,,,,,,240,MAS,NOWORD,AGR,150,poño,,el,,238.16,238.1601,-0.036111149,-0.419444426,0,0,0,,0,113,113,239,1,mozo,,,,
,,,,,,5f3b3d16d2664625fcfa73aa,676192165fb32c2e1fb7aee6,67d1f4222cd749549bd47199,2025-03-12_22h20.03.544,Tarea de decisión léxica,2024.2.5,Win32,60.24096386,,,,,,,,,,,,,,,,,,,,,,,,238.1622,239.2932,a,1,0.451,,0.451,1,239.2934,239.7931,,,,,,329,MAS,WORD,DIS,150,hueso,,la,,239.7932,239.7934,-0.036111149,-0.419444426,0,0,0,,0,114,114,328,1,nueno,,,,
,,,,,,5f3b3d16d2664625fcfa73aa,676192165fb32c2e1fb7aee6,67d1f4222cd749549bd47199,2025-03-12_22h20.03.544,Tarea de decisión léxica,2024.2.5,Win32,60.24096386,,,,,,,,,,,,,,,,,,,,,,,,239.795,240.9266,l,1,0.462,,0.462,1,240.9266,241.4266,,,,,,322,MAS,NOWORD,DIS,150,rarco,,la,,241.4267,241.4267,-0.036111149,-0.419444426,0,0,0,,0,115,115,321,1,banco,,,,
,,,,,,5f3b3d16d2664625fcfa73aa,676192165fb32c2e1fb7aee6,67d1f4222cd749549bd47199,2025-03-12_22h20.03.544,Tarea de decisión léxica,2024.2.5,Win32,60.24096386,,,,,,,,,,,,,,,,,,,,,,,,241.4284,242.6763,a,1,0.5663,,0.5663,1,242.6764,243.1765,,,,,,323,FEM,WORD,AGR,150,cinta,,la,,243.1766,243.1767,-0.036111149,-0.419444426,0,0,0,,0,116,116,322,1,certa,,,,
,,,,,,5f3b3d16d2664625fcfa73aa,676192165fb32c2e1fb7aee6,67d1f4222cd749549bd47199,2025-03-12_22h20.03.544,Tarea de decisión léxica,2024.2.5,Win32,60.24096386,,,,,,,,,,,,,,,,,,,,,,,,243.1782,244.3433,a,1,0.4836,,0.4836,1,244.3434,244.843,,,,,,395,FEM,WORD,AGR,150,caída,,la,,244.8445,244.8455,-0.036111149,-0.419444426,0,0,0,,0,117,117,394,1,paeda,,,,
,,,,,,5f3b3d16d2664625fcfa73aa,676192165fb32c2e1fb7aee6,67d1f4222cd749549bd47199,2025-03-12_22h20.03.544,Tarea de decisión léxica,2024.2.5,Win32,60.24096386,,,,,,,,,,,,,,,,,,,,,,,,244.8464,245.993,l,1,0.4674,,0.4674,1,245.9932,246.4932,,,,,,250,FEM,NOWORD,DIS,150,plane,,el,,246.4933,246.4935,-0.036111149,-0.419444426,0,0,0,,0,118,118,249,1,clase,,,,
,,,,,,5f3b3d16d2664625fcfa73aa,676192165fb32c2e1fb7aee6,67d1f4222cd749549bd47199,2025-03-12_22h20.03.544,Tarea de decisión léxica,2024.2.5,Win32,60.24096386,,,,,,,,,,,,,,,,,,,,,,,,246.4949,247.7265,a,1,0.551,,0.551,1,247.7266,248.2265,,,,,,405,FEM,WORD,DIS,150,barra,,el,,248.2266,248.2267,-0.036111149,-0.419444426,0,0,0,,0,119,119,404,1,rarra,,,,
,,,,,,5f3b3d16d2664625fcfa73aa,676192165fb32c2e1fb7aee6,67d1f4222cd749549bd47199,2025-03-12_22h20.03.544,Tarea de decisión léxica,2024.2.5,Win32,60.24096386,,,,,,,,,,,,,,,,,,,,,,,,248.2281,249.3434,a,1,0.436,,0.436,1,249.3434,249.8433,,,,,,471,FEM,WORD,AGR,150,grasa,,la,,249.8433,249.8434,-0.036111149,-0.419444426,0,0,0,,0,120,120,470,1,prana,,,,
,,,,,,5f3b3d16d2664625fcfa73aa,676192165fb32c2e1fb7aee6,67d1f4222cd749549bd47199,2025-03-12_22h20.03.544,Tarea de decisión léxica,2024.2.5,Win32,60.24096386,,,,,,,,,,,,,,,,,,,,,,,,249.8446,250.9929,l,1,0.4742,,0.4742,1,250.993,251.4933,,,,,,182,FEM,NOWORD,DIS,150,teda,,el,,251.4933,251.4936,-0.036111149,-0.419444426,0,0,0,,0,121,121,181,1,seda,,,,
,,,,,,5f3b3d16d2664625fcfa73aa,676192165fb32c2e1fb7aee6,67d1f4222cd749549bd47199,2025-03-12_22h20.03.544,Tarea de decisión léxica,2024.2.5,Win32,60.24096386,,,,,,,,,,,,,,,,,,,,,,,,251.4949,252.71,l,1,0.5364,,0.5364,1,252.7101,253.2098,,,,,,414,FEM,NOWORD,DIS,150,bieda,,el,,253.2113,253.2121,-0.036111149,-0.419444426,0,0,0,,0,122,122,413,1,rueda,,,,
,,,,,,5f3b3d16d2664625fcfa73aa,676192165fb32c2e1fb7aee6,67d1f4222cd749549bd47199,2025-03-12_22h20.03.544,Tarea de decisión léxica,2024.2.5,Win32,60.24096386,,,,,,,,,,,,,,,,,,,,,,,,253.2132,254.3097,l,1,0.4266,,0.4266,1,254.3099,254.8096,,,,,,410,MAS,NOWORD,DIS,150,pafro,,la,,254.8098,254.8099,-0.036111149,-0.419444426,0,0,0,,0,123,123,409,1,carro,,,,
,,,,,,5f3b3d16d2664625fcfa73aa,676192165fb32c2e1fb7aee6,67d1f4222cd749549bd47199,2025-03-12_22h20.03.544,Tarea de decisión léxica,2024.2.5,Win32,60.24096386,,,,,,,,,,,,,,,,,,,,,,,,254.8114,255.8597,a,1,0.3685,,0.3685,1,255.8598,256.3599,,,,,,175,FEM,WORD,AGR,150,goma,,la,,256.3601,256.3601,-0.036111149,-0.419444426,0,0,0,,0,124,124,174,1,hosa,,,,
,,,,,,5f3b3d16d2664625fcfa73aa,676192165fb32c2e1fb7aee6,67d1f4222cd749549bd47199,2025-03-12_22h20.03.544,Tarea de decisión léxica,2024.2.5,Win32,60.24096386,,,,,,,,,,,,,,,,,,,,,,,,256.3617,257.4432,a,1,0.403,,0.403,1,257.4434,257.9433,,,,,,171,MAS,WORD,AGR,150,hilo,,el,,257.9433,257.9436,-0.036111149,-0.419444426,0,0,0,,0,125,125,170,1,niro,,,,
,,,,,,5f3b3d16d2664625fcfa73aa,676192165fb32c2e1fb7aee6,67d1f4222cd749549bd47199,2025-03-12_22h20.03.544,Tarea de decisión léxica,2024.2.5,Win32,60.24096386,,,,,,,,,,,,,,,,,,,,,,,,257.9447,259.1434,l,1,0.5198,,0.5198,1,259.1434,259.643,,,,,,244,MAS,NOWORD,AGR,150,asamo,,el,,259.6432,259.6433,-0.036111149,-0.419444426,0,0,0,,0,126,126,243,1,amigo,,,,
,,,,,,5f3b3d16d2664625fcfa73aa,676192165fb32c2e1fb7aee6,67d1f4222cd749549bd47199,2025-03-12_22h20.03.544,Tarea de decisión léxica,2024.2.5,Win32,60.24096386,,,,,,,,,,,,,,,,,,,,,,,,259.6447,261.0098,l,1,0.6838,,0.6838,1,261.0099,261.5097,,,,,,228,MAS,NOWORD,AGR,150,laro,,el,,261.5111,261.5121,-0.036111149,-0.419444426,0,0,0,,0,127,127,227,1,faro,,,,
,,,,,,5f3b3d16d2664625fcfa73aa,676192165fb32c2e1fb7aee6,67d1f4222cd749549bd47199,2025-03-12_22h20.03.544,Tarea de decisión léxica,2024.2.5,Win32,60.24096386,,,,,,,,,,,,,,,,,,,,,,,,261.5132,262.6265,a,1,0.4379,,0.4379,1,262.6267,263.1265,,,,,,183,FEM,WORD,AGR,150,raya,,la,,263.1267,263.1269,-0.036111149,-0.419444426,0,0,0,,0,128,128,182,1,raad,,,,
,,,,,,5f3b3d16d2664625fcfa73aa,676192165fb32c2e1fb7aee6,67d1f4222cd749549bd47199,2025-03-12_22h20.03.544,Tarea de decisión léxica,2024.2.5,Win32,60.24096386,,,,,,,,,,,,,,,,,,,,,,,,263.1282,264.1596,l,1,0.3552,,0.3552,1,264.1597,264.6596,,,,,,282,MAS,NOWORD,DIS,150,cauro,,la,,264.6597,264.6597,-0.036111149,-0.419444426,0,0,0,,0,129,129,281,1,cielo,,,,
,,,,,,5f3b3d16d2664625fcfa73aa,676192165fb32c2e1fb7aee6,67d1f4222cd749549bd47199,2025-03-12_22h20.03.544,Tarea de decisión léxica,2024.2.5,Win32,60.24096386,,,,,,,,,,,,,,,,,,,,,,,,264.6609,265.7597,l,1,0.4273,,0.4273,1,265.7598,266.2597,,,,,,350,MAS,NOWORD,DIS,150,cosir,,la,,266.2598,266.2603,-0.036111149,-0.419444426,0,0,0,,0,130,130,349,1,color,,,,
,,,,,,5f3b3d16d2664625fcfa73aa,676192165fb32c2e1fb7aee6,67d1f4222cd749549bd47199,2025-03-12_22h20.03.544,Tarea de decisión léxica,2024.2.5,Win32,60.24096386,,,,,,,,,,,,,,,,,,,,,,,,266.2613,267.3434,l,1,0.4065,,0.4065,1,267.3435,267.8439,,,,,,200,MAS,NOWORD,AGR,150,fano,,el,,267.8456,267.8467,-0.036111149,-0.419444426,0,0,0,,0,131,131,199,1,lazo,,,,
,,,,,,5f3b3d16d2664625fcfa73aa,676192165fb32c2e1fb7aee6,67d1f4222cd749549bd47199,2025-03-12_22h20.03.544,Tarea de decisión léxica,2024.2.5,Win32,60.24096386,,,,,,,,,,,,,,,,,,,,,,,,267.848,268.8933,l,1,0.367,,0.367,1,268.8934,269.3932,,,,,,50,FEM,NOWORD,DIS,150,ecat,,el,,269.3933,269.3935,-0.036111149,-0.419444426,0,0,0,,0,132,132,49,1,edad,,,,
,,,,,,5f3b3d16d2664625fcfa73aa,676192165fb32c2e1fb7aee6,67d1f4222cd749549bd47199,2025-03-12_22h20.03.544,Tarea de decisión léxica,2024.2.5,Win32,60.24096386,,,,,,,,,,,,,,,,,,,,,,,,269.395,270.5433,l,1,0.4674,,0.4674,1,270.5434,271.043,,,,,,118,MAS,NOWORD,DIS,150,movo,,la,,271.0431,271.0433,-0.036111149,-0.419444426,0,0,0,,0,133,133,117,1,palo,,,,
,,,,,,5f3b3d16d2664625fcfa73aa,676192165fb32c2e1fb7aee6,67d1f4222cd749549bd47199,2025-03-12_22h20.03.544,Tarea de decisión léxica,2024.2.5,Win32,60.24096386,,,,,,,,,,,,,,,,,,,,,,,,271.0447,272.2433,a,1,0.5247,,0.5247,1,272.2434,272.7433,,,,,,23,FEM,WORD,AGR,150,hija,,la,,272.7434,272.7435,-0.036111149,-0.419444426,0,0,0,,0,134,134,22,1,giva,,,,
,,,,,,5f3b3d16d2664625fcfa73aa,676192165fb32c2e1fb7aee6,67d1f4222cd749549bd47199,2025-03-12_22h20.03.544,Tarea de decisión léxica,2024.2.5,Win32,60.24096386,,,,,,,,,,,,,,,,,,,,,,,,272.745,273.8599,a,1,0.4356,,0.4356,1,273.86,274.36,,,,,,411,MAS,WORD,AGR,150,pollo,,el,,274.36,274.3602,-0.036111149,-0.419444426,0,0,0,,0,135,135,410,1,mobro,,,,
,,,,,,5f3b3d16d2664625fcfa73aa,676192165fb32c2e1fb7aee6,67d1f4222cd749549bd47199,2025-03-12_22h20.03.544,Tarea de decisión léxica,2024.2.5,Win32,60.24096386,,,,,,,,,,,,,,,,,,,,,,,,274.3616,275.4597,l,1,0.4175,,0.4175,1,275.4598,275.9596,,,,,,412,MAS,NOWORD,AGR,150,mobro,,el,,275.9611,275.9622,-0.036111149,-0.419444426,0,0,0,,0,136,136,411,1,pollo,,,,
,,,,,,5f3b3d16d2664625fcfa73aa,676192165fb32c2e1fb7aee6,67d1f4222cd749549bd47199,2025-03-12_22h20.03.544,Tarea de decisión léxica,2024.2.5,Win32,60.24096386,,,,,,,,,,,,,,,,,,,,,,,,275.9632,277.0762,a,1,0.4406,,0.4406,1,277.0764,277.5765,,,,,,7,MAS,WORD,AGR,150,hijo,,el,,277.5765,277.5767,-0.036111149,-0.419444426,0,0,0,,0,137,137,6,1,nivo,,,,
,,,,,,5f3b3d16d2664625fcfa73aa,676192165fb32c2e1fb7aee6,67d1f4222cd749549bd47199,2025-03-12_22h20.03.544,Tarea de decisión léxica,2024.2.5,Win32,60.24096386,,,,,,,,,,,,,,,,,,,,,,,,277.578,278.6596,l,1,0.4034,,0.4034,1,278.6598,279.1596,,,,,,278,MAS,NOWORD,DIS,150,vuemo,,la,,279.1597,279.1597,-0.036111149,-0.419444426,0,0,0,,0,138,138,277,1,fuego,,,,
,,,,,,5f3b3d16d2664625fcfa73aa,676192165fb32c2e1fb7aee6,67d1f4222cd749549bd47199,2025-03-12_22h20.03.544,Tarea de decisión léxica,2024.2.5,Win32,60.24096386,,,,,,,,,,,,,,,,,,,,,,,,279.1612,280.2263,l,1,0.3847,,0.3847,1,280.2263,280.7265,,,,,,342,MAS,NOWORD,DIS,150,daror,,la,,280.7266,280.7267,-0.036111149,-0.419444426,0,0,0,,0,139,139,341,1,valor,,,,
,,,,,,5f3b3d16d2664625fcfa73aa,676192165fb32c2e1fb7aee6,67d1f4222cd749549bd47199,2025-03-12_22h20.03.544,Tarea de decisión léxica,2024.2.5,Win32,60.24096386,,,,,,,,,,,,,,,,,,,,,,,,280.7281,281.7931,l,1,0.3885,,0.3885,1,281.7932,282.293,,,,,,252,MAS,NOWORD,AGR,150,refor,,el,,282.293,282.2933,-0.036111149,-0.419444426,0,0,0,,0,140,140,251,1,señor,,,,
,,,,,,5f3b3d16d2664625fcfa73aa,676192165fb32c2e1fb7aee6,67d1f4222cd749549bd47199,2025-03-12_22h20.03.544,Tarea de decisión léxica,2024.2.5,Win32,60.24096386,,,,,,,,,,,,,,,,,,,,,,,,282.2947,283.4932,l,1,0.5167,,0.5167,1,283.4934,283.9931,,,,,,404,FEM,NOWORD,AGR,150,grisa,,la,,283.9945,283.9955,-0.036111149,-0.419444426,0,0,0,,0,141,141,403,1,prima,,,,
,,,,,,5f3b3d16d2664625fcfa73aa,676192165fb32c2e1fb7aee6,67d1f4222cd749549bd47199,2025-03-12_22h20.03.544,Tarea de decisión léxica,2024.2.5,Win32,60.24096386,,,,,,,,,,,,,,,,,,,,,,,,283.9965,285.1429,l,1,0.4693,,0.4693,1,285.1431,285.643,,,,,,392,MAS,NOWORD,AGR,150,dievo,,el,,285.643,285.6432,-0.036111149,-0.419444426,0,0,0,,0,142,142,391,1,dueño,,,,
,,,,,,5f3b3d16d2664625fcfa73aa,676192165fb32c2e1fb7aee6,67d1f4222cd749549bd47199,2025-03-12_22h20.03.544,Tarea de decisión léxica,2024.2.5,Win32,60.24096386,,,,,,,,,,,,,,,,,,,,,,,,285.6444,286.7764,a,1,0.4529,,0.4529,1,286.7765,287.2766,,,,,,167,FEM,WORD,AGR,150,jefa,,la,,287.2766,287.2767,-0.036111149,-0.419444426,0,0,0,,0,143,143,166,1,zifa,,,,
,,,,,,5f3b3d16d2664625fcfa73aa,676192165fb32c2e1fb7aee6,67d1f4222cd749549bd47199,2025-03-12_22h20.03.544,Tarea de decisión léxica,2024.2.5,Win32,60.24096386,,,,,,,,,,,,,,,,,,,,,,,,287.2783,288.3098,l,1,0.3572,,0.3572,1,288.3099,288.8097,,,,,,68,FEM,NOWORD,AGR,150,gesa,,la,,288.8098,288.8099,-0.036111149,-0.419444426,0,0,0,,0,144,144,67,1,nena,,,,
,,,,,,5f3b3d16d2664625fcfa73aa,676192165fb32c2e1fb7aee6,67d1f4222cd749549bd47199,2025-03-12_22h20.03.544,Tarea de decisión léxica,2024.2.5,Win32,60.24096386,,,,,,,,,,,,,,,,,,,,,,,,288.8111,289.9763,a,1,0.493,,0.493,1,289.9765,290.4766,,,,,,351,MAS,WORD,AGR,150,vuelo,,el,,290.4766,290.4768,-0.036111149,-0.419444426,0,0,0,,0,145,145,350,1,duepo,,,,
,,,,,,5f3b3d16d2664625fcfa73aa,676192165fb32c2e1fb7aee6,67d1f4222cd749549bd47199,2025-03-12_22h20.03.544,Tarea de decisión léxica,2024.2.5,Win32,60.24096386,,,,,,,,,,,,,,,,,,,,,,,,290.4783,291.5932,a,1,0.4381,,0.4381,1,291.5933,292.0933,,,,,,315,FEM,WORD,AGR,150,reina,,la,,292.095,292.096,-0.036111149,-0.419444426,0,0,0,,0,146,146,314,1,riosa,,,,
,,,,,,5f3b3d16d2664625fcfa73aa,676192165fb32c2e1fb7aee6,67d1f4222cd749549bd47199,2025-03-12_22h20.03.544,Tarea de decisión léxica,2024.2.5,Win32,60.24096386,,,,,,,,,,,,,,,,,,,,,,,,292.0971,293.1599,l,1,0.3883,,0.3883,1,293.1601,293.66,,,,,,476,FEM,NOWORD,AGR,150,mucta,,la,,293.66,293.6604,-0.036111149,-0.419444426,0,0,0,,0,147,147,475,1,manta,,,,
,,,,,,5f3b3d16d2664625fcfa73aa,676192165fb32c2e1fb7aee6,67d1f4222cd749549bd47199,2025-03-12_22h20.03.544,Tarea de decisión léxica,2024.2.5,Win32,60.24096386,,,,,,,,,,,,,,,,,,,,,,,,293.6619,294.8432,l,1,0.5106,,0.5106,1,294.8433,295.3428,,,,,,246,FEM,NOWORD,DIS,150,pafle,,el,,295.343,295.3431,-0.036111149,-0.419444426,0,0,0,,0,148,148,245,1,madre,,,,
,,,,,,5f3b3d16d2664625fcfa73aa,676192165fb32c2e1fb7aee6,67d1f4222cd749549bd47199,2025-03-12_22h20.03.544,Tarea de decisión léxica,2024.2.5,Win32,60.24096386,,,,,,,,,,,,,,,,,,,,,,,,295.3441,296.4929,l,1,0.4705,,0.4705,1,296.493,296.9931,,,,,,280,FEM,NOWORD,AGR,150,grina,,la,,296.9931,296.9934,-0.036111149,-0.419444426,0,0,0,,0,149,149,279,1,prisa,,,,
,,,,,,5f3b3d16d2664625fcfa73aa,676192165fb32c2e1fb7aee6,67d1f4222cd749549bd47199,2025-03-12_22h20.03.544,Tarea de decisión léxica,2024.2.5,Win32,60.24096386,,,,,,,,,,,,,,,,,,,,,,,,296.9946,298.0933,l,0,0.4228,,0.4228,0,298.0945,298.5935,,,,,,453,FEM,WORD,DIS,150,mafia,,el,,298.5936,298.5938,-0.036111149,-0.419444426,0,0,0,,0,150,150,452,1,pafia,,,,
,,,,,,5f3b3d16d2664625fcfa73aa,676192165fb32c2e1fb7aee6,67d1f4222cd749549bd47199,2025-03-12_22h20.03.544,Tarea de decisión léxica,2024.2.5,Win32,60.24096386,,,,,,,,,,,,,,,,,,,,,,,,298.5952,299.8264,a,1,0.5597,,0.5597,1,299.8277,300.3264,,,,,,121,MAS,WORD,DIS,150,hoyo,,la,,300.3281,300.329,-0.036111149,-0.419444426,0,0,0,,0,151,151,120,1,bomo,,,,
,,,,,,5f3b3d16d2664625fcfa73aa,676192165fb32c2e1fb7aee6,67d1f4222cd749549bd47199,2025-03-12_22h20.03.544,Tarea de decisión léxica,2024.2.5,Win32,60.24096386,,,,,,,,,,,,,,,,,,,,,,,,300.3303,301.5938,l,1,0.5957,,0.5957,1,301.5939,302.0933,,,,,,80,FEM,NOWORD,AGR,150,ciel,,la,,302.0934,302.0936,-0.036111149,-0.419444426,0,0,0,,0,152,152,79,1,piel,,,,
,,,,,,5f3b3d16d2664625fcfa73aa,676192165fb32c2e1fb7aee6,67d1f4222cd749549bd47199,2025-03-12_22h20.03.544,Tarea de decisión léxica,2024.2.5,Win32,60.24096386,,,,,,,,,,,,,,,,,,,,,,,,302.0951,303.2263,l,1,0.46,,0.46,1,303.2264,303.7263,,,,,,180,MAS,NOWORD,AGR,150,sono,,el,,303.7264,303.7265,-0.036111149,-0.419444426,0,0,0,,0,153,153,179,1,toro,,,,
,,,,,,5f3b3d16d2664625fcfa73aa,676192165fb32c2e1fb7aee6,67d1f4222cd749549bd47199,2025-03-12_22h20.03.544,Tarea de decisión léxica,2024.2.5,Win32,60.24096386,,,,,,,,,,,,,,,,,,,,,,,,303.7277,304.8263,a,1,0.4251,,0.4251,1,304.8264,305.3264,,,,,,373,FEM,WORD,DIS,150,pizza,,el,,305.3265,305.3266,-0.036111149,-0.419444426,0,0,0,,0,154,154,372,1,pogza,,,,
,,,,,,5f3b3d16d2664625fcfa73aa,676192165fb32c2e1fb7aee6,67d1f4222cd749549bd47199,2025-03-12_22h20.03.544,Tarea de decisión léxica,2024.2.5,Win32,60.24096386,,,,,,,,,,,,,,,,,,,,,,,,305.3279,306.4599,l,1,0.4509,,0.4509,1,306.4599,306.9601,,,,,,464,FEM,NOWORD,AGR,150,matla,,la,,306.9616,306.9626,-0.036111149,-0.419444426,0,0,0,,0,155,155,463,1,cabra,,,,
,,,,,,5f3b3d16d2664625fcfa73aa,676192165fb32c2e1fb7aee6,67d1f4222cd749549bd47199,2025-03-12_22h20.03.544,Tarea de decisión léxica,2024.2.5,Win32,60.24096386,,,,,,,,,,,,,,,,,,,,,,,,306.9637,308.0096,l,1,0.3772,,0.3772,1,308.0098,308.5098,,,,,,458,MAS,NOWORD,DIS,150,glaco,,la,,308.5099,308.5101,-0.036111149,-0.419444426,0,0,0,,0,156,156,457,1,plato,,,,
,,,,,,5f3b3d16d2664625fcfa73aa,676192165fb32c2e1fb7aee6,67d1f4222cd749549bd47199,2025-03-12_22h20.03.544,Tarea de decisión léxica,2024.2.5,Win32,60.24096386,,,,,,,,,,,,,,,,,,,,,,,,308.5116,309.6098,a,1,0.4184,,0.4184,1,309.6099,310.1096,,,,,,99,MAS,WORD,AGR,150,lobo,,el,,310.1097,310.1098,-0.036111149,-0.419444426,0,0,0,,0,157,157,98,1,soro,,,,
,,,,,,5f3b3d16d2664625fcfa73aa,676192165fb32c2e1fb7aee6,67d1f4222cd749549bd47199,2025-03-12_22h20.03.544,Tarea de decisión léxica,2024.2.5,Win32,60.24096386,,,,,,,,,,,,,,,,,,,,,,,,310.1112,311.4101,a,1,0.6177,,0.6177,1,311.4103,311.91,,,,,,475,FEM,WORD,AGR,150,manta,,la,,311.9101,311.9103,-0.036111149,-0.419444426,0,0,0,,0,158,158,474,1,mucta,,,,
,,,,,,5f3b3d16d2664625fcfa73aa,676192165fb32c2e1fb7aee6,67d1f4222cd749549bd47199,2025-03-12_22h20.03.544,Tarea de decisión léxica,2024.2.5,Win32,60.24096386,,,,,,,,,,,,,,,,,,,,,,,,311.9118,312.9261,a,1,0.3414,,0.3414,1,312.9263,313.4264,,,,,,333,FEM,WORD,DIS,150,tarea,,el,,313.4265,313.4266,-0.036111149,-0.419444426,0,0,0,,0,159,159,332,1,dalea,,,,
,,,,,,5f3b3d16d2664625fcfa73aa,676192165fb32c2e1fb7aee6,67d1f4222cd749549bd47199,2025-03-12_22h20.03.544,Tarea de decisión léxica,2024.2.5,Win32,60.24096386,,,,,,,,,,,,,,,,,,,,,,,,313.4282,314.6595,a,1,0.5572,,0.5572,1,314.6596,315.16,,,,,,213,FEM,WORD,DIS,150,rama,,el,,315.1618,359.6431,-0.036111149,-0.419444426,0,0,0,space,0,160,160,212,1,bana,44.4587,,,
,,,,,,5f3b3d16d2664625fcfa73aa,676192165fb32c2e1fb7aee6,67d1f4222cd749549bd47199,2025-03-12_22h20.03.544,Tarea de decisión léxica,2024.2.5,Win32,60.24096386,,,,,,,,,,,,,,,,,,,,,,,,359.6445,360.6931,a,1,0.371,,0.371,1,360.6931,361.193,,,,,,197,MAS,WORD,DIS,150,bate,,la,,361.193,361.1931,-0.036111149,-0.419444426,0,0,0,,0,161,161,196,1,dade,,,,
,,,,,,5f3b3d16d2664625fcfa73aa,676192165fb32c2e1fb7aee6,67d1f4222cd749549bd47199,2025-03-12_22h20.03.544,Tarea de decisión léxica,2024.2.5,Win32,60.24096386,,,,,,,,,,,,,,,,,,,,,,,,361.1946,362.193,a,1,0.3172,,0.3172,1,362.1931,362.693,,,,,,285,MAS,WORD,DIS,150,error,,la,,362.6931,362.6932,-0.036111149,-0.419444426,0,0,0,,0,162,162,284,1,echor,,,,
,,,,,,5f3b3d16d2664625fcfa73aa,676192165fb32c2e1fb7aee6,67d1f4222cd749549bd47199,2025-03-12_22h20.03.544,Tarea de decisión léxica,2024.2.5,Win32,60.24096386,,,,,,,,,,,,,,,,,,,,,,,,362.6947,363.7762,a,1,0.4118,,0.4118,1,363.7763,364.2762,,,,,,201,FEM,WORD,DIS,150,cuna,,el,,364.2763,364.2765,-0.036111149,-0.419444426,0,0,0,,0,163,163,200,1,cusa,,,,
,,,,,,5f3b3d16d2664625fcfa73aa,676192165fb32c2e1fb7aee6,67d1f4222cd749549bd47199,2025-03-12_22h20.03.544,Tarea de decisión léxica,2024.2.5,Win32,60.24096386,,,,,,,,,,,,,,,,,,,,,,,,364.2778,365.3101,l,1,0.3629,,0.3629,1,365.3103,365.8096,,,,,,358,FEM,NOWORD,DIS,150,gruba,,el,,365.8097,365.8097,-0.036111149,-0.419444426,0,0,0,,0,164,164,357,1,bruja,,,,
,,,,,,5f3b3d16d2664625fcfa73aa,676192165fb32c2e1fb7aee6,67d1f4222cd749549bd47199,2025-03-12_22h20.03.544,Tarea de decisión léxica,2024.2.5,Win32,60.24096386,,,,,,,,,,,,,,,,,,,,,,,,365.8112,366.9931,a,1,0.5053,,0.5053,1,366.9932,367.4932,,,,,,219,FEM,WORD,AGR,150,pipa,,la,,367.4949,367.4966,-0.036111149,-0.419444426,0,0,0,,0,165,165,218,1,miva,,,,
,,,,,,5f3b3d16d2664625fcfa73aa,676192165fb32c2e1fb7aee6,67d1f4222cd749549bd47199,2025-03-12_22h20.03.544,Tarea de decisión léxica,2024.2.5,Win32,60.24096386,,,,,,,,,,,,,,,,,,,,,,,,367.4978,368.6595,a,1,0.4956,,0.4956,1,368.6597,369.1598,,,,,,253,MAS,WORD,DIS,150,chico,,la,,369.1599,369.16,-0.036111149,-0.419444426,0,0,0,,0,166,166,252,1,trido,,,,
,,,,,,5f3b3d16d2664625fcfa73aa,676192165fb32c2e1fb7aee6,67d1f4222cd749549bd47199,2025-03-12_22h20.03.544,Tarea de decisión léxica,2024.2.5,Win32,60.24096386,,,,,,,,,,,,,,,,,,,,,,,,369.1617,370.2098,a,1,0.3732,,0.3732,1,370.2099,370.7094,,,,,,21,MAS,WORD,DIS,150,plan,,la,,370.7094,370.7095,-0.036111149,-0.419444426,0,0,0,,0,167,167,20,1,blan,,,,
,,,,,,5f3b3d16d2664625fcfa73aa,676192165fb32c2e1fb7aee6,67d1f4222cd749549bd47199,2025-03-12_22h20.03.544,Tarea de decisión léxica,2024.2.5,Win32,60.24096386,,,,,,,,,,,,,,,,,,,,,,,,370.7108,371.8262,l,1,0.4393,,0.4393,1,371.8263,372.3264,,,,,,416,FEM,NOWORD,AGR,150,juira,,la,,372.3265,372.3266,-0.036111149,-0.419444426,0,0,0,,0,168,168,415,1,jaula,,,,
,,,,,,5f3b3d16d2664625fcfa73aa,676192165fb32c2e1fb7aee6,67d1f4222cd749549bd47199,2025-03-12_22h20.03.544,Tarea de decisión léxica,2024.2.5,Win32,60.24096386,,,,,,,,,,,,,,,,,,,,,,,,372.3282,373.41,a,1,0.4054,,0.4054,1,373.4101,373.9098,,,,,,281,MAS,WORD,DIS,150,cielo,,la,,373.9099,373.91,-0.036111149,-0.419444426,0,0,0,,0,169,169,280,1,cauro,,,,
,,,,,,5f3b3d16d2664625fcfa73aa,676192165fb32c2e1fb7aee6,67d1f4222cd749549bd47199,2025-03-12_22h20.03.544,Tarea de decisión léxica,2024.2.5,Win32,60.24096386,,,,,,,,,,,,,,,,,,,,,,,,373.9116,374.9762,a,1,0.3896,,0.3896,1,374.9763,375.4764,,,,,,417,FEM,WORD,DIS,150,barba,,el,,375.4784,375.4797,-0.036111149,-0.419444426,0,0,0,,0,170,170,416,1,banja,,,,
,,,,,,5f3b3d16d2664625fcfa73aa,676192165fb32c2e1fb7aee6,67d1f4222cd749549bd47199,2025-03-12_22h20.03.544,Tarea de decisión léxica,2024.2.5,Win32,60.24096386,,,,,,,,,,,,,,,,,,,,,,,,375.481,376.4931,a,1,0.3343,,0.3343,1,376.4933,376.9929,,,,,,369,MAS,WORD,DIS,150,ruido,,la,,376.9931,376.9932,-0.036111149,-0.419444426,0,0,0,,0,171,171,368,1,rioco,,,,
,,,,,,5f3b3d16d2664625fcfa73aa,676192165fb32c2e1fb7aee6,67d1f4222cd749549bd47199,2025-03-12_22h20.03.544,Tarea de decisión léxica,2024.2.5,Win32,60.24096386,,,,,,,,,,,,,,,,,,,,,,,,376.9947,378.076,a,1,0.4025,,0.4025,1,378.0762,378.5761,,,,,,273,FEM,WORD,DIS,150,broma,,el,,378.5762,378.5763,-0.036111149,-0.419444426,0,0,0,,0,172,172,272,1,frosa,,,,
,,,,,,5f3b3d16d2664625fcfa73aa,676192165fb32c2e1fb7aee6,67d1f4222cd749549bd47199,2025-03-12_22h20.03.544,Tarea de decisión léxica,2024.2.5,Win32,60.24096386,,,,,,,,,,,,,,,,,,,,,,,,378.5775,379.7261,l,1,0.4753,,0.4753,1,379.7262,380.2263,,,,,,34,FEM,NOWORD,DIS,150,loda,,el,,380.2263,380.2264,-0.036111149,-0.419444426,0,0,0,,0,173,173,33,1,boca,,,,
,,,,,,5f3b3d16d2664625fcfa73aa,676192165fb32c2e1fb7aee6,67d1f4222cd749549bd47199,2025-03-12_22h20.03.544,Tarea de decisión léxica,2024.2.5,Win32,60.24096386,,,,,,,,,,,,,,,,,,,,,,,,380.2276,381.3099,l,1,0.4042,,0.4042,1,381.31,381.8097,,,,,,172,MAS,NOWORD,AGR,150,niro,,el,,381.8097,381.8099,-0.036111149,-0.419444426,0,0,0,,0,174,174,171,1,hilo,,,,
,,,,,,5f3b3d16d2664625fcfa73aa,676192165fb32c2e1fb7aee6,67d1f4222cd749549bd47199,2025-03-12_22h20.03.544,Tarea de decisión léxica,2024.2.5,Win32,60.24096386,,,,,,,,,,,,,,,,,,,,,,,,381.8114,383.0763,l,1,0.5839,,0.5839,1,383.0765,383.5764,,,,,,110,MAS,NOWORD,DIS,150,suno,,la,,383.5782,383.5794,-0.036111149,-0.419444426,0,0,0,,0,175,175,109,1,rayo,,,,
,,,,,,5f3b3d16d2664625fcfa73aa,676192165fb32c2e1fb7aee6,67d1f4222cd749549bd47199,2025-03-12_22h20.03.544,Tarea de decisión léxica,2024.2.5,Win32,60.24096386,,,,,,,,,,,,,,,,,,,,,,,,383.5807,384.693,a,1,0.4401,,0.4401,1,384.6932,385.1929,,,,,,91,FEM,WORD,AGR,150,taza,,la,,385.193,385.1932,-0.036111149,-0.419444426,0,0,0,,0,176,176,90,1,sava,,,,
,,,,,,5f3b3d16d2664625fcfa73aa,676192165fb32c2e1fb7aee6,67d1f4222cd749549bd47199,2025-03-12_22h20.03.544,Tarea de decisión léxica,2024.2.5,Win32,60.24096386,,,,,,,,,,,,,,,,,,,,,,,,385.1946,386.4262,l,1,0.5501,,0.5501,1,386.4263,386.9262,,,,,,36,MAS,NOWORD,AGR,150,meno,,el,,386.9263,386.9265,-0.036111149,-0.419444426,0,0,0,,0,177,177,35,1,pelo,,,,
,,,,,,5f3b3d16d2664625fcfa73aa,676192165fb32c2e1fb7aee6,67d1f4222cd749549bd47199,2025-03-12_22h20.03.544,Tarea de decisión léxica,2024.2.5,Win32,60.24096386,,,,,,,,,,,,,,,,,,,,,,,,386.9279,388.076,l,1,0.4671,,0.4671,1,388.0761,388.5761,,,,,,450,FEM,NOWORD,DIS,150,crusa,,el,,388.5761,388.5763,-0.036111149,-0.419444426,0,0,0,,0,178,178,449,1,pluma,,,,
,,,,,,5f3b3d16d2664625fcfa73aa,676192165fb32c2e1fb7aee6,67d1f4222cd749549bd47199,2025-03-12_22h20.03.544,Tarea de decisión léxica,2024.2.5,Win32,60.24096386,,,,,,,,,,,,,,,,,,,,,,,,388.5774,389.743,a,1,0.4911,,0.4911,1,389.7431,390.2429,,,,,,115,FEM,WORD,AGR,150,pata,,la,,390.2443,390.2456,-0.036111149,-0.419444426,0,0,0,,0,179,179,114,1,haca,,,,
,,,,,,5f3b3d16d2664625fcfa73aa,676192165fb32c2e1fb7aee6,67d1f4222cd749549bd47199,2025-03-12_22h20.03.544,Tarea de decisión léxica,2024.2.5,Win32,60.24096386,,,,,,,,,,,,,,,,,,,,,,,,390.2468,391.3097,l,1,0.3949,,0.3949,1,391.3099,391.8096,,,,,,128,MAS,NOWORD,AGR,150,itio,,el,,391.8096,391.8098,-0.036111149,-0.419444426,0,0,0,,0,180,180,127,1,pico,,,,
,,,,,,5f3b3d16d2664625fcfa73aa,676192165fb32c2e1fb7aee6,67d1f4222cd749549bd47199,2025-03-12_22h20.03.544,Tarea de decisión léxica,2024.2.5,Win32,60.24096386,,,,,,,,,,,,,,,,,,,,,,,,391.8115,393.061,l,1,0.5798,,0.5798,1,393.0612,393.5596,,,,,,136,MAS,NOWORD,AGR,150,geso,,el,,393.5596,393.5597,-0.036111149,-0.419444426,0,0,0,,0,181,181,135,1,tubo,,,,
,,,,,,5f3b3d16d2664625fcfa73aa,676192165fb32c2e1fb7aee6,67d1f4222cd749549bd47199,2025-03-12_22h20.03.544,Tarea de decisión léxica,2024.2.5,Win32,60.24096386,,,,,,,,,,,,,,,,,,,,,,,,393.5612,394.7599,a,1,0.5245,,0.5245,1,394.76,395.2595,,,,,,251,MAS,WORD,AGR,150,señor,,el,,395.2595,395.2597,-0.036111149,-0.419444426,0,0,0,,0,182,182,250,1,refor,,,,
,,,,,,5f3b3d16d2664625fcfa73aa,676192165fb32c2e1fb7aee6,67d1f4222cd749549bd47199,2025-03-12_22h20.03.544,Tarea de decisión léxica,2024.2.5,Win32,60.24096386,,,,,,,,,,,,,,,,,,,,,,,,395.2612,396.4597,a,1,0.519,,0.519,1,396.4597,396.9596,,,,,,403,FEM,WORD,AGR,150,prima,,la,,396.9597,396.96,-0.036111149,-0.419444426,0,0,0,,0,183,183,402,1,grisa,,,,
,,,,,,5f3b3d16d2664625fcfa73aa,676192165fb32c2e1fb7aee6,67d1f4222cd749549bd47199,2025-03-12_22h20.03.544,Tarea de decisión léxica,2024.2.5,Win32,60.24096386,,,,,,,,,,,,,,,,,,,,,,,,396.9611,398.1596,l,1,0.5177,,0.5177,1,398.1597,398.6597,,,,,,40,MAS,NOWORD,AGR,150,redo,,el,,398.6617,398.6634,-0.036111149,-0.419444426,0,0,0,,0,184,184,39,1,voto,,,,
,,,,,,5f3b3d16d2664625fcfa73aa,676192165fb32c2e1fb7aee6,67d1f4222cd749549bd47199,2025-03-12_22h20.03.544,Tarea de decisión léxica,2024.2.5,Win32,60.24096386,,,,,,,,,,,,,,,,,,,,,,,,398.6646,399.9263,a,1,0.5837,,0.5837,1,399.9266,400.4264,,,,,,53,FEM,WORD,DIS,150,boda,,el,,400.4265,400.4267,-0.036111149,-0.419444426,0,0,0,,0,185,185,52,1,rora,,,,
,,,,,,5f3b3d16d2664625fcfa73aa,676192165fb32c2e1fb7aee6,67d1f4222cd749549bd47199,2025-03-12_22h20.03.544,Tarea de decisión léxica,2024.2.5,Win32,60.24096386,,,,,,,,,,,,,,,,,,,,,,,,400.428,401.5428,l,1,0.4434,,0.4434,1,401.5429,402.0432,,,,,,378,MAS,NOWORD,DIS,150,gaulo,,la,,402.0433,402.0433,-0.036111149,-0.419444426,0,0,0,,0,186,186,377,1,hielo,,,,
,,,,,,5f3b3d16d2664625fcfa73aa,676192165fb32c2e1fb7aee6,67d1f4222cd749549bd47199,2025-03-12_22h20.03.544,Tarea de decisión léxica,2024.2.5,Win32,60.24096386,,,,,,,,,,,,,,,,,,,,,,,,402.0448,403.0765,l,1,0.353,,0.353,1,403.0766,403.5764,,,,,,28,MAS,NOWORD,AGR,150,ravo,,el,,403.5764,403.5766,-0.036111149,-0.419444426,0,0,0,,0,187,187,27,1,baño,,,,
,,,,,,5f3b3d16d2664625fcfa73aa,676192165fb32c2e1fb7aee6,67d1f4222cd749549bd47199,2025-03-12_22h20.03.544,Tarea de decisión léxica,2024.2.5,Win32,60.24096386,,,,,,,,,,,,,,,,,,,,,,,,403.578,404.7261,a,1,0.4677,,0.4677,1,404.7262,405.2262,,,,,,319,MAS,WORD,AGR,150,suelo,,el,,405.2262,405.2263,-0.036111149,-0.419444426,0,0,0,,0,188,188,318,1,tuero,,,,
,,,,,,5f3b3d16d2664625fcfa73aa,676192165fb32c2e1fb7aee6,67d1f4222cd749549bd47199,2025-03-12_22h20.03.544,Tarea de decisión léxica,2024.2.5,Win32,60.24096386,,,,,,,,,,,,,,,,,,,,,,,,405.2274,406.3929,l,1,0.4857,,0.4857,1,406.393,406.8931,,,,,,192,FEM,NOWORD,AGR,150,bila,,la,,406.8947,406.8958,-0.036111149,-0.419444426,0,0,0,,0,189,189,191,1,pila,,,,
,,,,,,5f3b3d16d2664625fcfa73aa,676192165fb32c2e1fb7aee6,67d1f4222cd749549bd47199,2025-03-12_22h20.03.544,Tarea de decisión léxica,2024.2.5,Win32,60.24096386,,,,,,,,,,,,,,,,,,,,,,,,406.8969,407.9098,l,1,0.3344,,0.3344,1,407.91,408.41,,,,,,388,FEM,NOWORD,AGR,150,bresa,,la,,408.4101,408.4103,-0.036111149,-0.419444426,0,0,0,,0,190,190,387,1,crema,,,,
,,,,,,5f3b3d16d2664625fcfa73aa,676192165fb32c2e1fb7aee6,67d1f4222cd749549bd47199,2025-03-12_22h20.03.544,Tarea de decisión léxica,2024.2.5,Win32,60.24096386,,,,,,,,,,,,,,,,,,,,,,,,408.4117,409.5426,l,1,0.4566,,0.4566,1,409.5427,410.0427,,,,,,22,MAS,NOWORD,DIS,150,blan,,la,,410.0428,410.0429,-0.036111149,-0.419444426,0,0,0,,0,191,191,21,1,plan,,,,
,,,,,,5f3b3d16d2664625fcfa73aa,676192165fb32c2e1fb7aee6,67d1f4222cd749549bd47199,2025-03-12_22h20.03.544,Tarea de decisión léxica,2024.2.5,Win32,60.24096386,,,,,,,,,,,,,,,,,,,,,,,,410.0441,411.1931,a,1,0.4678,,0.4678,1,411.1932,411.6931,,,,,,129,MAS,WORD,DIS,150,oído,,la,,411.6931,411.6933,-0.036111149,-0.419444426,0,0,0,,0,192,192,128,1,pima,,,,
,,,,,,5f3b3d16d2664625fcfa73aa,676192165fb32c2e1fb7aee6,67d1f4222cd749549bd47199,2025-03-12_22h20.03.544,Tarea de decisión léxica,2024.2.5,Win32,60.24096386,,,,,,,,,,,,,,,,,,,,,,,,411.6947,412.8594,l,1,0.4836,,0.4836,1,412.8595,413.3593,,,,,,106,FEM,NOWORD,DIS,150,vina,,el,,413.3593,413.3595,-0.036111149,-0.419444426,0,0,0,,0,193,193,105,1,sopa,,,,
,,,,,,5f3b3d16d2664625fcfa73aa,676192165fb32c2e1fb7aee6,67d1f4222cd749549bd47199,2025-03-12_22h20.03.544,Tarea de decisión léxica,2024.2.5,Win32,60.24096386,,,,,,,,,,,,,,,,,,,,,,,,413.3607,414.4427,a,1,0.4034,,0.4034,1,414.4427,414.9427,,,,,,391,MAS,WORD,AGR,150,dueño,,el,,414.944,414.945,-0.036111149,-0.419444426,0,0,0,,0,194,194,390,1,dievo,,,,
,,,,,,5f3b3d16d2664625fcfa73aa,676192165fb32c2e1fb7aee6,67d1f4222cd749549bd47199,2025-03-12_22h20.03.544,Tarea de decisión léxica,2024.2.5,Win32,60.24096386,,,,,,,,,,,,,,,,,,,,,,,,414.9461,416.0762,l,1,0.452,,0.452,1,416.0763,416.576,,,,,,144,MAS,NOWORD,AGR,150,pezo,,el,,416.5761,416.5763,-0.036111149,-0.419444426,0,0,0,,0,195,195,143,1,pavo,,,,
,,,,,,5f3b3d16d2664625fcfa73aa,676192165fb32c2e1fb7aee6,67d1f4222cd749549bd47199,2025-03-12_22h20.03.544,Tarea de decisión léxica,2024.2.5,Win32,60.24096386,,,,,,,,,,,,,,,,,,,,,,,,416.5774,417.7597,a,1,0.5086,,0.5086,1,417.7597,418.2595,,,,,,195,FEM,WORD,AGR,150,tela,,la,,418.2596,418.2597,-0.036111149,-0.419444426,0,0,0,,0,196,196,194,1,sira,,,,
,,,,,,5f3b3d16d2664625fcfa73aa,676192165fb32c2e1fb7aee6,67d1f4222cd749549bd47199,2025-03-12_22h20.03.544,Tarea de decisión léxica,2024.2.5,Win32,60.24096386,,,,,,,,,,,,,,,,,,,,,,,,418.2612,419.2929,a,1,0.356,,0.356,1,419.293,419.7927,,,,,,445,MAS,WORD,DIS,150,actor,,la,,419.7928,419.7929,-0.036111149,-0.419444426,0,0,0,,0,197,197,444,1,ascor,,,,
,,,,,,5f3b3d16d2664625fcfa73aa,676192165fb32c2e1fb7aee6,67d1f4222cd749549bd47199,2025-03-12_22h20.03.544,Tarea de decisión léxica,2024.2.5,Win32,60.24096386,,,,,,,,,,,,,,,,,,,,,,,,419.7941,420.8595,a,1,0.3843,,0.3843,1,420.8597,421.3597,,,,,,207,MAS,WORD,AGR,150,kilo,,el,,421.3597,421.3598,-0.036111149,-0.419444426,0,0,0,,0,198,198,206,1,kedo,,,,
,,,,,,5f3b3d16d2664625fcfa73aa,676192165fb32c2e1fb7aee6,67d1f4222cd749549bd47199,2025-03-12_22h20.03.544,Tarea de decisión léxica,2024.2.5,Win32,60.24096386,,,,,,,,,,,,,,,,,,,,,,,,421.3614,422.7596,a,1,0.7236,,0.7236,1,422.7597,423.2593,,,,,,349,MAS,WORD,DIS,150,color,,la,,423.2608,423.2618,-0.036111149,-0.419444426,0,0,0,,0,199,199,348,1,cosir,,,,
,,,,,,5f3b3d16d2664625fcfa73aa,676192165fb32c2e1fb7aee6,67d1f4222cd749549bd47199,2025-03-12_22h20.03.544,Tarea de decisión léxica,2024.2.5,Win32,60.24096386,,,,,,,,,,,,,,,,,,,,,,,,423.2629,424.3764,l,1,0.434,,0.434,1,424.3765,424.8762,,,,,,76,MAS,NOWORD,AGR,150,ocer,,el,,424.8763,424.8764,-0.036111149,-0.419444426,0,0,0,,0,200,200,75,1,olor,,,,
,,,,,,5f3b3d16d2664625fcfa73aa,676192165fb32c2e1fb7aee6,67d1f4222cd749549bd47199,2025-03-12_22h20.03.544,Tarea de decisión léxica,2024.2.5,Win32,60.24096386,,,,,,,,,,,,,,,,,,,,,,,,424.8776,426.027,l,1,0.4799,,0.4799,1,426.0271,426.526,,,,,,70,FEM,NOWORD,DIS,150,ñola,,el,,426.5261,426.5261,-0.036111149,-0.419444426,0,0,0,,0,201,201,69,1,zona,,,,
,,,,,,5f3b3d16d2664625fcfa73aa,676192165fb32c2e1fb7aee6,67d1f4222cd749549bd47199,2025-03-12_22h20.03.544,Tarea de decisión léxica,2024.2.5,Win32,60.24096386,,,,,,,,,,,,,,,,,,,,,,,,426.5274,427.5601,l,1,0.363,,0.363,1,427.5602,428.0595,,,,,,272,FEM,NOWORD,AGR,150,refal,,la,,428.0599,428.0601,-0.036111149,-0.419444426,0,0,0,,0,202,202,271,1,señal,,,,
,,,,,,5f3b3d16d2664625fcfa73aa,676192165fb32c2e1fb7aee6,67d1f4222cd749549bd47199,2025-03-12_22h20.03.544,Tarea de decisión léxica,2024.2.5,Win32,60.24096386,,,,,,,,,,,,,,,,,,,,,,,,428.0613,429.1595,a,1,0.4265,,0.4265,1,429.1596,429.6595,,,,,,427,FEM,WORD,AGR,150,oreja,,la,,429.6609,429.6619,-0.036111149,-0.419444426,0,0,0,,0,203,203,426,1,oseva,,,,
,,,,,,5f3b3d16d2664625fcfa73aa,676192165fb32c2e1fb7aee6,67d1f4222cd749549bd47199,2025-03-12_22h20.03.544,Tarea de decisión léxica,2024.2.5,Win32,60.24096386,,,,,,,,,,,,,,,,,,,,,,,,429.663,430.8761,l,1,0.5455,,0.5455,1,430.8762,431.376,,,,,,312,MAS,NOWORD,AGR,150,nosor,,el,,431.3761,431.3762,-0.036111149,-0.419444426,0,0,0,,0,204,204,311,1,honor,,,,
,,,,,,5f3b3d16d2664625fcfa73aa,676192165fb32c2e1fb7aee6,67d1f4222cd749549bd47199,2025-03-12_22h20.03.544,Tarea de decisión léxica,2024.2.5,Win32,60.24096386,,,,,,,,,,,,,,,,,,,,,,,,431.3777,432.4094,a,1,0.355,,0.355,1,432.4096,432.9098,,,,,,317,FEM,WORD,DIS,150,playa,,el,,432.9098,432.9099,-0.036111149,-0.419444426,0,0,0,,0,205,205,316,1,plaad,,,,
,,,,,,5f3b3d16d2664625fcfa73aa,676192165fb32c2e1fb7aee6,67d1f4222cd749549bd47199,2025-03-12_22h20.03.544,Tarea de decisión léxica,2024.2.5,Win32,60.24096386,,,,,,,,,,,,,,,,,,,,,,,,432.9118,433.9603,l,1,0.3797,,0.3797,1,433.9604,434.4594,,,,,,178,MAS,NOWORD,DIS,150,bito,,la,,434.4594,434.4595,-0.036111149,-0.419444426,0,0,0,,0,206,206,177,1,reto,,,,
,,,,,,5f3b3d16d2664625fcfa73aa,676192165fb32c2e1fb7aee6,67d1f4222cd749549bd47199,2025-03-12_22h20.03.544,Tarea de decisión léxica,2024.2.5,Win32,60.24096386,,,,,,,,,,,,,,,,,,,,,,,,434.4608,435.5928,a,1,0.4503,,0.4503,1,435.5929,436.0928,,,,,,455,MAS,WORD,AGR,150,reino,,el,,436.0928,436.093,-0.036111149,-0.419444426,0,0,0,,0,207,207,454,1,riaso,,,,
,,,,,,5f3b3d16d2664625fcfa73aa,676192165fb32c2e1fb7aee6,67d1f4222cd749549bd47199,2025-03-12_22h20.03.544,Tarea de decisión léxica,2024.2.5,Win32,60.24096386,,,,,,,,,,,,,,,,,,,,,,,,436.0943,437.3593,l,1,0.5833,,0.5833,1,437.3595,437.8594,,,,,,24,FEM,NOWORD,AGR,150,giva,,la,,437.8609,437.8619,-0.036111149,-0.419444426,0,0,0,,0,208,208,23,1,hija,,,,
,,,,,,5f3b3d16d2664625fcfa73aa,676192165fb32c2e1fb7aee6,67d1f4222cd749549bd47199,2025-03-12_22h20.03.544,Tarea de decisión léxica,2024.2.5,Win32,60.24096386,,,,,,,,,,,,,,,,,,,,,,,,437.863,439.0761,l,1,0.5447,,0.5447,1,439.0762,439.5764,,,,,,188,MAS,NOWORD,AGR,150,suto,,el,,439.5765,439.5765,-0.036111149,-0.419444426,0,0,0,,0,209,209,187,1,mito,,,,
,,,,,,5f3b3d16d2664625fcfa73aa,676192165fb32c2e1fb7aee6,67d1f4222cd749549bd47199,2025-03-12_22h20.03.544,Tarea de decisión léxica,2024.2.5,Win32,60.24096386,,,,,,,,,,,,,,,,,,,,,,,,439.5782,440.6926,l,1,0.4451,,0.4451,1,440.6928,441.1927,,,,,,96,FEM,NOWORD,AGR,151,neda,,la,,441.1928,441.193,-0.036111149,-0.419444426,0,0,0,,0,210,210,95,1,moda,,,,
,,,,,,5f3b3d16d2664625fcfa73aa,676192165fb32c2e1fb7aee6,67d1f4222cd749549bd47199,2025-03-12_22h20.03.544,Tarea de decisión léxica,2024.2.5,Win32,60.24096386,,,,,,,,,,,,,,,,,,,,,,,,441.1941,442.2761,l,1,0.4001,,0.4001,1,442.2762,442.7764,,,,,,288,FEM,NOWORD,AGR,150,fosta,,la,,442.7764,442.7767,-0.036111149,-0.419444426,0,0,0,,0,211,211,287,1,lista,,,,
,,,,,,5f3b3d16d2664625fcfa73aa,676192165fb32c2e1fb7aee6,67d1f4222cd749549bd47199,2025-03-12_22h20.03.544,Tarea de decisión léxica,2024.2.5,Win32,60.24096386,,,,,,,,,,,,,,,,,,,,,,,,442.7778,444.1597,a,1,0.7131,,0.7131,1,444.1598,444.6593,,,,,,203,FEM,WORD,AGR,150,leña,,la,,444.6594,444.6594,-0.036111149,-0.419444426,0,0,0,,0,212,212,202,1,beja,,,,
,,,,,,5f3b3d16d2664625fcfa73aa,676192165fb32c2e1fb7aee6,67d1f4222cd749549bd47199,2025-03-12_22h20.03.544,Tarea de decisión léxica,2024.2.5,Win32,60.24096386,,,,,,,,,,,,,,,,,,,,,,,,444.6607,446.1092,a,1,0.7769,,0.7769,1,446.1093,446.6096,,,,,,33,FEM,WORD,DIS,150,boca,,el,,446.6111,446.6122,-0.036111149,-0.419444426,0,0,0,,0,213,213,32,1,loda,,,,
,,,,,,5f3b3d16d2664625fcfa73aa,676192165fb32c2e1fb7aee6,67d1f4222cd749549bd47199,2025-03-12_22h20.03.544,Tarea de decisión léxica,2024.2.5,Win32,60.24096386,,,,,,,,,,,,,,,,,,,,,,,,446.6132,447.6598,a,1,0.3756,,0.3756,1,447.6599,448.1593,,,,,,431,MAS,WORD,AGR,150,motor,,el,,448.1593,448.1594,-0.036111149,-0.419444426,0,0,0,,0,214,214,430,1,tetor,,,,
,,,,,,5f3b3d16d2664625fcfa73aa,676192165fb32c2e1fb7aee6,67d1f4222cd749549bd47199,2025-03-12_22h20.03.544,Tarea de decisión léxica,2024.2.5,Win32,60.24096386,,,,,,,,,,,,,,,,,,,,,,,,448.1607,449.4427,a,1,0.6027,,0.6027,1,449.4429,449.9428,,,,,,177,MAS,WORD,DIS,150,reto,,la,,449.9428,449.943,-0.036111149,-0.419444426,0,0,0,,0,215,215,176,1,bito,,,,
,,,,,,5f3b3d16d2664625fcfa73aa,676192165fb32c2e1fb7aee6,67d1f4222cd749549bd47199,2025-03-12_22h20.03.544,Tarea de decisión léxica,2024.2.5,Win32,60.24096386,,,,,,,,,,,,,,,,,,,,,,,,449.9442,451.1096,l,1,0.4841,,0.4841,1,451.1096,451.6099,,,,,,218,MAS,NOWORD,DIS,150,budo,,la,,451.6099,451.61,-0.036111149,-0.419444426,0,0,0,,0,216,216,217,1,luto,,,,
,,,,,,5f3b3d16d2664625fcfa73aa,676192165fb32c2e1fb7aee6,67d1f4222cd749549bd47199,2025-03-12_22h20.03.544,Tarea de decisión léxica,2024.2.5,Win32,60.24096386,,,,,,,,,,,,,,,,,,,,,,,,451.6113,452.6767,a,1,0.3962,,0.3962,1,452.6768,453.1762,,,,,,407,FEM,WORD,AGR,150,cueva,,la,,453.1762,453.1765,-0.036111149,-0.419444426,0,0,0,,0,217,217,406,1,cauba,,,,
,,,,,,5f3b3d16d2664625fcfa73aa,676192165fb32c2e1fb7aee6,67d1f4222cd749549bd47199,2025-03-12_22h20.03.544,Tarea de decisión léxica,2024.2.5,Win32,60.24096386,,,,,,,,,,,,,,,,,,,,,,,,453.1776,454.1928,a,1,0.3381,,0.3381,1,454.1928,454.6927,,,,,,377,MAS,WORD,DIS,150,hielo,,la,,454.6941,454.6949,-0.036111149,-0.419444426,0,0,0,,0,218,218,376,1,gaulo,,,,
,,,,,,5f3b3d16d2664625fcfa73aa,676192165fb32c2e1fb7aee6,67d1f4222cd749549bd47199,2025-03-12_22h20.03.544,Tarea de decisión léxica,2024.2.5,Win32,60.24096386,,,,,,,,,,,,,,,,,,,,,,,,454.6959,455.7259,a,1,0.3506,,0.3506,1,455.7262,456.2261,,,,,,355,FEM,WORD,AGR,150,regla,,la,,456.2262,456.2264,-0.036111149,-0.419444426,0,0,0,,0,219,219,354,1,bepla,,,,
,,,,,,5f3b3d16d2664625fcfa73aa,676192165fb32c2e1fb7aee6,67d1f4222cd749549bd47199,2025-03-12_22h20.03.544,Tarea de decisión léxica,2024.2.5,Win32,60.24096386,,,,,,,,,,,,,,,,,,,,,,,,456.2275,457.1762,a,1,0.2671,,0.2671,1,457.1762,457.676,,,,,,255,MAS,WORD,AGR,150,miedo,,el,,457.676,457.6761,-0.036111149,-0.419444426,0,0,0,,0,220,220,254,1,mauco,,,,
,,,,,,5f3b3d16d2664625fcfa73aa,676192165fb32c2e1fb7aee6,67d1f4222cd749549bd47199,2025-03-12_22h20.03.544,Tarea de decisión léxica,2024.2.5,Win32,60.24096386,,,,,,,,,,,,,,,,,,,,,,,,457.6773,458.7429,a,1,0.3961,,0.3961,1,458.743,459.2425,,,,,,217,MAS,WORD,DIS,150,luto,,la,,459.2425,459.2427,-0.036111149,-0.419444426,0,0,0,,0,221,221,216,1,budo,,,,
,,,,,,5f3b3d16d2664625fcfa73aa,676192165fb32c2e1fb7aee6,67d1f4222cd749549bd47199,2025-03-12_22h20.03.544,Tarea de decisión léxica,2024.2.5,Win32,60.24096386,,,,,,,,,,,,,,,,,,,,,,,,459.2438,460.1925,a,1,0.277,,0.277,1,460.1927,460.6926,,,,,,257,FEM,WORD,DIS,150,amiga,,el,,460.6927,460.6928,-0.036111149,-0.419444426,0,0,0,,0,222,222,256,1,asama,,,,
,,,,,,5f3b3d16d2664625fcfa73aa,676192165fb32c2e1fb7aee6,67d1f4222cd749549bd47199,2025-03-12_22h20.03.544,Tarea de decisión léxica,2024.2.5,Win32,60.24096386,,,,,,,,,,,,,,,,,,,,,,,,460.694,461.9759,l,1,0.6114,,0.6114,1,461.9761,462.4759,,,,,,16,FEM,NOWORD,AGR,150,odea,,la,,462.4772,462.4781,-0.036111149,-0.419444426,0,0,0,,0,223,223,15,1,idea,,,,
,,,,,,5f3b3d16d2664625fcfa73aa,676192165fb32c2e1fb7aee6,67d1f4222cd749549bd47199,2025-03-12_22h20.03.544,Tarea de decisión léxica,2024.2.5,Win32,60.24096386,,,,,,,,,,,,,,,,,,,,,,,,462.4792,463.81,a,1,0.6595,,0.6595,1,463.81,464.3096,,,,,,279,FEM,WORD,AGR,150,prisa,,la,,464.3097,464.3098,-0.036111149,-0.419444426,0,0,0,,0,224,224,278,1,grina,,,,
,,,,,,5f3b3d16d2664625fcfa73aa,676192165fb32c2e1fb7aee6,67d1f4222cd749549bd47199,2025-03-12_22h20.03.544,Tarea de decisión léxica,2024.2.5,Win32,60.24096386,,,,,,,,,,,,,,,,,,,,,,,,464.3111,465.4759,l,1,0.4943,,0.4943,1,465.476,465.976,,,,,,30,MAS,NOWORD,DIS,150,pono,,la,,465.9761,465.9762,-0.036111149,-0.419444426,0,0,0,,0,225,225,29,1,modo,,,,
,,,,,,5f3b3d16d2664625fcfa73aa,676192165fb32c2e1fb7aee6,67d1f4222cd749549bd47199,2025-03-12_22h20.03.544,Tarea de decisión léxica,2024.2.5,Win32,60.24096386,,,,,,,,,,,,,,,,,,,,,,,,465.9774,467.1594,l,1,0.5011,,0.5011,1,467.1596,467.6594,,,,,,124,FEM,NOWORD,AGR,150,maba,,la,,467.6595,467.6596,-0.036111149,-0.419444426,0,0,0,,0,226,226,123,1,flor,,,,
,,,,,,5f3b3d16d2664625fcfa73aa,676192165fb32c2e1fb7aee6,67d1f4222cd749549bd47199,2025-03-12_22h20.03.544,Tarea de decisión léxica,2024.2.5,Win32,60.24096386,,,,,,,,,,,,,,,,,,,,,,,,467.661,468.8762,a,1,0.5414,,0.5414,1,468.8764,469.377,,,,,,193,FEM,WORD,DIS,150,loca,,el,,469.3787,469.3801,-0.036111149,-0.419444426,0,0,0,,0,227,227,192,1,foda,,,,
,,,,,,5f3b3d16d2664625fcfa73aa,676192165fb32c2e1fb7aee6,67d1f4222cd749549bd47199,2025-03-12_22h20.03.544,Tarea de decisión léxica,2024.2.5,Win32,60.24096386,,,,,,,,,,,,,,,,,,,,,,,,469.3813,470.4929,a,1,0.4433,,0.4433,1,470.4931,470.9928,,,,,,429,FEM,WORD,DIS,150,tarta,,el,,470.9928,470.9929,-0.036111149,-0.419444426,0,0,0,,0,228,228,428,1,tenta,,,,
,,,,,,5f3b3d16d2664625fcfa73aa,676192165fb32c2e1fb7aee6,67d1f4222cd749549bd47199,2025-03-12_22h20.03.544,Tarea de decisión léxica,2024.2.5,Win32,60.24096386,,,,,,,,,,,,,,,,,,,,,,,,470.9944,472.5092,a,1,0.8341,,0.8341,1,472.5093,473.0093,,,,,,225,MAS,WORD,DIS,150,lodo,,la,,473.0093,473.0094,-0.036111149,-0.419444426,0,0,0,,0,229,229,224,1,boco,,,,
,,,,,,5f3b3d16d2664625fcfa73aa,676192165fb32c2e1fb7aee6,67d1f4222cd749549bd47199,2025-03-12_22h20.03.544,Tarea de decisión léxica,2024.2.5,Win32,60.24096386,,,,,,,,,,,,,,,,,,,,,,,,473.0107,474.276,l,1,0.5909,,0.5909,1,474.276,474.7761,,,,,,298,MAS,NOWORD,DIS,150,brubo,,la,,474.7763,474.7764,-0.036111149,-0.419444426,0,0,0,,0,230,230,297,1,grupo,,,,
,,,,,,5f3b3d16d2664625fcfa73aa,676192165fb32c2e1fb7aee6,67d1f4222cd749549bd47199,2025-03-12_22h20.03.544,Tarea de decisión léxica,2024.2.5,Win32,60.24096386,,,,,,,,,,,,,,,,,,,,,,,,474.7775,476.1094,l,1,0.6505,,0.6505,1,476.1095,476.6092,,,,,,230,MAS,NOWORD,DIS,150,ador,,la,,476.6093,476.6094,-0.036111149,-0.419444426,0,0,0,,0,231,231,229,1,amor,,,,
,,,,,,5f3b3d16d2664625fcfa73aa,676192165fb32c2e1fb7aee6,67d1f4222cd749549bd47199,2025-03-12_22h20.03.544,Tarea de decisión léxica,2024.2.5,Win32,60.24096386,,,,,,,,,,,,,,,,,,,,,,,,476.6105,477.6094,l,1,0.32,,0.32,1,477.6096,478.1093,,,,,,186,MAS,NOWORD,DIS,150,raol,,la,,478.1109,478.1118,-0.036111149,-0.419444426,0,0,0,,0,232,232,185,1,baúl,,,,
,,,,,,5f3b3d16d2664625fcfa73aa,676192165fb32c2e1fb7aee6,67d1f4222cd749549bd47199,2025-03-12_22h20.03.544,Tarea de decisión léxica,2024.2.5,Win32,60.24096386,,,,,,,,,,,,,,,,,,,,,,,,478.1128,479.1592,a,1,0.3673,,0.3673,1,479.1594,479.6594,,,,,,449,FEM,WORD,DIS,150,pluma,,el,,479.6595,479.6595,-0.036111149,-0.419444426,0,0,0,,0,233,233,448,1,crusa,,,,
,,,,,,5f3b3d16d2664625fcfa73aa,676192165fb32c2e1fb7aee6,67d1f4222cd749549bd47199,2025-03-12_22h20.03.544,Tarea de decisión léxica,2024.2.5,Win32,60.24096386,,,,,,,,,,,,,,,,,,,,,,,,479.6608,480.8094,l,1,0.4685,,0.4685,1,480.8094,481.3096,,,,,,290,FEM,NOWORD,DIS,150,bumpa,,el,,481.3096,481.3098,-0.036111149,-0.419444426,0,0,0,,0,234,234,289,1,bomba,,,,
,,,,,,5f3b3d16d2664625fcfa73aa,676192165fb32c2e1fb7aee6,67d1f4222cd749549bd47199,2025-03-12_22h20.03.544,Tarea de decisión léxica,2024.2.5,Win32,60.24096386,,,,,,,,,,,,,,,,,,,,,,,,481.3111,482.4092,l,1,0.4193,,0.4193,1,482.4093,482.9096,,,,,,430,FEM,NOWORD,DIS,150,tenta,,el,,482.9097,482.91,-0.036111149,-0.419444426,0,0,0,,0,235,235,429,1,tarta,,,,
,,,,,,5f3b3d16d2664625fcfa73aa,676192165fb32c2e1fb7aee6,67d1f4222cd749549bd47199,2025-03-12_22h20.03.544,Tarea de decisión léxica,2024.2.5,Win32,60.24096386,,,,,,,,,,,,,,,,,,,,,,,,482.9111,483.976,a,1,0.3944,,0.3944,1,483.976,484.476,,,,,,291,FEM,WORD,AGR,150,pista,,la,,484.476,484.4761,-0.036111149,-0.419444426,0,0,0,,0,236,236,290,1,mesta,,,,
,,,,,,5f3b3d16d2664625fcfa73aa,676192165fb32c2e1fb7aee6,67d1f4222cd749549bd47199,2025-03-12_22h20.03.544,Tarea de decisión léxica,2024.2.5,Win32,60.24096386,,,,,,,,,,,,,,,,,,,,,,,,484.4774,485.6925,l,1,0.545,,0.545,1,485.6926,486.1927,,,,,,226,MAS,NOWORD,DIS,150,boco,,la,,486.194,486.1949,-0.036111149,-0.419444426,0,0,0,,0,237,237,225,1,lodo,,,,
,,,,,,5f3b3d16d2664625fcfa73aa,676192165fb32c2e1fb7aee6,67d1f4222cd749549bd47199,2025-03-12_22h20.03.544,Tarea de decisión léxica,2024.2.5,Win32,60.24096386,,,,,,,,,,,,,,,,,,,,,,,,486.196,487.2594,a,1,0.395,,0.395,1,487.2596,487.7595,,,,,,73,MAS,WORD,DIS,150,odio,,la,,487.7595,487.7597,-0.036111149,-0.419444426,0,0,0,,0,238,238,72,1,omio,,,,
,,,,,,5f3b3d16d2664625fcfa73aa,676192165fb32c2e1fb7aee6,67d1f4222cd749549bd47199,2025-03-12_22h20.03.544,Tarea de decisión léxica,2024.2.5,Win32,60.24096386,,,,,,,,,,,,,,,,,,,,,,,,487.761,488.8758,l,1,0.4362,,0.4362,1,488.8759,489.3759,,,,,,126,MAS,NOWORD,DIS,150,vudo,,la,,489.376,489.3761,-0.036111149,-0.419444426,0,0,0,,0,239,239,125,1,lujo,,,,
,,,,,,5f3b3d16d2664625fcfa73aa,676192165fb32c2e1fb7aee6,67d1f4222cd749549bd47199,2025-03-12_22h20.03.544,Tarea de decisión léxica,2024.2.5,Win32,60.24096386,,,,,,,,,,,,,,,,,,,,,,,,489.3773,490.4093,l,1,0.3578,,0.3578,1,490.4094,490.9093,,,,,,72,FEM,NOWORD,AGR,150,urla,,la,,490.9094,490.9095,-0.036111149,-0.419444426,0,0,0,,0,240,240,71,1,isla,,,,
,,,,,,5f3b3d16d2664625fcfa73aa,676192165fb32c2e1fb7aee6,67d1f4222cd749549bd47199,2025-03-12_22h20.03.544,Tarea de decisión léxica,2024.2.5,Win32,60.24096386,,,,,,,,,,,,,,,,,,,,,,,,490.9107,491.9927,l,1,0.4068,,0.4068,1,491.9927,492.4926,,,,,,456,MAS,NOWORD,AGR,150,riaso,,el,,492.4926,492.4927,-0.036111149,-0.419444426,0,0,0,,0,241,241,455,1,reino,,,,
,,,,,,5f3b3d16d2664625fcfa73aa,676192165fb32c2e1fb7aee6,67d1f4222cd749549bd47199,2025-03-12_22h20.03.544,Tarea de decisión léxica,2024.2.5,Win32,60.24096386,,,,,,,,,,,,,,,,,,,,,,,,492.4939,493.4927,a,0,0.3287,,0.3287,0,493.4938,493.9925,,,,,,348,FEM,NOWORD,AGR,150,mueza,,la,,493.994,493.995,-0.036111149,-0.419444426,0,0,0,,0,242,242,347,1,pieza,,,,
,,,,,,5f3b3d16d2664625fcfa73aa,676192165fb32c2e1fb7aee6,67d1f4222cd749549bd47199,2025-03-12_22h20.03.544,Tarea de decisión léxica,2024.2.5,Win32,60.24096386,,,,,,,,,,,,,,,,,,,,,,,,493.9961,495.3259,l,1,0.6503,,0.6503,1,495.3269,495.8261,,,,,,238,MAS,NOWORD,DIS,150,huco,,la,,495.8262,495.8263,-0.036111149,-0.419444426,0,0,0,,0,243,243,237,1,nudo,,,,
,,,,,,5f3b3d16d2664625fcfa73aa,676192165fb32c2e1fb7aee6,67d1f4222cd749549bd47199,2025-03-12_22h20.03.544,Tarea de decisión léxica,2024.2.5,Win32,60.24096386,,,,,,,,,,,,,,,,,,,,,,,,495.8278,496.8934,a,1,0.3962,,0.3962,1,496.8935,497.3929,,,,,,113,FEM,WORD,DIS,150,miel,,el,,497.393,497.393,-0.036111149,-0.419444426,0,0,0,,0,244,244,112,1,tada,,,,
,,,,,,5f3b3d16d2664625fcfa73aa,676192165fb32c2e1fb7aee6,67d1f4222cd749549bd47199,2025-03-12_22h20.03.544,Tarea de decisión léxica,2024.2.5,Win32,60.24096386,,,,,,,,,,,,,,,,,,,,,,,,497.3943,498.5925,l,1,0.5169,,0.5169,1,498.5926,499.0926,,,,,,112,MAS,NOWORD,AGR,150,siro,,el,,499.0926,499.0928,-0.036111149,-0.419444426,0,0,0,,0,245,245,111,1,muro,,,,
,,,,,,5f3b3d16d2664625fcfa73aa,676192165fb32c2e1fb7aee6,67d1f4222cd749549bd47199,2025-03-12_22h20.03.544,Tarea de decisión léxica,2024.2.5,Win32,60.24096386,,,,,,,,,,,,,,,,,,,,,,,,499.094,500.3102,a,1,0.5382,,0.5382,1,500.3102,500.8093,,,,,,1,FEM,WORD,DIS,150,casa,,el,,500.8094,500.8097,-0.036111149,-0.419444426,0,0,0,,0,246,246,0,1,mada,,,,
,,,,,,5f3b3d16d2664625fcfa73aa,676192165fb32c2e1fb7aee6,67d1f4222cd749549bd47199,2025-03-12_22h20.03.544,Tarea de decisión léxica,2024.2.5,Win32,60.24096386,,,,,,,,,,,,,,,,,,,,,,,,500.8109,502.1091,l,1,0.622,,0.622,1,502.1093,502.6092,,,,,,468,MAS,NOWORD,AGR,150,peiso,,el,,502.6106,502.6116,-0.036111149,-0.419444426,0,0,0,,0,247,247,467,1,piano,,,,
,,,,,,5f3b3d16d2664625fcfa73aa,676192165fb32c2e1fb7aee6,67d1f4222cd749549bd47199,2025-03-12_22h20.03.544,Tarea de decisión léxica,2024.2.5,Win32,60.24096386,,,,,,,,,,,,,,,,,,,,,,,,502.6126,503.8594,a,1,0.575,,0.575,1,503.8595,504.3593,,,,,,169,MAS,WORD,DIS,150,cubo,,la,,504.3594,504.3595,-0.036111149,-0.419444426,0,0,0,,0,248,248,168,1,mibo,,,,
,,,,,,5f3b3d16d2664625fcfa73aa,676192165fb32c2e1fb7aee6,67d1f4222cd749549bd47199,2025-03-12_22h20.03.544,Tarea de decisión léxica,2024.2.5,Win32,60.24096386,,,,,,,,,,,,,,,,,,,,,,,,504.3608,505.4261,a,1,0.3852,,0.3852,1,505.4262,505.926,,,,,,15,FEM,WORD,AGR,150,idea,,la,,505.9261,505.9263,-0.036111149,-0.419444426,0,0,0,,0,249,249,14,1,odea,,,,
,,,,,,5f3b3d16d2664625fcfa73aa,676192165fb32c2e1fb7aee6,67d1f4222cd749549bd47199,2025-03-12_22h20.03.544,Tarea de decisión léxica,2024.2.5,Win32,60.24096386,,,,,,,,,,,,,,,,,,,,,,,,505.9274,506.9926,a,1,0.3904,,0.3904,1,506.9928,507.4925,,,,,,163,FEM,WORD,AGR,150,fama,,la,,507.4925,507.4926,-0.036111149,-0.419444426,0,0,0,,0,250,250,162,1,laga,,,,
,,,,,,5f3b3d16d2664625fcfa73aa,676192165fb32c2e1fb7aee6,67d1f4222cd749549bd47199,2025-03-12_22h20.03.544,Tarea de decisión léxica,2024.2.5,Win32,60.24096386,,,,,,,,,,,,,,,,,,,,,,,,507.4936,508.7762,l,1,0.6007,,0.6007,1,508.7763,509.2761,,,,,,338,MAS,NOWORD,DIS,150,nuejo,,la,,509.2777,509.2788,-0.036111149,-0.419444426,0,0,0,,0,251,251,337,1,huevo,,,,
,,,,,,5f3b3d16d2664625fcfa73aa,676192165fb32c2e1fb7aee6,67d1f4222cd749549bd47199,2025-03-12_22h20.03.544,Tarea de decisión léxica,2024.2.5,Win32,60.24096386,,,,,,,,,,,,,,,,,,,,,,,,509.28,510.3761,a,1,0.4247,,0.4247,1,510.3763,510.8761,,,,,,339,MAS,WORD,AGR,150,brazo,,el,,510.8761,510.8764,-0.036111149,-0.419444426,0,0,0,,0,252,252,338,1,plajo,,,,
,,,,,,5f3b3d16d2664625fcfa73aa,676192165fb32c2e1fb7aee6,67d1f4222cd749549bd47199,2025-03-12_22h20.03.544,Tarea de decisión léxica,2024.2.5,Win32,60.24096386,,,,,,,,,,,,,,,,,,,,,,,,510.8778,511.9928,l,1,0.4449,,0.4449,1,511.9931,512.4929,,,,,,302,FEM,NOWORD,DIS,150,ranga,,el,,512.493,512.4933,-0.036111149,-0.419444426,0,0,0,,0,253,253,301,1,banda,,,,
,,,,,,5f3b3d16d2664625fcfa73aa,676192165fb32c2e1fb7aee6,67d1f4222cd749549bd47199,2025-03-12_22h20.03.544,Tarea de decisión léxica,2024.2.5,Win32,60.24096386,,,,,,,,,,,,,,,,,,,,,,,,512.4946,513.5925,a,1,0.4284,,0.4284,1,513.5926,514.093,,,,,,79,FEM,WORD,AGR,150,piel,,la,,514.0931,514.0932,-0.036111149,-0.419444426,0,0,0,,0,254,254,78,1,ciel,,,,
,,,,,,5f3b3d16d2664625fcfa73aa,676192165fb32c2e1fb7aee6,67d1f4222cd749549bd47199,2025-03-12_22h20.03.544,Tarea de decisión léxica,2024.2.5,Win32,60.24096386,,,,,,,,,,,,,,,,,,,,,,,,514.0944,515.1766,l,1,0.4083,,0.4083,1,515.1767,515.6759,,,,,,268,MAS,NOWORD,AGR,150,figro,,el,,515.6759,515.676,-0.036111149,-0.419444426,0,0,0,,0,255,255,267,1,libro,,,,
,,,,,,5f3b3d16d2664625fcfa73aa,676192165fb32c2e1fb7aee6,67d1f4222cd749549bd47199,2025-03-12_22h20.03.544,Tarea de decisión léxica,2024.2.5,Win32,60.24096386,,,,,,,,,,,,,,,,,,,,,,,,515.6772,516.7594,l,1,0.4116,,0.4116,1,516.7596,517.2592,,,,,,370,MAS,NOWORD,DIS,150,rioco,,la,,517.2606,517.2622,-0.036111149,-0.419444426,0,0,0,,0,256,256,369,1,ruido,,,,
,,,,,,5f3b3d16d2664625fcfa73aa,676192165fb32c2e1fb7aee6,67d1f4222cd749549bd47199,2025-03-12_22h20.03.544,Tarea de decisión léxica,2024.2.5,Win32,60.24096386,,,,,,,,,,,,,,,,,,,,,,,,517.2632,518.3094,l,1,0.3676,,0.3676,1,518.3095,518.8094,,,,,,60,FEM,NOWORD,AGR,150,tafa,,la,,518.8094,518.8098,-0.036111149,-0.419444426,0,0,0,,0,257,257,59,1,sala,,,,
,,,,,,5f3b3d16d2664625fcfa73aa,676192165fb32c2e1fb7aee6,67d1f4222cd749549bd47199,2025-03-12_22h20.03.544,Tarea de decisión léxica,2024.2.5,Win32,60.24096386,,,,,,,,,,,,,,,,,,,,,,,,518.8111,520.2259,l,1,0.7344,,0.7344,1,520.226,520.7259,,,,,,336,FEM,NOWORD,AGR,150,pesta,,la,,520.726,520.7261,-0.036111149,-0.419444426,0,0,0,,0,258,258,335,1,costa,,,,
,,,,,,5f3b3d16d2664625fcfa73aa,676192165fb32c2e1fb7aee6,67d1f4222cd749549bd47199,2025-03-12_22h20.03.544,Tarea de decisión léxica,2024.2.5,Win32,60.24096386,,,,,,,,,,,,,,,,,,,,,,,,520.7272,521.8426,l,1,0.4399,,0.4399,1,521.8427,522.3428,,,,,,328,MAS,NOWORD,AGR,150,lendo,,el,,522.3429,522.3431,-0.036111149,-0.419444426,0,0,0,,0,259,259,327,1,fondo,,,,
,,,,,,5f3b3d16d2664625fcfa73aa,676192165fb32c2e1fb7aee6,67d1f4222cd749549bd47199,2025-03-12_22h20.03.544,Tarea de decisión léxica,2024.2.5,Win32,60.24096386,,,,,,,,,,,,,,,,,,,,,,,,522.3442,523.476,a,1,0.4523,,0.4523,1,523.476,523.9759,,,,,,425,FEM,WORD,DIS,150,viuda,,el,,523.9759,523.9761,-0.036111149,-0.419444426,0,0,0,,0,260,260,424,1,virca,,,,
,,,,,,5f3b3d16d2664625fcfa73aa,676192165fb32c2e1fb7aee6,67d1f4222cd749549bd47199,2025-03-12_22h20.03.544,Tarea de decisión léxica,2024.2.5,Win32,60.24096386,,,,,,,,,,,,,,,,,,,,,,,,523.9772,525.093,l,1,0.4336,,0.4336,1,525.0931,525.5926,,,,,,220,FEM,NOWORD,AGR,150,miva,,la,,525.594,525.5951,-0.036111149,-0.419444426,0,0,0,,0,261,261,219,1,pipa,,,,
,,,,,,5f3b3d16d2664625fcfa73aa,676192165fb32c2e1fb7aee6,67d1f4222cd749549bd47199,2025-03-12_22h20.03.544,Tarea de decisión léxica,2024.2.5,Win32,60.24096386,,,,,,,,,,,,,,,,,,,,,,,,525.5963,526.8093,l,1,0.5448,,0.5448,1,526.8094,527.3094,,,,,,82,FEM,NOWORD,DIS,150,vasa,,el,,527.3095,527.3097,-0.036111149,-0.419444426,0,0,0,,0,262,262,81,1,dama,,,,
,,,,,,5f3b3d16d2664625fcfa73aa,676192165fb32c2e1fb7aee6,67d1f4222cd749549bd47199,2025-03-12_22h20.03.544,Tarea de decisión léxica,2024.2.5,Win32,60.24096386,,,,,,,,,,,,,,,,,,,,,,,,527.3109,528.7592,a,1,0.7679,,0.7679,1,528.7592,529.26,,,,,,239,MAS,WORD,AGR,150,mozo,,el,,529.2601,529.2604,-0.036111149,-0.419444426,0,0,0,,0,263,263,238,1,poño,,,,
