counterbalancing_condition,consent_prescreening.block_1/declare_consent,consent_prescreening.block_1/age_years,consent_prescreening.block_1/gender,consent_prescreening.block_1/language_disorder,consent_prescreening.block_1/first_language,PROLIFIC_PID,STUDY_ID,SESSION_ID,date,expName,psychopyVersion,OS,frameRate,check_prescreening_answers.started,check_prescreening_answers.stopped,Instructions.started,Instructions.stopped,instr_done_keyboard.keys,instr_done_keyboard.rt,instr_done_keyboard.duration,instr_done_touch.x,instr_done_touch.y,instr_done_touch.leftButton,instr_done_touch.midButton,instr_done_touch.rightButton,instruction_pages.thisRepN,instruction_pages.thisTrialN,instruction_pages.thisN,instruction_pages.thisIndex,instruction_pages.ran,pageN,phase,instruct_text,has_image,instruct_image,presentTrial.started,presentTrial.stopped,response.keys,response.corr,response.rt,response.duration,rt,corr,feedback.started,feedback.stopped,practice_trials.thisRepN,practice_trials.thisTrialN,practice_trials.thisN,practice_trials.thisIndex,practice_trials.ran,TrialID,Gender,StimulusType,Condition,PrimeDuration,Prime,len,Flanker,corrAns,Break.started,Break.stopped,break_done_touch.x,break_done_touch.y,break_done_touch.leftButton,break_done_touch.midButton,break_done_touch.rightButton,break_done_keyboard.keys,experiment_trials.thisRepN,experiment_trials.thisTrialN,experiment_trials.thisN,experiment_trials.thisIndex,experiment_trials.ran,PairedWith,break_done_keyboard.rt,break_done_keyboard.duration,End.started,End.stopped
1,"[""over_18"",""comfortable"",""read_info"",""consent_given""]",31,F,"[""none""]","[""spanish""]",5f3c202dc59223a250d37f11,676192165fb32c2e1fb7aee6,67d194181e13c598cee590e4,2025-03-12_08h04.02.826,Tarea de decisión léxica,2024.2.5,MacIntel,63.29113924,,,,,,,,,,,,,,,,,,,,,,,,,,,,,,,,,,,,,,,,,,,,,,,,,,,,,,,,,,,,,,,,
,,,,,,5f3c202dc59223a250d37f11,676192165fb32c2e1fb7aee6,67d194181e13c598cee590e4,2025-03-12_08h04.02.826,Tarea de decisión léxica,2024.2.5,MacIntel,63.29113924,209.5298,209.5299,,,,,,,,,,,,,,,,,,,,,,,,,,,,,,,,,,,,,,,,,,,,,,,,,,,,,,,,,,,,,,
,,,,,,5f3c202dc59223a250d37f11,676192165fb32c2e1fb7aee6,67d194181e13c598cee590e4,2025-03-12_08h04.02.826,Tarea de decisión léxica,2024.2.5,MacIntel,63.29113924,,,209.5533,228.1088,space,18.5222,,-0.262856658,0.009515115,0,0,0,0,0,0,0,1,1,instructions,"INSTRUCCIONES
Va a realizar una prueba de decisión léxica. Desde el comienzo de la prueba mire siempre al centro de la pantalla. Se presentará una serie de cadenas de letras, una a la vez, en la pantalla. Su tarea consiste en determinar si cada cadena de letras constituye una palabra real en español o una no-palabra (una secuencia de letras que no constituye una palabra real). 

Pulse la tecla ESPACIO para continuar.",0,keyboardresponseWN.png,,,,,,,,,,,,,,,,,,,,,,,,,,,,,,,,,,,,,,,,,,
,,,,,,5f3c202dc59223a250d37f11,676192165fb32c2e1fb7aee6,67d194181e13c598cee590e4,2025-03-12_08h04.02.826,Tarea de decisión léxica,2024.2.5,MacIntel,63.29113924,,,228.1126,240.9744,space,12.8472,,-0.262856658,0.009515115,0,0,0,0,1,1,1,1,2,instructions,"El procedimiento es el siguiente: Aparecerán dos barras verticales posicionadas en el centro de la pantalla, separadas por un pequeño espacio.Por favor, enfoque su atención en el espacio entre las barras. Esto preparará sus ojos para la siguiente cadena de letras, que aparecerá entre las dos barras durante un instante.

Pulse la tecla ESPACIO para continuar.",0,keyboardresponseWN.png,,,,,,,,,,,,,,,,,,,,,,,,,,,,,,,,,,,,,,,,,,
,,,,,,5f3c202dc59223a250d37f11,676192165fb32c2e1fb7aee6,67d194181e13c598cee590e4,2025-03-12_08h04.02.826,Tarea de decisión léxica,2024.2.5,MacIntel,63.29113924,,,240.9761,250.6904,space,9.6687,,-0.262856658,0.009515115,0,0,0,0,2,2,2,1,3,instructions,"En el teclado de su dispositivo, pulse la tecla ""A"" si la cadena de letras es una palabra real en español (por ejemplo: ""mano"") y la tecla ""L"" si la cadena de letras es una no-palabra (por ejemplo: ""minu"").
Pulse la tecla ESPACIO para continuar.",1,keyboardresponseWN.png,,,,,,,,,,,,,,,,,,,,,,,,,,,,,,,,,,,,,,,,,,
,,,,,,5f3c202dc59223a250d37f11,676192165fb32c2e1fb7aee6,67d194181e13c598cee590e4,2025-03-12_08h04.02.826,Tarea de decisión léxica,2024.2.5,MacIntel,63.29113924,,,250.6934,252.808,space,2.0883,,-0.262856658,0.009515115,0,0,0,0,3,3,3,1,4,instructions,"Es muy importante que responda con la mayor rapidez y precisión posibles. Si no responde dentro de 2 segundos, aparecerá el mensaje ""Muy lento"" y el experimento pasará a la siguiente palabra. Inmediatamente después de su respuesta se indicará si fue correcta o no. Los primeros 15 intentos serán de práctica y habrá dos descansos durante la prueba.

Pulse la tecla ESPACIO  para iniciar la parte de práctica.",0,keyboardresponseWN.png,,,,,,,,,,,,,,,,,,,,,,,,,,,,,,,,,,,,,,,,,,
,,,,,,5f3c202dc59223a250d37f11,676192165fb32c2e1fb7aee6,67d194181e13c598cee590e4,2025-03-12_08h04.02.826,Tarea de decisión léxica,2024.2.5,MacIntel,63.29113924,,,,,,,,,,,,,,,,,,,,,,,252.8275,254.5905,a,0,1.087,,1.087,0,254.591,255.0915,0,0,0,3,1,1004,FEM,NOWORD,AGR,150,bireo,5,la,a,,,,,,,,,,,,,,,,,,
,,,,,,5f3c202dc59223a250d37f11,676192165fb32c2e1fb7aee6,67d194181e13c598cee590e4,2025-03-12_08h04.02.826,Tarea de decisión léxica,2024.2.5,MacIntel,63.29113924,,,,,,,,,,,,,,,,,,,,,,,255.0933,256.907,a,0,1.1336,,1.1336,0,256.9072,257.408,0,1,1,0,1,1001,FEM,NOWORD,AGR,150,croz,4,la,a,,,,,,,,,,,,,,,,,,
,,,,,,5f3c202dc59223a250d37f11,676192165fb32c2e1fb7aee6,67d194181e13c598cee590e4,2025-03-12_08h04.02.826,Tarea de decisión léxica,2024.2.5,MacIntel,63.29113924,,,,,,,,,,,,,,,,,,,,,,,257.4095,258.9412,l,1,0.8507,,0.8507,1,258.9424,259.4401,0,2,2,4,1,1005,MAS,NOWORD,DIS,150,nobad,5,la,a,,,,,,,,,,,,,,,,,,
,,,,,,5f3c202dc59223a250d37f11,676192165fb32c2e1fb7aee6,67d194181e13c598cee590e4,2025-03-12_08h04.02.826,Tarea de decisión léxica,2024.2.5,MacIntel,63.29113924,,,,,,,,,,,,,,,,,,,,,,,259.4418,260.9068,l,1,0.8025,,0.8025,1,260.907,261.4078,0,3,3,1,1,1002,FEM,NOWORD,DIS,150,mabo,4,el,a,,,,,,,,,,,,,,,,,,
,,,,,,5f3c202dc59223a250d37f11,676192165fb32c2e1fb7aee6,67d194181e13c598cee590e4,2025-03-12_08h04.02.826,Tarea de decisión léxica,2024.2.5,MacIntel,63.29113924,,,,,,,,,,,,,,,,,,,,,,,261.4093,262.858,a,1,0.7686,,0.7686,1,262.8582,263.3582,0,4,4,9,1,1010,MAS,WORD,DIS,150,video,5,la,l,,,,,,,,,,,,,,,,,,
,,,,,,5f3c202dc59223a250d37f11,676192165fb32c2e1fb7aee6,67d194181e13c598cee590e4,2025-03-12_08h04.02.826,Tarea de decisión léxica,2024.2.5,MacIntel,63.29113924,,,,,,,,,,,,,,,,,,,,,,,263.3599,264.891,a,1,0.8605,,0.8605,1,264.8911,265.3903,0,5,5,5,1,1006,FEM,WORD,AGR,150,cara,4,la,l,,,,,,,,,,,,,,,,,,
,,,,,,5f3c202dc59223a250d37f11,676192165fb32c2e1fb7aee6,67d194181e13c598cee590e4,2025-03-12_08h04.02.826,Tarea de decisión léxica,2024.2.5,MacIntel,63.29113924,,,,,,,,,,,,,,,,,,,,,,,265.3918,266.8411,a,1,0.7707,,0.7707,1,266.8412,267.3412,0,6,6,6,1,1007,MAS,WORD,DIS,150,masa,4,la,l,,,,,,,,,,,,,,,,,,
,,,,,,5f3c202dc59223a250d37f11,676192165fb32c2e1fb7aee6,67d194181e13c598cee590e4,2025-03-12_08h04.02.826,Tarea de decisión léxica,2024.2.5,MacIntel,63.29113924,,,,,,,,,,,,,,,,,,,,,,,267.343,268.7913,l,1,0.779,,0.779,1,268.7915,269.2913,0,7,7,2,1,1003,FEM,NOWORD,DIS,150,muvor,5,el,a,,,,,,,,,,,,,,,,,,
,,,,,,5f3c202dc59223a250d37f11,676192165fb32c2e1fb7aee6,67d194181e13c598cee590e4,2025-03-12_08h04.02.826,Tarea de decisión léxica,2024.2.5,MacIntel,63.29113924,,,,,,,,,,,,,,,,,,,,,,,269.293,270.4244,a,1,0.4554,,0.4554,1,270.4246,270.9245,0,8,8,7,1,1008,MAS,WORD,DIS,150,frío,4,la,l,,,,,,,,,,,,,,,,,,
,,,,,,5f3c202dc59223a250d37f11,676192165fb32c2e1fb7aee6,67d194181e13c598cee590e4,2025-03-12_08h04.02.826,Tarea de decisión léxica,2024.2.5,MacIntel,63.29113924,,,,,,,,,,,,,,,,,,,,,,,270.9262,272.1578,a,1,0.5501,,0.5501,1,272.1579,272.658,0,9,9,8,1,1009,FEM,WORD,AGR,150,viejo,5,la,l,,,,,,,,,,,,,,,,,,
,,,,,,5f3c202dc59223a250d37f11,676192165fb32c2e1fb7aee6,67d194181e13c598cee590e4,2025-03-12_08h04.02.826,Tarea de decisión léxica,2024.2.5,MacIntel,63.29113924,,,277.961,279.3248,space,1.3375,,-0.262856658,0.009515115,0,0,0,,,,,,,,,,,279.36,280.9744,l,1,0.9334,,0.9334,1,280.9746,281.4744,,,,,,36,MAS,NOWORD,DIS,150,meno,,la,,281.4749,281.4785,-0.262856658,0.009515115,0,0,0,,0,0,0,35,1,pelo,,,,
,,,,,,5f3c202dc59223a250d37f11,676192165fb32c2e1fb7aee6,67d194181e13c598cee590e4,2025-03-12_08h04.02.826,Tarea de decisión léxica,2024.2.5,MacIntel,63.29113924,,,,,,,,,,,,,,,,,,,,,,,281.4795,282.7744,a,1,0.6174,,0.6174,1,282.7746,283.2733,,,,,,397,FEM,WORD,DIS,150,tribu,,el,,283.2735,283.2737,-0.262856658,0.009515115,0,0,0,,0,1,1,396,1,trigi,,,,
,,,,,,5f3c202dc59223a250d37f11,676192165fb32c2e1fb7aee6,67d194181e13c598cee590e4,2025-03-12_08h04.02.826,Tarea de decisión léxica,2024.2.5,MacIntel,63.29113924,,,,,,,,,,,,,,,,,,,,,,,283.2751,284.6401,l,1,0.7009,,0.7009,1,284.6403,285.1411,,,,,,310,FEM,NOWORD,AGR,150,tirra,,la,,285.1427,285.1439,-0.262856658,0.009515115,0,0,0,,0,2,2,309,1,silla,,,,
,,,,,,5f3c202dc59223a250d37f11,676192165fb32c2e1fb7aee6,67d194181e13c598cee590e4,2025-03-12_08h04.02.826,Tarea de decisión léxica,2024.2.5,MacIntel,63.29113924,,,,,,,,,,,,,,,,,,,,,,,285.1448,286.4745,a,0,0.6497,,0.6497,0,286.4756,286.9745,,,,,,26,FEM,NOWORD,AGR,150,paza,,la,,286.9746,286.9748,-0.262856658,0.009515115,0,0,0,,0,3,3,25,1,cama,,,,
,,,,,,5f3c202dc59223a250d37f11,676192165fb32c2e1fb7aee6,67d194181e13c598cee590e4,2025-03-12_08h04.02.826,Tarea de decisión léxica,2024.2.5,MacIntel,63.29113924,,,,,,,,,,,,,,,,,,,,,,,286.9764,288.3244,a,1,0.6676,,0.6676,1,288.3255,288.8234,,,,,,351,MAS,WORD,AGR,150,vuelo,,el,,288.8236,288.8238,-0.262856658,0.009515115,0,0,0,,0,4,4,350,1,duepo,,,,
,,,,,,5f3c202dc59223a250d37f11,676192165fb32c2e1fb7aee6,67d194181e13c598cee590e4,2025-03-12_08h04.02.826,Tarea de decisión léxica,2024.2.5,MacIntel,63.29113924,,,,,,,,,,,,,,,,,,,,,,,288.8251,290.1577,a,1,0.6545,,0.6545,1,290.1577,290.6577,,,,,,267,MAS,WORD,AGR,150,libro,,el,,290.6578,290.6581,-0.262856658,0.009515115,0,0,0,,0,5,5,266,1,figro,,,,
,,,,,,5f3c202dc59223a250d37f11,676192165fb32c2e1fb7aee6,67d194181e13c598cee590e4,2025-03-12_08h04.02.826,Tarea de decisión léxica,2024.2.5,MacIntel,63.29113924,,,,,,,,,,,,,,,,,,,,,,,290.6595,292.0576,a,1,0.717,,0.717,1,292.0577,292.5578,,,,,,355,FEM,WORD,AGR,150,regla,,la,,292.558,292.5583,-0.262856658,0.009515115,0,0,0,,0,6,6,354,1,bepla,,,,
,,,,,,5f3c202dc59223a250d37f11,676192165fb32c2e1fb7aee6,67d194181e13c598cee590e4,2025-03-12_08h04.02.826,Tarea de decisión léxica,2024.2.5,MacIntel,63.29113924,,,,,,,,,,,,,,,,,,,,,,,292.5596,293.7744,a,1,0.5341,,0.5341,1,293.7746,294.2744,,,,,,167,FEM,WORD,DIS,150,jefa,,el,,294.2761,294.2773,-0.262856658,0.009515115,0,0,0,,0,7,7,166,1,zifa,,,,
,,,,,,5f3c202dc59223a250d37f11,676192165fb32c2e1fb7aee6,67d194181e13c598cee590e4,2025-03-12_08h04.02.826,Tarea de decisión léxica,2024.2.5,MacIntel,63.29113924,,,,,,,,,,,,,,,,,,,,,,,294.2781,295.6245,l,1,0.6673,,0.6673,1,295.6246,296.1245,,,,,,306,MAS,NOWORD,AGR,150,adiol,,el,,296.1246,296.1248,-0.262856658,0.009515115,0,0,0,,0,8,8,305,1,avión,,,,
,,,,,,5f3c202dc59223a250d37f11,676192165fb32c2e1fb7aee6,67d194181e13c598cee590e4,2025-03-12_08h04.02.826,Tarea de decisión léxica,2024.2.5,MacIntel,63.29113924,,,,,,,,,,,,,,,,,,,,,,,296.1264,297.5247,l,1,0.7294,,0.7294,1,297.5247,298.0244,,,,,,416,FEM,NOWORD,DIS,150,juira,,el,,298.0245,298.0247,-0.262856658,0.009515115,0,0,0,,0,9,9,415,1,jaula,,,,
,,,,,,5f3c202dc59223a250d37f11,676192165fb32c2e1fb7aee6,67d194181e13c598cee590e4,2025-03-12_08h04.02.826,Tarea de decisión léxica,2024.2.5,MacIntel,63.29113924,,,,,,,,,,,,,,,,,,,,,,,298.026,299.3076,l,1,0.6055,,0.6055,1,299.3077,299.8078,,,,,,468,MAS,NOWORD,DIS,150,peiso,,la,,299.8078,299.8081,-0.262856658,0.009515115,0,0,0,,0,10,10,467,1,piano,,,,
,,,,,,5f3c202dc59223a250d37f11,676192165fb32c2e1fb7aee6,67d194181e13c598cee590e4,2025-03-12_08h04.02.826,Tarea de decisión léxica,2024.2.5,MacIntel,63.29113924,,,,,,,,,,,,,,,,,,,,,,,299.8095,301.1077,l,1,0.6192,,0.6192,1,301.1079,301.6072,,,,,,30,MAS,NOWORD,AGR,150,pono,,el,,301.6088,301.6098,-0.262856658,0.009515115,0,0,0,,0,11,11,29,1,modo,,,,
,,,,,,5f3c202dc59223a250d37f11,676192165fb32c2e1fb7aee6,67d194181e13c598cee590e4,2025-03-12_08h04.02.826,Tarea de decisión léxica,2024.2.5,MacIntel,63.29113924,,,,,,,,,,,,,,,,,,,,,,,301.6105,303.0575,a,1,0.7718,,0.7718,1,303.0576,303.5578,,,,,,161,MAS,WORD,DIS,150,coro,,la,,303.5578,303.558,-0.262856658,0.009515115,0,0,0,,0,12,12,160,1,bopo,,,,
,,,,,,5f3c202dc59223a250d37f11,676192165fb32c2e1fb7aee6,67d194181e13c598cee590e4,2025-03-12_08h04.02.826,Tarea de decisión léxica,2024.2.5,MacIntel,63.29113924,,,,,,,,,,,,,,,,,,,,,,,303.5595,304.9909,l,1,0.7501,,0.7501,1,304.9911,305.491,,,,,,314,MAS,NOWORD,AGR,150,govio,,el,,305.4911,305.4912,-0.262856658,0.009515115,0,0,0,,0,13,13,313,1,novio,,,,
,,,,,,5f3c202dc59223a250d37f11,676192165fb32c2e1fb7aee6,67d194181e13c598cee590e4,2025-03-12_08h04.02.826,Tarea de decisión léxica,2024.2.5,MacIntel,63.29113924,,,,,,,,,,,,,,,,,,,,,,,305.4924,306.7576,l,1,0.5839,,0.5839,1,306.7577,307.2566,,,,,,304,MAS,NOWORD,DIS,150,lanco,,la,,307.2567,307.2569,-0.262856658,0.009515115,0,0,0,,0,14,14,303,1,barco,,,,
,,,,,,5f3c202dc59223a250d37f11,676192165fb32c2e1fb7aee6,67d194181e13c598cee590e4,2025-03-12_08h04.02.826,Tarea de decisión léxica,2024.2.5,MacIntel,63.29113924,,,,,,,,,,,,,,,,,,,,,,,307.2583,308.49,a,1,0.5653,,0.5653,1,308.4901,308.991,,,,,,31,FEM,WORD,DIS,150,ropa,,el,,308.9912,308.9912,-0.262856658,0.009515115,0,0,0,,0,15,15,30,1,bova,,,,
,,,,,,5f3c202dc59223a250d37f11,676192165fb32c2e1fb7aee6,67d194181e13c598cee590e4,2025-03-12_08h04.02.826,Tarea de decisión léxica,2024.2.5,MacIntel,63.29113924,,,,,,,,,,,,,,,,,,,,,,,308.9928,310.1243,l,1,0.4507,,0.4507,1,310.1244,310.6232,,,,,,318,FEM,NOWORD,AGR,150,plaad,,la,,310.6242,310.625,-0.262856658,0.009515115,0,0,0,,0,16,16,317,1,playa,,,,
,,,,,,5f3c202dc59223a250d37f11,676192165fb32c2e1fb7aee6,67d194181e13c598cee590e4,2025-03-12_08h04.02.826,Tarea de decisión léxica,2024.2.5,MacIntel,63.29113924,,,,,,,,,,,,,,,,,,,,,,,310.6256,311.8409,a,1,0.5336,,0.5336,1,311.8412,312.341,,,,,,423,MAS,WORD,DIS,150,queso,,la,,312.3411,312.3413,-0.262856658,0.009515115,0,0,0,,0,17,17,422,1,quigo,,,,
,,,,,,5f3c202dc59223a250d37f11,676192165fb32c2e1fb7aee6,67d194181e13c598cee590e4,2025-03-12_08h04.02.826,Tarea de decisión léxica,2024.2.5,MacIntel,63.29113924,,,,,,,,,,,,,,,,,,,,,,,312.3426,313.4733,a,1,0.4521,,0.4521,1,313.4734,313.9743,,,,,,441,FEM,WORD,DIS,150,selva,,el,,313.9744,313.9747,-0.262856658,0.009515115,0,0,0,,0,18,18,440,1,telza,,,,
,,,,,,5f3c202dc59223a250d37f11,676192165fb32c2e1fb7aee6,67d194181e13c598cee590e4,2025-03-12_08h04.02.826,Tarea de decisión léxica,2024.2.5,MacIntel,63.29113924,,,,,,,,,,,,,,,,,,,,,,,313.976,315.1743,a,1,0.5175,,0.5175,1,315.1746,315.6744,,,,,,9,MAS,WORD,AGR,150,tipo,,el,,315.6745,315.6747,-0.262856658,0.009515115,0,0,0,,0,19,19,8,1,sibo,,,,
,,,,,,5f3c202dc59223a250d37f11,676192165fb32c2e1fb7aee6,67d194181e13c598cee590e4,2025-03-12_08h04.02.826,Tarea de decisión léxica,2024.2.5,MacIntel,63.29113924,,,,,,,,,,,,,,,,,,,,,,,315.6762,316.8238,a,1,0.4686,,0.4686,1,316.8239,317.3242,,,,,,285,MAS,WORD,AGR,150,error,,el,,317.3244,317.3244,-0.262856658,0.009515115,0,0,0,,0,20,20,284,1,echor,,,,
,,,,,,5f3c202dc59223a250d37f11,676192165fb32c2e1fb7aee6,67d194181e13c598cee590e4,2025-03-12_08h04.02.826,Tarea de decisión léxica,2024.2.5,MacIntel,63.29113924,,,,,,,,,,,,,,,,,,,,,,,317.3258,318.5743,l,1,0.5667,,0.5667,1,318.5745,319.0743,,,,,,470,MAS,NOWORD,AGR,150,matia,,el,,319.076,319.0772,-0.262856658,0.009515115,0,0,0,,0,21,21,469,1,patio,,,,
,,,,,,5f3c202dc59223a250d37f11,676192165fb32c2e1fb7aee6,67d194181e13c598cee590e4,2025-03-12_08h04.02.826,Tarea de decisión léxica,2024.2.5,MacIntel,63.29113924,,,,,,,,,,,,,,,,,,,,,,,319.0782,320.2243,l,1,0.4696,,0.4696,1,320.2245,320.7244,,,,,,282,MAS,NOWORD,AGR,150,cauro,,el,,320.7245,320.7247,-0.262856658,0.009515115,0,0,0,,0,22,22,281,1,cielo,,,,
,,,,,,5f3c202dc59223a250d37f11,676192165fb32c2e1fb7aee6,67d194181e13c598cee590e4,2025-03-12_08h04.02.826,Tarea de decisión léxica,2024.2.5,MacIntel,63.29113924,,,,,,,,,,,,,,,,,,,,,,,320.7262,321.8744,l,1,0.4667,,0.4667,1,321.8745,322.3743,,,,,,102,MAS,NOWORD,AGR,150,gito,,el,,322.3743,322.3746,-0.262856658,0.009515115,0,0,0,,0,23,23,101,1,tono,,,,
,,,,,,5f3c202dc59223a250d37f11,676192165fb32c2e1fb7aee6,67d194181e13c598cee590e4,2025-03-12_08h04.02.826,Tarea de decisión léxica,2024.2.5,MacIntel,63.29113924,,,,,,,,,,,,,,,,,,,,,,,322.3758,323.5569,l,1,0.5007,,0.5007,1,323.557,324.0578,,,,,,392,MAS,NOWORD,DIS,150,dievo,,la,,324.0579,324.058,-0.262856658,0.009515115,0,0,0,,0,24,24,391,1,dueño,,,,
,,,,,,5f3c202dc59223a250d37f11,676192165fb32c2e1fb7aee6,67d194181e13c598cee590e4,2025-03-12_08h04.02.826,Tarea de decisión léxica,2024.2.5,MacIntel,63.29113924,,,,,,,,,,,,,,,,,,,,,,,324.0597,325.0909,a,1,0.3502,,0.3502,1,325.0911,325.5911,,,,,,331,MAS,WORD,DIS,150,éxito,,la,,325.5912,325.5913,-0.262856658,0.009515115,0,0,0,,0,25,25,330,1,erato,,,,
,,,,,,5f3c202dc59223a250d37f11,676192165fb32c2e1fb7aee6,67d194181e13c598cee590e4,2025-03-12_08h04.02.826,Tarea de decisión léxica,2024.2.5,MacIntel,63.29113924,,,,,,,,,,,,,,,,,,,,,,,325.5927,326.6909,l,1,0.4169,,0.4169,1,326.691,327.191,,,,,,160,MAS,NOWORD,DIS,150,bilo,,la,,327.1928,327.1939,-0.262856658,0.009515115,0,0,0,,0,26,26,159,1,giro,,,,
,,,,,,5f3c202dc59223a250d37f11,676192165fb32c2e1fb7aee6,67d194181e13c598cee590e4,2025-03-12_08h04.02.826,Tarea de decisión léxica,2024.2.5,MacIntel,63.29113924,,,,,,,,,,,,,,,,,,,,,,,327.1947,328.3243,l,1,0.4502,,0.4502,1,328.3244,328.8244,,,,,,80,FEM,NOWORD,DIS,150,ciel,,el,,328.8244,328.8245,-0.262856658,0.009515115,0,0,0,,0,27,27,79,1,piel,,,,
,,,,,,5f3c202dc59223a250d37f11,676192165fb32c2e1fb7aee6,67d194181e13c598cee590e4,2025-03-12_08h04.02.826,Tarea de decisión léxica,2024.2.5,MacIntel,63.29113924,,,,,,,,,,,,,,,,,,,,,,,328.826,329.9743,l,1,0.4685,,0.4685,1,329.9744,330.4744,,,,,,292,FEM,NOWORD,DIS,150,mesta,,el,,330.4745,330.4746,-0.262856658,0.009515115,0,0,0,,0,28,28,291,1,pista,,,,
,,,,,,5f3c202dc59223a250d37f11,676192165fb32c2e1fb7aee6,67d194181e13c598cee590e4,2025-03-12_08h04.02.826,Tarea de decisión léxica,2024.2.5,MacIntel,63.29113924,,,,,,,,,,,,,,,,,,,,,,,330.4762,331.6743,l,1,0.521,,0.521,1,331.6744,332.1744,,,,,,38,MAS,NOWORD,AGR,150,gaco,,el,,332.1745,332.1747,-0.262856658,0.009515115,0,0,0,,0,29,29,37,1,rato,,,,
,,,,,,5f3c202dc59223a250d37f11,676192165fb32c2e1fb7aee6,67d194181e13c598cee590e4,2025-03-12_08h04.02.826,Tarea de decisión léxica,2024.2.5,MacIntel,63.29113924,,,,,,,,,,,,,,,,,,,,,,,332.1762,333.2746,l,1,0.4305,,0.4305,1,333.2747,333.7744,,,,,,44,FEM,NOWORD,DIS,150,meda,,el,,333.7745,333.7746,-0.262856658,0.009515115,0,0,0,,0,30,30,43,1,pena,,,,
,,,,,,5f3c202dc59223a250d37f11,676192165fb32c2e1fb7aee6,67d194181e13c598cee590e4,2025-03-12_08h04.02.826,Tarea de decisión léxica,2024.2.5,MacIntel,63.29113924,,,,,,,,,,,,,,,,,,,,,,,333.7762,334.8408,a,1,0.3857,,0.3857,1,334.8409,335.3409,,,,,,313,MAS,WORD,AGR,150,novio,,el,,335.3427,335.3438,-0.262856658,0.009515115,0,0,0,,0,31,31,312,1,govio,,,,
,,,,,,5f3c202dc59223a250d37f11,676192165fb32c2e1fb7aee6,67d194181e13c598cee590e4,2025-03-12_08h04.02.826,Tarea de decisión léxica,2024.2.5,MacIntel,63.29113924,,,,,,,,,,,,,,,,,,,,,,,335.3446,336.5242,l,0,0.5004,,0.5004,0,336.5252,337.0241,,,,,,287,FEM,WORD,AGR,150,lista,,la,,337.0243,337.0244,-0.262856658,0.009515115,0,0,0,,0,32,32,286,1,fosta,,,,
,,,,,,5f3c202dc59223a250d37f11,676192165fb32c2e1fb7aee6,67d194181e13c598cee590e4,2025-03-12_08h04.02.826,Tarea de decisión léxica,2024.2.5,MacIntel,63.29113924,,,,,,,,,,,,,,,,,,,,,,,337.0258,338.29,l,1,0.5835,,0.5835,1,338.2911,338.7909,,,,,,98,MAS,NOWORD,AGR,150,fopo,,el,,338.7911,338.7912,-0.262856658,0.009515115,0,0,0,,0,33,33,97,1,mono,,,,
,,,,,,5f3c202dc59223a250d37f11,676192165fb32c2e1fb7aee6,67d194181e13c598cee590e4,2025-03-12_08h04.02.826,Tarea de decisión léxica,2024.2.5,MacIntel,63.29113924,,,,,,,,,,,,,,,,,,,,,,,338.7925,339.9911,a,1,0.5169,,0.5169,1,339.9912,340.4901,,,,,,187,MAS,WORD,DIS,150,mito,,la,,340.4902,340.4904,-0.262856658,0.009515115,0,0,0,,0,34,34,186,1,suto,,,,
,,,,,,5f3c202dc59223a250d37f11,676192165fb32c2e1fb7aee6,67d194181e13c598cee590e4,2025-03-12_08h04.02.826,Tarea de decisión léxica,2024.2.5,MacIntel,63.29113924,,,,,,,,,,,,,,,,,,,,,,,340.4918,341.7243,l,1,0.5535,,0.5535,1,341.7244,342.2243,,,,,,414,FEM,NOWORD,AGR,150,bieda,,la,,342.2261,342.2274,-0.262856658,0.009515115,0,0,0,,0,35,35,413,1,rueda,,,,
,,,,,,5f3c202dc59223a250d37f11,676192165fb32c2e1fb7aee6,67d194181e13c598cee590e4,2025-03-12_08h04.02.826,Tarea de decisión léxica,2024.2.5,MacIntel,63.29113924,,,,,,,,,,,,,,,,,,,,,,,342.2282,343.3909,l,1,0.4855,,0.4855,1,343.391,343.8909,,,,,,104,FEM,NOWORD,DIS,150,rova,,el,,343.891,343.8912,-0.262856658,0.009515115,0,0,0,,0,36,36,103,1,ruta,,,,
,,,,,,5f3c202dc59223a250d37f11,676192165fb32c2e1fb7aee6,67d194181e13c598cee590e4,2025-03-12_08h04.02.826,Tarea de decisión léxica,2024.2.5,MacIntel,63.29113924,,,,,,,,,,,,,,,,,,,,,,,343.8929,345.0401,l,1,0.4679,,0.4679,1,345.0403,345.5399,,,,,,14,FEM,NOWORD,AGR,150,nola,,la,,345.54,345.5401,-0.262856658,0.009515115,0,0,0,,0,37,37,13,1,hora,,,,
,,,,,,5f3c202dc59223a250d37f11,676192165fb32c2e1fb7aee6,67d194181e13c598cee590e4,2025-03-12_08h04.02.826,Tarea de decisión léxica,2024.2.5,MacIntel,63.29113924,,,,,,,,,,,,,,,,,,,,,,,345.5414,346.5575,l,1,0.3504,,0.3504,1,346.5577,347.0576,,,,,,64,FEM,NOWORD,DIS,150,funa,,el,,347.0577,347.0579,-0.262856658,0.009515115,0,0,0,,0,38,38,63,1,luna,,,,
,,,,,,5f3c202dc59223a250d37f11,676192165fb32c2e1fb7aee6,67d194181e13c598cee590e4,2025-03-12_08h04.02.826,Tarea de decisión léxica,2024.2.5,MacIntel,63.29113924,,,,,,,,,,,,,,,,,,,,,,,347.0596,348.2244,a,1,0.4858,,0.4858,1,348.2246,348.7242,,,,,,419,MAS,WORD,DIS,150,truco,,la,,348.7243,348.7244,-0.262856658,0.009515115,0,0,0,,0,39,39,418,1,chudo,,,,
,,,,,,5f3c202dc59223a250d37f11,676192165fb32c2e1fb7aee6,67d194181e13c598cee590e4,2025-03-12_08h04.02.826,Tarea de decisión léxica,2024.2.5,MacIntel,63.29113924,,,,,,,,,,,,,,,,,,,,,,,348.7259,349.8576,a,1,0.45,,0.45,1,349.8577,350.3576,,,,,,443,MAS,WORD,DIS,150,salón,,la,,350.3594,350.3606,-0.262856658,0.009515115,0,0,0,,0,40,40,442,1,taron,,,,
,,,,,,5f3c202dc59223a250d37f11,676192165fb32c2e1fb7aee6,67d194181e13c598cee590e4,2025-03-12_08h04.02.826,Tarea de decisión léxica,2024.2.5,MacIntel,63.29113924,,,,,,,,,,,,,,,,,,,,,,,350.3614,351.5742,a,1,0.5385,,0.5385,1,351.5743,352.0743,,,,,,151,MAS,WORD,DIS,150,tomo,,la,,352.0744,352.0746,-0.262856658,0.009515115,0,0,0,,0,41,41,150,1,sogo,,,,
,,,,,,5f3c202dc59223a250d37f11,676192165fb32c2e1fb7aee6,67d194181e13c598cee590e4,2025-03-12_08h04.02.826,Tarea de decisión léxica,2024.2.5,MacIntel,63.29113924,,,,,,,,,,,,,,,,,,,,,,,352.0761,353.2733,a,1,0.5171,,0.5171,1,353.2734,353.7743,,,,,,39,MAS,WORD,AGR,150,voto,,el,,353.7744,353.7746,-0.262856658,0.009515115,0,0,0,,0,42,42,38,1,redo,,,,
,,,,,,5f3c202dc59223a250d37f11,676192165fb32c2e1fb7aee6,67d194181e13c598cee590e4,2025-03-12_08h04.02.826,Tarea de decisión léxica,2024.2.5,MacIntel,63.29113924,,,,,,,,,,,,,,,,,,,,,,,353.7762,355.1078,a,1,0.6627,,0.6627,1,355.108,355.6074,,,,,,67,FEM,WORD,AGR,150,nena,,la,,355.6076,355.6077,-0.262856658,0.009515115,0,0,0,,0,43,43,66,1,gesa,,,,
,,,,,,5f3c202dc59223a250d37f11,676192165fb32c2e1fb7aee6,67d194181e13c598cee590e4,2025-03-12_08h04.02.826,Tarea de decisión léxica,2024.2.5,MacIntel,63.29113924,,,,,,,,,,,,,,,,,,,,,,,355.6092,356.7742,l,1,0.4857,,0.4857,1,356.7743,357.2743,,,,,,24,FEM,NOWORD,DIS,150,giva,,el,,357.2745,357.2747,-0.262856658,0.009515115,0,0,0,,0,44,44,23,1,hija,,,,
,,,,,,5f3c202dc59223a250d37f11,676192165fb32c2e1fb7aee6,67d194181e13c598cee590e4,2025-03-12_08h04.02.826,Tarea de decisión léxica,2024.2.5,MacIntel,63.29113924,,,,,,,,,,,,,,,,,,,,,,,357.2764,358.4408,a,1,0.4868,,0.4868,1,358.4409,358.941,,,,,,147,FEM,WORD,DIS,150,hoja,,el,,358.9426,358.944,-0.262856658,0.009515115,0,0,0,,0,45,45,146,1,pama,,,,
,,,,,,5f3c202dc59223a250d37f11,676192165fb32c2e1fb7aee6,67d194181e13c598cee590e4,2025-03-12_08h04.02.826,Tarea de decisión léxica,2024.2.5,MacIntel,63.29113924,,,,,,,,,,,,,,,,,,,,,,,358.945,360.1576,l,1,0.5453,,0.5453,1,360.1577,360.6576,,,,,,308,MAS,NOWORD,DIS,150,holol,,la,,360.6577,360.6578,-0.262856658,0.009515115,0,0,0,,0,46,46,307,1,hotel,,,,
,,,,,,5f3c202dc59223a250d37f11,676192165fb32c2e1fb7aee6,67d194181e13c598cee590e4,2025-03-12_08h04.02.826,Tarea de decisión léxica,2024.2.5,MacIntel,63.29113924,,,,,,,,,,,,,,,,,,,,,,,360.6595,361.8065,a,1,0.4668,,0.4668,1,361.8067,362.3076,,,,,,453,FEM,WORD,AGR,150,mafia,,la,,362.3077,362.3079,-0.262856658,0.009515115,0,0,0,,0,47,47,452,1,pafia,,,,
,,,,,,5f3c202dc59223a250d37f11,676192165fb32c2e1fb7aee6,67d194181e13c598cee590e4,2025-03-12_08h04.02.826,Tarea de decisión léxica,2024.2.5,MacIntel,63.29113924,,,,,,,,,,,,,,,,,,,,,,,362.3096,363.4075,a,1,0.4166,,0.4166,1,363.4076,363.9076,,,,,,303,MAS,WORD,AGR,150,barco,,el,,363.9077,363.9078,-0.262856658,0.009515115,0,0,0,,0,48,48,302,1,lanco,,,,
,,,,,,5f3c202dc59223a250d37f11,676192165fb32c2e1fb7aee6,67d194181e13c598cee590e4,2025-03-12_08h04.02.826,Tarea de decisión léxica,2024.2.5,MacIntel,63.29113924,,,,,,,,,,,,,,,,,,,,,,,363.9093,365.0075,a,1,0.4163,,0.4163,1,365.0077,365.5075,,,,,,205,FEM,WORD,DIS,150,rana,,el,,365.5076,365.5078,-0.262856658,0.009515115,0,0,0,,0,49,49,204,1,bara,,,,
,,,,,,5f3c202dc59223a250d37f11,676192165fb32c2e1fb7aee6,67d194181e13c598cee590e4,2025-03-12_08h04.02.826,Tarea de decisión léxica,2024.2.5,MacIntel,63.29113924,,,,,,,,,,,,,,,,,,,,,,,365.5091,366.6742,a,1,0.484,,0.484,1,366.6743,367.1744,,,,,,185,MAS,WORD,AGR,150,baúl,,el,,367.1759,367.1771,-0.262856658,0.009515115,0,0,0,,0,50,50,184,1,raol,,,,
,,,,,,5f3c202dc59223a250d37f11,676192165fb32c2e1fb7aee6,67d194181e13c598cee590e4,2025-03-12_08h04.02.826,Tarea de decisión léxica,2024.2.5,MacIntel,63.29113924,,,,,,,,,,,,,,,,,,,,,,,367.178,368.2408,a,1,0.3851,,0.3851,1,368.241,368.7409,,,,,,181,FEM,WORD,AGR,150,seda,,la,,368.741,368.7411,-0.262856658,0.009515115,0,0,0,,0,51,51,180,1,teda,,,,
,,,,,,5f3c202dc59223a250d37f11,676192165fb32c2e1fb7aee6,67d194181e13c598cee590e4,2025-03-12_08h04.02.826,Tarea de decisión léxica,2024.2.5,MacIntel,63.29113924,,,,,,,,,,,,,,,,,,,,,,,368.7427,369.7908,a,1,0.3674,,0.3674,1,369.791,370.2904,,,,,,403,FEM,WORD,AGR,150,prima,,la,,370.2904,370.2904,-0.262856658,0.009515115,0,0,0,,0,52,52,402,1,grisa,,,,
,,,,,,5f3c202dc59223a250d37f11,676192165fb32c2e1fb7aee6,67d194181e13c598cee590e4,2025-03-12_08h04.02.826,Tarea de decisión léxica,2024.2.5,MacIntel,63.29113924,,,,,,,,,,,,,,,,,,,,,,,370.2909,371.3242,a,0,0.3667,,0.3667,0,371.3253,371.8242,,,,,,348,FEM,NOWORD,DIS,150,mueza,,el,,371.8243,371.8245,-0.262856658,0.009515115,0,0,0,,0,53,53,347,1,pieza,,,,
,,,,,,5f3c202dc59223a250d37f11,676192165fb32c2e1fb7aee6,67d194181e13c598cee590e4,2025-03-12_08h04.02.826,Tarea de decisión léxica,2024.2.5,MacIntel,63.29113924,,,,,,,,,,,,,,,,,,,,,,,371.8261,372.9907,l,1,0.4941,,0.4941,1,372.9917,373.4908,,,,,,264,FEM,NOWORD,DIS,150,dosta,,el,,373.491,373.491,-0.262856658,0.009515115,0,0,0,,0,54,54,263,1,vista,,,,
,,,,,,5f3c202dc59223a250d37f11,676192165fb32c2e1fb7aee6,67d194181e13c598cee590e4,2025-03-12_08h04.02.826,Tarea de decisión léxica,2024.2.5,MacIntel,63.29113924,,,,,,,,,,,,,,,,,,,,,,,373.4925,374.6576,a,1,0.4839,,0.4839,1,374.6577,375.1565,,,,,,35,MAS,WORD,AGR,150,pelo,,el,,375.1577,375.1589,-0.262856658,0.009515115,0,0,0,,0,55,55,34,1,meno,,,,
,,,,,,5f3c202dc59223a250d37f11,676192165fb32c2e1fb7aee6,67d194181e13c598cee590e4,2025-03-12_08h04.02.826,Tarea de decisión léxica,2024.2.5,MacIntel,63.29113924,,,,,,,,,,,,,,,,,,,,,,,375.1599,376.2742,a,1,0.4347,,0.4347,1,376.2743,376.7742,,,,,,165,FEM,WORD,AGR,150,vela,,la,,376.7744,376.7745,-0.262856658,0.009515115,0,0,0,,0,56,56,164,1,dera,,,,
,,,,,,5f3c202dc59223a250d37f11,676192165fb32c2e1fb7aee6,67d194181e13c598cee590e4,2025-03-12_08h04.02.826,Tarea de decisión léxica,2024.2.5,MacIntel,63.29113924,,,,,,,,,,,,,,,,,,,,,,,376.776,377.9899,l,1,0.5339,,0.5339,1,377.99,378.491,,,,,,58,MAS,NOWORD,AGR,150,heco,,el,,378.491,378.4913,-0.262856658,0.009515115,0,0,0,,0,57,57,57,1,dedo,,,,
,,,,,,5f3c202dc59223a250d37f11,676192165fb32c2e1fb7aee6,67d194181e13c598cee590e4,2025-03-12_08h04.02.826,Tarea de decisión léxica,2024.2.5,MacIntel,63.29113924,,,,,,,,,,,,,,,,,,,,,,,378.4929,379.674,a,1,0.5118,,0.5118,1,379.6742,380.1741,,,,,,375,FEM,WORD,DIS,150,salsa,,el,,380.1742,380.1743,-0.262856658,0.009515115,0,0,0,,0,58,58,374,1,sasna,,,,
,,,,,,5f3c202dc59223a250d37f11,676192165fb32c2e1fb7aee6,67d194181e13c598cee590e4,2025-03-12_08h04.02.826,Tarea de decisión léxica,2024.2.5,MacIntel,63.29113924,,,,,,,,,,,,,,,,,,,,,,,380.1758,381.2407,a,1,0.3884,,0.3884,1,381.2409,381.7409,,,,,,81,FEM,WORD,AGR,150,dama,,la,,381.7424,381.7437,-0.262856658,0.009515115,0,0,0,,0,59,59,80,1,vasa,,,,
,,,,,,5f3c202dc59223a250d37f11,676192165fb32c2e1fb7aee6,67d194181e13c598cee590e4,2025-03-12_08h04.02.826,Tarea de decisión léxica,2024.2.5,MacIntel,63.29113924,,,,,,,,,,,,,,,,,,,,,,,381.7448,382.9068,a,1,0.4834,,0.4834,1,382.907,383.4075,,,,,,367,MAS,WORD,AGR,150,reloj,,el,,383.4075,383.4078,-0.262856658,0.009515115,0,0,0,,0,60,60,366,1,rerob,,,,
,,,,,,5f3c202dc59223a250d37f11,676192165fb32c2e1fb7aee6,67d194181e13c598cee590e4,2025-03-12_08h04.02.826,Tarea de decisión léxica,2024.2.5,MacIntel,63.29113924,,,,,,,,,,,,,,,,,,,,,,,383.4094,384.7242,l,1,0.6333,,0.6333,1,384.7243,385.2231,,,,,,390,MAS,NOWORD,AGR,150,cenco,,el,,385.2232,385.2234,-0.262856658,0.009515115,0,0,0,,0,61,61,389,1,cerdo,,,,
,,,,,,5f3c202dc59223a250d37f11,676192165fb32c2e1fb7aee6,67d194181e13c598cee590e4,2025-03-12_08h04.02.826,Tarea de decisión léxica,2024.2.5,MacIntel,63.29113924,,,,,,,,,,,,,,,,,,,,,,,385.2249,386.6409,l,1,0.7341,,0.7341,1,386.641,387.1411,,,,,,20,MAS,NOWORD,DIS,150,himo,,la,,387.1412,387.1414,-0.262856658,0.009515115,0,0,0,,0,62,62,19,1,niño,,,,
,,,,,,5f3c202dc59223a250d37f11,676192165fb32c2e1fb7aee6,67d194181e13c598cee590e4,2025-03-12_08h04.02.826,Tarea de decisión léxica,2024.2.5,MacIntel,63.29113924,,,,,,,,,,,,,,,,,,,,,,,387.143,388.391,l,1,0.5672,,0.5672,1,388.3912,388.8909,,,,,,140,MAS,NOWORD,DIS,150,nila,,la,,388.891,388.8911,-0.262856658,0.009515115,0,0,0,,0,63,63,139,1,mago,,,,
,,,,,,5f3c202dc59223a250d37f11,676192165fb32c2e1fb7aee6,67d194181e13c598cee590e4,2025-03-12_08h04.02.826,Tarea de decisión léxica,2024.2.5,MacIntel,63.29113924,,,,,,,,,,,,,,,,,,,,,,,388.8928,390.0909,a,1,0.5169,,0.5169,1,390.0911,390.5909,,,,,,207,MAS,WORD,DIS,150,kilo,,la,,390.592,390.5932,-0.262856658,0.009515115,0,0,0,,0,64,64,206,1,kedo,,,,
,,,,,,5f3c202dc59223a250d37f11,676192165fb32c2e1fb7aee6,67d194181e13c598cee590e4,2025-03-12_08h04.02.826,Tarea de decisión léxica,2024.2.5,MacIntel,63.29113924,,,,,,,,,,,,,,,,,,,,,,,390.594,391.8735,l,1,0.6005,,0.6005,1,391.8736,392.3742,,,,,,346,FEM,NOWORD,AGR,150,anera,,la,,392.3743,392.3744,-0.262856658,0.009515115,0,0,0,,0,65,65,345,1,arena,,,,
,,,,,,5f3c202dc59223a250d37f11,676192165fb32c2e1fb7aee6,67d194181e13c598cee590e4,2025-03-12_08h04.02.826,Tarea de decisión léxica,2024.2.5,MacIntel,63.29113924,,,,,,,,,,,,,,,,,,,,,,,392.3759,393.5245,l,1,0.479,,0.479,1,393.5246,394.0242,,,,,,326,FEM,NOWORD,AGR,150,mabia,,la,,394.0244,394.0245,-0.262856658,0.009515115,0,0,0,,0,66,66,325,1,magia,,,,
,,,,,,5f3c202dc59223a250d37f11,676192165fb32c2e1fb7aee6,67d194181e13c598cee590e4,2025-03-12_08h04.02.826,Tarea de decisión léxica,2024.2.5,MacIntel,63.29113924,,,,,,,,,,,,,,,,,,,,,,,394.026,395.2074,a,1,0.5049,,0.5049,1,395.2075,395.7075,,,,,,33,FEM,WORD,AGR,150,boca,,la,,395.7076,395.7078,-0.262856658,0.009515115,0,0,0,,0,67,67,32,1,loda,,,,
,,,,,,5f3c202dc59223a250d37f11,676192165fb32c2e1fb7aee6,67d194181e13c598cee590e4,2025-03-12_08h04.02.826,Tarea de decisión léxica,2024.2.5,MacIntel,63.29113924,,,,,,,,,,,,,,,,,,,,,,,395.7093,396.9575,l,1,0.5665,,0.5665,1,396.9577,397.4574,,,,,,134,FEM,NOWORD,AGR,150,vesa,,la,,397.4576,397.4577,-0.262856658,0.009515115,0,0,0,,0,68,68,133,1,vaca,,,,
,,,,,,5f3c202dc59223a250d37f11,676192165fb32c2e1fb7aee6,67d194181e13c598cee590e4,2025-03-12_08h04.02.826,Tarea de decisión léxica,2024.2.5,MacIntel,63.29113924,,,,,,,,,,,,,,,,,,,,,,,397.4592,398.5743,a,1,0.4335,,0.4335,1,398.5743,399.0742,,,,,,311,MAS,WORD,DIS,150,honor,,la,,399.0756,399.0766,-0.262856658,0.009515115,0,0,0,,0,69,69,310,1,nosor,,,,
,,,,,,5f3c202dc59223a250d37f11,676192165fb32c2e1fb7aee6,67d194181e13c598cee590e4,2025-03-12_08h04.02.826,Tarea de decisión léxica,2024.2.5,MacIntel,63.29113924,,,,,,,,,,,,,,,,,,,,,,,399.0774,400.1575,l,1,0.4003,,0.4003,1,400.1576,400.6575,,,,,,76,MAS,NOWORD,DIS,150,ocer,,la,,400.6575,400.6577,-0.262856658,0.009515115,0,0,0,,0,70,70,75,1,olor,,,,
,,,,,,5f3c202dc59223a250d37f11,676192165fb32c2e1fb7aee6,67d194181e13c598cee590e4,2025-03-12_08h04.02.826,Tarea de decisión léxica,2024.2.5,MacIntel,63.29113924,,,,,,,,,,,,,,,,,,,,,,,400.6591,401.641,a,0,0.3125,,0.3125,0,401.6418,402.1409,,,,,,18,FEM,NOWORD,AGR,150,paba,,la,,402.141,402.1412,-0.262856658,0.009515115,0,0,0,,0,71,71,17,1,mamá,,,,
,,,,,,5f3c202dc59223a250d37f11,676192165fb32c2e1fb7aee6,67d194181e13c598cee590e4,2025-03-12_08h04.02.826,Tarea de decisión léxica,2024.2.5,MacIntel,63.29113924,,,,,,,,,,,,,,,,,,,,,,,402.1428,403.3574,l,1,0.5449,,0.5449,1,403.3586,403.8568,,,,,,200,MAS,NOWORD,DIS,150,fano,,la,,403.8569,403.857,-0.262856658,0.009515115,0,0,0,,0,72,72,199,1,lazo,,,,
,,,,,,5f3c202dc59223a250d37f11,676192165fb32c2e1fb7aee6,67d194181e13c598cee590e4,2025-03-12_08h04.02.826,Tarea de decisión léxica,2024.2.5,MacIntel,63.29113924,,,,,,,,,,,,,,,,,,,,,,,403.8586,405.1908,l,1,0.6499,,0.6499,1,405.1909,405.6909,,,,,,232,FEM,NOWORD,DIS,150,heta,,el,,405.691,405.6912,-0.262856658,0.009515115,0,0,0,,0,73,73,231,1,bota,,,,
,,,,,,5f3c202dc59223a250d37f11,676192165fb32c2e1fb7aee6,67d194181e13c598cee590e4,2025-03-12_08h04.02.826,Tarea de decisión léxica,2024.2.5,MacIntel,63.29113924,,,,,,,,,,,,,,,,,,,,,,,405.6928,406.8241,a,1,0.451,,0.451,1,406.8242,407.3241,,,,,,53,FEM,WORD,AGR,150,boda,,la,,407.3255,407.3266,-0.262856658,0.009515115,0,0,0,,0,74,74,52,1,rora,,,,
,,,,,,5f3c202dc59223a250d37f11,676192165fb32c2e1fb7aee6,67d194181e13c598cee590e4,2025-03-12_08h04.02.826,Tarea de decisión léxica,2024.2.5,MacIntel,63.29113924,,,,,,,,,,,,,,,,,,,,,,,407.3273,408.5408,a,1,0.5347,,0.5347,1,408.5409,409.0409,,,,,,193,FEM,WORD,DIS,150,loca,,el,,409.0409,409.0411,-0.262856658,0.009515115,0,0,0,,0,75,75,192,1,foda,,,,
,,,,,,5f3c202dc59223a250d37f11,676192165fb32c2e1fb7aee6,67d194181e13c598cee590e4,2025-03-12_08h04.02.826,Tarea de decisión léxica,2024.2.5,MacIntel,63.29113924,,,,,,,,,,,,,,,,,,,,,,,409.0426,410.2243,l,1,0.4994,,0.4994,1,410.2245,410.7232,,,,,,434,MAS,NOWORD,AGR,150,durco,,el,,410.7233,410.7236,-0.262856658,0.009515115,0,0,0,,0,76,76,433,1,disco,,,,
,,,,,,5f3c202dc59223a250d37f11,676192165fb32c2e1fb7aee6,67d194181e13c598cee590e4,2025-03-12_08h04.02.826,Tarea de decisión léxica,2024.2.5,MacIntel,63.29113924,,,,,,,,,,,,,,,,,,,,,,,410.7249,411.7742,l,0,0.3671,,0.3671,0,411.7752,412.2743,,,,,,439,FEM,WORD,AGR,150,presa,,la,,412.2743,412.2745,-0.262856658,0.009515115,0,0,0,,0,77,77,438,1,prema,,,,
,,,,,,5f3c202dc59223a250d37f11,676192165fb32c2e1fb7aee6,67d194181e13c598cee590e4,2025-03-12_08h04.02.826,Tarea de decisión léxica,2024.2.5,MacIntel,63.29113924,,,,,,,,,,,,,,,,,,,,,,,412.2762,413.5074,l,1,0.5504,,0.5504,1,413.5083,414.0076,,,,,,256,MAS,NOWORD,DIS,150,mauco,,la,,414.0077,414.0078,-0.262856658,0.009515115,0,0,0,,0,78,78,255,1,miedo,,,,
,,,,,,5f3c202dc59223a250d37f11,676192165fb32c2e1fb7aee6,67d194181e13c598cee590e4,2025-03-12_08h04.02.826,Tarea de decisión léxica,2024.2.5,MacIntel,63.29113924,,,,,,,,,,,,,,,,,,,,,,,414.0093,415.224,l,1,0.5463,,0.5463,1,415.2241,415.7242,,,,,,320,MAS,NOWORD,DIS,150,tuero,,la,,415.7258,415.7269,-0.262856658,0.009515115,0,0,0,,0,79,79,319,1,suelo,,,,
,,,,,,5f3c202dc59223a250d37f11,676192165fb32c2e1fb7aee6,67d194181e13c598cee590e4,2025-03-12_08h04.02.826,Tarea de decisión léxica,2024.2.5,MacIntel,63.29113924,,,,,,,,,,,,,,,,,,,,,,,415.7278,416.9244,a,1,0.5293,,0.5293,1,416.9245,417.4244,,,,,,113,FEM,WORD,DIS,150,miel,,el,,417.4244,417.4245,-0.262856658,0.009515115,0,0,0,,0,80,80,112,1,tada,,,,
,,,,,,5f3c202dc59223a250d37f11,676192165fb32c2e1fb7aee6,67d194181e13c598cee590e4,2025-03-12_08h04.02.826,Tarea de decisión léxica,2024.2.5,MacIntel,63.29113924,,,,,,,,,,,,,,,,,,,,,,,417.4262,418.7408,l,1,0.6343,,0.6343,1,418.7409,419.2408,,,,,,74,MAS,NOWORD,AGR,150,omio,,el,,419.2409,419.241,-0.262856658,0.009515115,0,0,0,,0,81,81,73,1,odio,,,,
,,,,,,5f3c202dc59223a250d37f11,676192165fb32c2e1fb7aee6,67d194181e13c598cee590e4,2025-03-12_08h04.02.826,Tarea de decisión léxica,2024.2.5,MacIntel,63.29113924,,,,,,,,,,,,,,,,,,,,,,,419.2423,420.3575,a,1,0.4342,,0.4342,1,420.3576,420.8575,,,,,,459,MAS,WORD,AGR,150,grado,,el,,420.8576,420.8577,-0.262856658,0.009515115,0,0,0,,0,82,82,458,1,fraco,,,,
,,,,,,5f3c202dc59223a250d37f11,676192165fb32c2e1fb7aee6,67d194181e13c598cee590e4,2025-03-12_08h04.02.826,Tarea de decisión léxica,2024.2.5,MacIntel,63.29113924,,,,,,,,,,,,,,,,,,,,,,,420.859,421.9241,l,1,0.3837,,0.3837,1,421.9243,422.4243,,,,,,364,FEM,NOWORD,DIS,150,veida,,el,,422.4259,422.4272,-0.262856658,0.009515115,0,0,0,,0,83,83,363,1,deuda,,,,
,,,,,,5f3c202dc59223a250d37f11,676192165fb32c2e1fb7aee6,67d194181e13c598cee590e4,2025-03-12_08h04.02.826,Tarea de decisión léxica,2024.2.5,MacIntel,63.29113924,,,,,,,,,,,,,,,,,,,,,,,422.4281,423.5742,l,1,0.4673,,0.4673,1,423.5743,424.0741,,,,,,224,FEM,NOWORD,DIS,150,cira,,el,,424.0742,424.0744,-0.262856658,0.009515115,0,0,0,,0,84,84,223,1,cera,,,,
,,,,,,5f3c202dc59223a250d37f11,676192165fb32c2e1fb7aee6,67d194181e13c598cee590e4,2025-03-12_08h04.02.826,Tarea de decisión léxica,2024.2.5,MacIntel,63.29113924,,,,,,,,,,,,,,,,,,,,,,,424.076,425.2576,a,1,0.501,,0.501,1,425.2577,425.7573,,,,,,413,FEM,WORD,DIS,150,rueda,,el,,425.7573,425.7574,-0.262856658,0.009515115,0,0,0,,0,85,85,412,1,bieda,,,,
,,,,,,5f3c202dc59223a250d37f11,676192165fb32c2e1fb7aee6,67d194181e13c598cee590e4,2025-03-12_08h04.02.826,Tarea de decisión léxica,2024.2.5,MacIntel,63.29113924,,,,,,,,,,,,,,,,,,,,,,,425.7586,426.9573,l,1,0.5262,,0.5262,1,426.9574,427.4566,,,,,,188,MAS,NOWORD,DIS,150,suto,,la,,427.4567,427.4568,-0.262856658,0.009515115,0,0,0,,0,86,86,187,1,mito,,,,
,,,,,,5f3c202dc59223a250d37f11,676192165fb32c2e1fb7aee6,67d194181e13c598cee590e4,2025-03-12_08h04.02.826,Tarea de decisión léxica,2024.2.5,MacIntel,63.29113924,,,,,,,,,,,,,,,,,,,,,,,427.4582,428.6907,l,1,0.5525,,0.5525,1,428.6908,429.1907,,,,,,406,FEM,NOWORD,AGR,150,rarra,,la,,429.1909,429.191,-0.262856658,0.009515115,0,0,0,,0,87,87,405,1,barra,,,,
,,,,,,5f3c202dc59223a250d37f11,676192165fb32c2e1fb7aee6,67d194181e13c598cee590e4,2025-03-12_08h04.02.826,Tarea de decisión léxica,2024.2.5,MacIntel,63.29113924,,,,,,,,,,,,,,,,,,,,,,,429.1924,430.4406,l,1,0.5679,,0.5679,1,430.4407,430.9406,,,,,,396,FEM,NOWORD,DIS,150,paeda,,el,,430.942,430.943,-0.262856658,0.009515115,0,0,0,,0,88,88,395,1,caída,,,,
,,,,,,5f3c202dc59223a250d37f11,676192165fb32c2e1fb7aee6,67d194181e13c598cee590e4,2025-03-12_08h04.02.826,Tarea de decisión léxica,2024.2.5,MacIntel,63.29113924,,,,,,,,,,,,,,,,,,,,,,,430.9438,432.0407,l,1,0.4173,,0.4173,1,432.0409,432.5408,,,,,,424,MAS,NOWORD,DIS,150,quigo,,la,,432.5409,432.5411,-0.262856658,0.009515115,0,0,0,,0,89,89,423,1,queso,,,,
,,,,,,5f3c202dc59223a250d37f11,676192165fb32c2e1fb7aee6,67d194181e13c598cee590e4,2025-03-12_08h04.02.826,Tarea de decisión léxica,2024.2.5,MacIntel,63.29113924,,,,,,,,,,,,,,,,,,,,,,,432.5424,433.774,l,1,0.5502,,0.5502,1,433.7741,434.2742,,,,,,154,MAS,NOWORD,AGR,150,tado,,el,,434.2743,434.2745,-0.262856658,0.009515115,0,0,0,,0,90,90,153,1,pato,,,,
,,,,,,5f3c202dc59223a250d37f11,676192165fb32c2e1fb7aee6,67d194181e13c598cee590e4,2025-03-12_08h04.02.826,Tarea de decisión léxica,2024.2.5,MacIntel,63.29113924,,,,,,,,,,,,,,,,,,,,,,,434.276,435.3907,l,1,0.4334,,0.4334,1,435.3908,435.8908,,,,,,296,MAS,NOWORD,DIS,150,goler,,la,,435.8909,435.8911,-0.262856658,0.009515115,0,0,0,,0,91,91,295,1,dolor,,,,
,,,,,,5f3c202dc59223a250d37f11,676192165fb32c2e1fb7aee6,67d194181e13c598cee590e4,2025-03-12_08h04.02.826,Tarea de decisión léxica,2024.2.5,MacIntel,63.29113924,,,,,,,,,,,,,,,,,,,,,,,435.8926,437.124,a,1,0.5514,,0.5514,1,437.1241,437.6241,,,,,,75,MAS,WORD,AGR,150,olor,,el,,437.6241,437.6243,-0.262856658,0.009515115,0,0,0,,0,92,92,74,1,ocer,,,,
,,,,,,5f3c202dc59223a250d37f11,676192165fb32c2e1fb7aee6,67d194181e13c598cee590e4,2025-03-12_08h04.02.826,Tarea de decisión léxica,2024.2.5,MacIntel,63.29113924,,,,,,,,,,,,,,,,,,,,,,,437.6255,438.924,a,1,0.6174,,0.6174,1,438.9241,439.4241,,,,,,171,MAS,WORD,DIS,150,hilo,,la,,439.4258,439.4271,-0.262856658,0.009515115,0,0,0,,0,93,93,170,1,niro,,,,
,,,,,,5f3c202dc59223a250d37f11,676192165fb32c2e1fb7aee6,67d194181e13c598cee590e4,2025-03-12_08h04.02.826,Tarea de decisión léxica,2024.2.5,MacIntel,63.29113924,,,,,,,,,,,,,,,,,,,,,,,439.428,440.6239,l,1,0.517,,0.517,1,440.6241,441.1241,,,,,,144,MAS,NOWORD,DIS,150,pezo,,la,,441.1242,441.1243,-0.262856658,0.009515115,0,0,0,,0,94,94,143,1,pavo,,,,
,,,,,,5f3c202dc59223a250d37f11,676192165fb32c2e1fb7aee6,67d194181e13c598cee590e4,2025-03-12_08h04.02.826,Tarea de decisión léxica,2024.2.5,MacIntel,63.29113924,,,,,,,,,,,,,,,,,,,,,,,441.1257,442.3072,a,1,0.5122,,0.5122,1,442.3073,442.8074,,,,,,417,FEM,WORD,DIS,150,barba,,el,,442.8075,442.8077,-0.262856658,0.009515115,0,0,0,,0,95,95,416,1,banja,,,,
,,,,,,5f3c202dc59223a250d37f11,676192165fb32c2e1fb7aee6,67d194181e13c598cee590e4,2025-03-12_08h04.02.826,Tarea de decisión léxica,2024.2.5,MacIntel,63.29113924,,,,,,,,,,,,,,,,,,,,,,,442.8093,443.8739,l,1,0.3957,,0.3957,1,443.874,444.374,,,,,,410,MAS,NOWORD,AGR,150,pafro,,el,,444.374,444.3742,-0.262856658,0.009515115,0,0,0,,0,96,96,409,1,carro,,,,
,,,,,,5f3c202dc59223a250d37f11,676192165fb32c2e1fb7aee6,67d194181e13c598cee590e4,2025-03-12_08h04.02.826,Tarea de decisión léxica,2024.2.5,MacIntel,63.29113924,,,,,,,,,,,,,,,,,,,,,,,444.3756,445.5073,l,1,0.452,,0.452,1,445.5074,446.0073,,,,,,276,MAS,NOWORD,DIS,150,musto,,la,,446.0075,446.0076,-0.262856658,0.009515115,0,0,0,,0,97,97,275,1,punto,,,,
,,,,,,5f3c202dc59223a250d37f11,676192165fb32c2e1fb7aee6,67d194181e13c598cee590e4,2025-03-12_08h04.02.826,Tarea de decisión léxica,2024.2.5,MacIntel,63.29113924,,,,,,,,,,,,,,,,,,,,,,,446.0091,446.9573,l,0,0.2688,,0.2688,0,446.9586,447.4574,,,,,,69,FEM,WORD,DIS,150,zona,,el,,447.4589,447.4603,-0.262856658,0.009515115,0,0,0,,0,98,98,68,1,ñola,,,,
,,,,,,5f3c202dc59223a250d37f11,676192165fb32c2e1fb7aee6,67d194181e13c598cee590e4,2025-03-12_08h04.02.826,Tarea de decisión léxica,2024.2.5,MacIntel,63.29113924,,,,,,,,,,,,,,,,,,,,,,,447.4612,448.6231,a,1,0.4838,,0.4838,1,448.6242,449.1241,,,,,,323,FEM,WORD,AGR,150,cinta,,la,,449.1241,449.1243,-0.262856658,0.009515115,0,0,0,,0,99,99,322,1,certa,,,,
,,,,,,5f3c202dc59223a250d37f11,676192165fb32c2e1fb7aee6,67d194181e13c598cee590e4,2025-03-12_08h04.02.826,Tarea de decisión léxica,2024.2.5,MacIntel,63.29113924,,,,,,,,,,,,,,,,,,,,,,,449.1256,450.3573,l,1,0.551,,0.551,1,450.3574,450.8574,,,,,,432,MAS,NOWORD,DIS,150,tetor,,la,,450.8575,450.8577,-0.262856658,0.009515115,0,0,0,,0,100,100,431,1,motor,,,,
,,,,,,5f3c202dc59223a250d37f11,676192165fb32c2e1fb7aee6,67d194181e13c598cee590e4,2025-03-12_08h04.02.826,Tarea de decisión léxica,2024.2.5,MacIntel,63.29113924,,,,,,,,,,,,,,,,,,,,,,,450.8591,452.1572,l,1,0.6285,,0.6285,1,452.1573,452.6573,,,,,,290,FEM,NOWORD,AGR,150,bumpa,,la,,452.6575,452.6576,-0.262856658,0.009515115,0,0,0,,0,101,101,289,1,bomba,,,,
,,,,,,5f3c202dc59223a250d37f11,676192165fb32c2e1fb7aee6,67d194181e13c598cee590e4,2025-03-12_08h04.02.826,Tarea de decisión léxica,2024.2.5,MacIntel,63.29113924,,,,,,,,,,,,,,,,,,,,,,,452.6592,454.3072,l,1,0.967,,0.967,1,454.3073,454.8075,,,,,,220,FEM,NOWORD,DIS,150,miva,,el,,454.8075,454.8078,-0.262856658,0.009515115,0,0,0,,0,102,102,219,1,pipa,,,,
,,,,,,5f3c202dc59223a250d37f11,676192165fb32c2e1fb7aee6,67d194181e13c598cee590e4,2025-03-12_08h04.02.826,Tarea de decisión léxica,2024.2.5,MacIntel,63.29113924,,,,,,,,,,,,,,,,,,,,,,,454.8092,455.9239,a,1,0.4338,,0.4338,1,455.9241,456.4239,,,,,,295,MAS,WORD,AGR,150,dolor,,el,,456.4253,456.4264,-0.262856658,0.009515115,0,0,0,,0,103,103,294,1,goler,,,,
,,,,,,5f3c202dc59223a250d37f11,676192165fb32c2e1fb7aee6,67d194181e13c598cee590e4,2025-03-12_08h04.02.826,Tarea de decisión léxica,2024.2.5,MacIntel,63.29113924,,,,,,,,,,,,,,,,,,,,,,,456.4272,457.6238,a,1,0.5181,,0.5181,1,457.624,458.124,,,,,,435,MAS,WORD,AGR,150,ritmo,,el,,458.124,458.1242,-0.262856658,0.009515115,0,0,0,,0,104,104,434,1,ricno,,,,
,,,,,,5f3c202dc59223a250d37f11,676192165fb32c2e1fb7aee6,67d194181e13c598cee590e4,2025-03-12_08h04.02.826,Tarea de decisión léxica,2024.2.5,MacIntel,63.29113924,,,,,,,,,,,,,,,,,,,,,,,458.1253,459.2239,a,1,0.4206,,0.4206,1,459.224,459.724,,,,,,477,MAS,WORD,DIS,150,botón,,la,,459.7241,459.7243,-0.262856658,0.009515115,0,0,0,,0,105,105,476,1,hocon,,,,
,,,,,,5f3c202dc59223a250d37f11,676192165fb32c2e1fb7aee6,67d194181e13c598cee590e4,2025-03-12_08h04.02.826,Tarea de decisión léxica,2024.2.5,MacIntel,63.29113924,,,,,,,,,,,,,,,,,,,,,,,459.7258,460.9405,l,1,0.5346,,0.5346,1,460.9407,461.4407,,,,,,228,MAS,NOWORD,DIS,150,laro,,la,,461.4408,461.4409,-0.262856658,0.009515115,0,0,0,,0,106,106,227,1,faro,,,,
,,,,,,5f3c202dc59223a250d37f11,676192165fb32c2e1fb7aee6,67d194181e13c598cee590e4,2025-03-12_08h04.02.826,Tarea de decisión léxica,2024.2.5,MacIntel,63.29113924,,,,,,,,,,,,,,,,,,,,,,,461.4423,462.7739,l,1,0.65,,0.65,1,462.774,463.2739,,,,,,382,MAS,NOWORD,AGR,150,nusor,,el,,463.2752,463.2764,-0.262856658,0.009515115,0,0,0,,0,107,107,381,1,humor,,,,
,,,,,,5f3c202dc59223a250d37f11,676192165fb32c2e1fb7aee6,67d194181e13c598cee590e4,2025-03-12_08h04.02.826,Tarea de decisión léxica,2024.2.5,MacIntel,63.29113924,,,,,,,,,,,,,,,,,,,,,,,463.2773,464.573,l,1,0.6172,,0.6172,1,464.5731,465.0741,,,,,,54,FEM,NOWORD,AGR,150,rora,,la,,465.0742,465.0742,-0.262856658,0.009515115,0,0,0,,0,108,108,53,1,boda,,,,
,,,,,,5f3c202dc59223a250d37f11,676192165fb32c2e1fb7aee6,67d194181e13c598cee590e4,2025-03-12_08h04.02.826,Tarea de decisión léxica,2024.2.5,MacIntel,63.29113924,,,,,,,,,,,,,,,,,,,,,,,465.0755,466.2739,l,1,0.5172,,0.5172,1,466.2741,466.7739,,,,,,472,FEM,NOWORD,DIS,150,prana,,el,,466.774,466.7741,-0.262856658,0.009515115,0,0,0,,0,109,109,471,1,grasa,,,,
,,,,,,5f3c202dc59223a250d37f11,676192165fb32c2e1fb7aee6,67d194181e13c598cee590e4,2025-03-12_08h04.02.826,Tarea de decisión léxica,2024.2.5,MacIntel,63.29113924,,,,,,,,,,,,,,,,,,,,,,,466.7755,467.9406,a,1,0.4957,,0.4957,1,467.9407,468.4405,,,,,,317,FEM,WORD,DIS,150,playa,,el,,468.4406,468.4407,-0.262856658,0.009515115,0,0,0,,0,110,110,316,1,plaad,,,,
,,,,,,5f3c202dc59223a250d37f11,676192165fb32c2e1fb7aee6,67d194181e13c598cee590e4,2025-03-12_08h04.02.826,Tarea de decisión léxica,2024.2.5,MacIntel,63.29113924,,,,,,,,,,,,,,,,,,,,,,,468.4421,469.6063,l,1,0.4838,,0.4838,1,469.6063,470.1068,,,,,,196,FEM,NOWORD,DIS,150,sira,,el,,470.1068,470.107,-0.262856658,0.009515115,0,0,0,,0,111,111,195,1,tela,,,,
,,,,,,5f3c202dc59223a250d37f11,676192165fb32c2e1fb7aee6,67d194181e13c598cee590e4,2025-03-12_08h04.02.826,Tarea de decisión léxica,2024.2.5,MacIntel,63.29113924,,,,,,,,,,,,,,,,,,,,,,,470.1082,471.2731,a,1,0.4838,,0.4838,1,471.2732,471.774,,,,,,289,FEM,WORD,DIS,150,bomba,,el,,471.7753,471.7765,-0.262856658,0.009515115,0,0,0,,0,112,112,288,1,bumpa,,,,
,,,,,,5f3c202dc59223a250d37f11,676192165fb32c2e1fb7aee6,67d194181e13c598cee590e4,2025-03-12_08h04.02.826,Tarea de decisión léxica,2024.2.5,MacIntel,63.29113924,,,,,,,,,,,,,,,,,,,,,,,471.7773,472.8072,l,1,0.352,,0.352,1,472.8075,473.3073,,,,,,464,FEM,NOWORD,DIS,150,matla,,el,,473.3075,473.3076,-0.262856658,0.009515115,0,0,0,,0,113,113,463,1,cabra,,,,
,,,,,,5f3c202dc59223a250d37f11,676192165fb32c2e1fb7aee6,67d194181e13c598cee590e4,2025-03-12_08h04.02.826,Tarea de decisión léxica,2024.2.5,MacIntel,63.29113924,,,,,,,,,,,,,,,,,,,,,,,473.3092,474.8732,l,1,0.8833,,0.8833,1,474.8734,475.374,,,,,,142,FEM,NOWORD,AGR,150,sina,,la,,475.3741,475.3742,-0.262856658,0.009515115,0,0,0,,0,114,114,141,1,cruz,,,,
,,,,,,5f3c202dc59223a250d37f11,676192165fb32c2e1fb7aee6,67d194181e13c598cee590e4,2025-03-12_08h04.02.826,Tarea de decisión léxica,2024.2.5,MacIntel,63.29113924,,,,,,,,,,,,,,,,,,,,,,,475.3757,476.7739,l,0,0.718,,0.718,0,476.7748,477.2739,,,,,,223,FEM,WORD,DIS,150,cera,,el,,477.2739,477.2741,-0.262856658,0.009515115,0,0,0,,0,115,115,222,1,cira,,,,
,,,,,,5f3c202dc59223a250d37f11,676192165fb32c2e1fb7aee6,67d194181e13c598cee590e4,2025-03-12_08h04.02.826,Tarea de decisión léxica,2024.2.5,MacIntel,63.29113924,,,,,,,,,,,,,,,,,,,,,,,477.2755,478.5239,l,1,0.5788,,0.5788,1,478.5248,479.024,,,,,,34,FEM,NOWORD,AGR,150,loda,,la,,479.024,479.0242,-0.262856658,0.009515115,0,0,0,,0,116,116,33,1,boca,,,,
,,,,,,5f3c202dc59223a250d37f11,676192165fb32c2e1fb7aee6,67d194181e13c598cee590e4,2025-03-12_08h04.02.826,Tarea de decisión léxica,2024.2.5,MacIntel,63.29113924,,,,,,,,,,,,,,,,,,,,,,,479.0256,480.224,l,1,0.5164,,0.5164,1,480.2241,480.7239,,,,,,474,FEM,NOWORD,AGR,150,felia,,la,,480.7254,480.7264,-0.262856658,0.009515115,0,0,0,,0,117,117,473,1,feria,,,,
,,,,,,5f3c202dc59223a250d37f11,676192165fb32c2e1fb7aee6,67d194181e13c598cee590e4,2025-03-12_08h04.02.826,Tarea de decisión léxica,2024.2.5,MacIntel,63.29113924,,,,,,,,,,,,,,,,,,,,,,,480.7273,481.8739,a,1,0.4709,,0.4709,1,481.874,482.374,,,,,,457,MAS,WORD,DIS,150,plato,,la,,482.3741,482.3743,-0.262856658,0.009515115,0,0,0,,0,118,118,456,1,glaco,,,,
,,,,,,5f3c202dc59223a250d37f11,676192165fb32c2e1fb7aee6,67d194181e13c598cee590e4,2025-03-12_08h04.02.826,Tarea de decisión léxica,2024.2.5,MacIntel,63.29113924,,,,,,,,,,,,,,,,,,,,,,,482.3757,483.4574,l,1,0.3996,,0.3996,1,483.4576,483.9574,,,,,,90,MAS,NOWORD,AGR,150,guso,,el,,483.9575,483.9576,-0.262856658,0.009515115,0,0,0,,0,119,119,89,1,humo,,,,
,,,,,,5f3c202dc59223a250d37f11,676192165fb32c2e1fb7aee6,67d194181e13c598cee590e4,2025-03-12_08h04.02.826,Tarea de decisión léxica,2024.2.5,MacIntel,63.29113924,,,,,,,,,,,,,,,,,,,,,,,483.9592,485.1405,a,1,0.5016,,0.5016,1,485.1407,485.6395,,,,,,17,FEM,WORD,AGR,150,mamá,,la,,485.6396,485.6397,-0.262856658,0.009515115,0,0,0,,0,120,120,16,1,paba,,,,
,,,,,,5f3c202dc59223a250d37f11,676192165fb32c2e1fb7aee6,67d194181e13c598cee590e4,2025-03-12_08h04.02.826,Tarea de decisión léxica,2024.2.5,MacIntel,63.29113924,,,,,,,,,,,,,,,,,,,,,,,485.641,486.8734,l,1,0.5669,,0.5669,1,486.8736,487.374,,,,,,8,MAS,NOWORD,DIS,150,nivo,,la,,487.3741,487.3742,-0.262856658,0.009515115,0,0,0,,0,121,121,7,1,hijo,,,,
,,,,,,5f3c202dc59223a250d37f11,676192165fb32c2e1fb7aee6,67d194181e13c598cee590e4,2025-03-12_08h04.02.826,Tarea de decisión léxica,2024.2.5,MacIntel,63.29113924,,,,,,,,,,,,,,,,,,,,,,,487.3757,488.4237,l,1,0.3779,,0.3779,1,488.4238,488.9239,,,,,,250,FEM,NOWORD,AGR,150,plane,,la,,488.9254,488.9267,-0.262856658,0.009515115,0,0,0,,0,122,122,249,1,clase,,,,
,,,,,,5f3c202dc59223a250d37f11,676192165fb32c2e1fb7aee6,67d194181e13c598cee590e4,2025-03-12_08h04.02.826,Tarea de decisión léxica,2024.2.5,MacIntel,63.29113924,,,,,,,,,,,,,,,,,,,,,,,488.9277,489.9732,l,1,0.3788,,0.3788,1,489.9733,490.474,,,,,,152,MAS,NOWORD,DIS,150,sogo,,la,,490.4741,490.4743,-0.262856658,0.009515115,0,0,0,,0,123,123,151,1,tomo,,,,
,,,,,,5f3c202dc59223a250d37f11,676192165fb32c2e1fb7aee6,67d194181e13c598cee590e4,2025-03-12_08h04.02.826,Tarea de decisión léxica,2024.2.5,MacIntel,63.29113924,,,,,,,,,,,,,,,,,,,,,,,490.4759,491.5239,l,1,0.3672,,0.3672,1,491.5241,492.024,,,,,,476,FEM,NOWORD,DIS,150,mucta,,el,,492.024,492.0242,-0.262856658,0.009515115,0,0,0,,0,124,124,475,1,manta,,,,
,,,,,,5f3c202dc59223a250d37f11,676192165fb32c2e1fb7aee6,67d194181e13c598cee590e4,2025-03-12_08h04.02.826,Tarea de decisión léxica,2024.2.5,MacIntel,63.29113924,,,,,,,,,,,,,,,,,,,,,,,492.0257,493.0573,l,1,0.3506,,0.3506,1,493.0574,493.5572,,,,,,96,FEM,NOWORD,DIS,151,neda,,el,,493.5573,493.5574,-0.262856658,0.009515115,0,0,0,,0,125,125,95,1,moda,,,,
,,,,,,5f3c202dc59223a250d37f11,676192165fb32c2e1fb7aee6,67d194181e13c598cee590e4,2025-03-12_08h04.02.826,Tarea de decisión léxica,2024.2.5,MacIntel,63.29113924,,,,,,,,,,,,,,,,,,,,,,,493.559,494.7071,a,1,0.4689,,0.4689,1,494.7073,495.2073,,,,,,455,MAS,WORD,AGR,150,reino,,el,,495.2074,495.2075,-0.262856658,0.009515115,0,0,0,,0,126,126,454,1,riaso,,,,
,,,,,,5f3c202dc59223a250d37f11,676192165fb32c2e1fb7aee6,67d194181e13c598cee590e4,2025-03-12_08h04.02.826,Tarea de decisión léxica,2024.2.5,MacIntel,63.29113924,,,,,,,,,,,,,,,,,,,,,,,495.2092,496.4238,a,1,0.5449,,0.5449,1,496.4238,496.9241,,,,,,319,MAS,WORD,DIS,150,suelo,,la,,496.9255,496.9265,-0.262856658,0.009515115,0,0,0,,0,127,127,318,1,tuero,,,,
,,,,,,5f3c202dc59223a250d37f11,676192165fb32c2e1fb7aee6,67d194181e13c598cee590e4,2025-03-12_08h04.02.826,Tarea de decisión léxica,2024.2.5,MacIntel,63.29113924,,,,,,,,,,,,,,,,,,,,,,,496.9273,497.9238,l,1,0.3211,,0.3211,1,497.9239,498.4239,,,,,,210,MAS,NOWORD,AGR,150,dero,,el,,498.424,498.424,-0.262856658,0.009515115,0,0,0,,0,128,128,209,1,velo,,,,
,,,,,,5f3c202dc59223a250d37f11,676192165fb32c2e1fb7aee6,67d194181e13c598cee590e4,2025-03-12_08h04.02.826,Tarea de decisión léxica,2024.2.5,MacIntel,63.29113924,,,,,,,,,,,,,,,,,,,,,,,498.4255,499.4063,l,1,0.3006,,0.3006,1,499.4064,499.9073,,,,,,48,MAS,NOWORD,DIS,150,chub,,la,,499.9074,499.9076,-0.262856658,0.009515115,0,0,0,,0,129,129,47,1,club,,,,
,,,,,,5f3c202dc59223a250d37f11,676192165fb32c2e1fb7aee6,67d194181e13c598cee590e4,2025-03-12_08h04.02.826,Tarea de decisión léxica,2024.2.5,MacIntel,63.29113924,,,,,,,,,,,,,,,,,,,,,,,499.9091,501.1405,a,0,0.55,,0.55,0,501.1414,501.6406,,,,,,460,MAS,NOWORD,DIS,150,fraco,,la,,501.6406,501.6408,-0.262856658,0.009515115,0,0,0,,0,130,130,459,1,grado,,,,
,,,,,,5f3c202dc59223a250d37f11,676192165fb32c2e1fb7aee6,67d194181e13c598cee590e4,2025-03-12_08h04.02.826,Tarea de decisión léxica,2024.2.5,MacIntel,63.29113924,,,,,,,,,,,,,,,,,,,,,,,501.6422,502.7572,l,1,0.4335,,0.4335,1,502.7583,503.2573,,,,,,338,MAS,NOWORD,AGR,150,nuejo,,el,,503.2589,503.2601,-0.262856658,0.009515115,0,0,0,,0,131,131,337,1,huevo,,,,
,,,,,,5f3c202dc59223a250d37f11,676192165fb32c2e1fb7aee6,67d194181e13c598cee590e4,2025-03-12_08h04.02.826,Tarea de decisión léxica,2024.2.5,MacIntel,63.29113924,,,,,,,,,,,,,,,,,,,,,,,503.261,504.4405,a,1,0.5051,,0.5051,1,504.4407,504.9406,,,,,,127,MAS,WORD,DIS,150,pico,,la,,504.9407,504.9409,-0.262856658,0.009515115,0,0,0,,0,132,132,126,1,itio,,,,
,,,,,,5f3c202dc59223a250d37f11,676192165fb32c2e1fb7aee6,67d194181e13c598cee590e4,2025-03-12_08h04.02.826,Tarea de decisión léxica,2024.2.5,MacIntel,63.29113924,,,,,,,,,,,,,,,,,,,,,,,504.9424,506.0906,a,1,0.4668,,0.4668,1,506.0907,506.5906,,,,,,451,FEM,WORD,DIS,150,fruta,,el,,506.5907,506.5908,-0.262856658,0.009515115,0,0,0,,0,133,133,450,1,clita,,,,
,,,,,,5f3c202dc59223a250d37f11,676192165fb32c2e1fb7aee6,67d194181e13c598cee590e4,2025-03-12_08h04.02.826,Tarea de decisión léxica,2024.2.5,MacIntel,63.29113924,,,,,,,,,,,,,,,,,,,,,,,506.5924,507.7903,a,1,0.5168,,0.5168,1,507.7905,508.2907,,,,,,73,MAS,WORD,DIS,150,odio,,la,,508.2907,508.2909,-0.262856658,0.009515115,0,0,0,,0,134,134,72,1,omio,,,,
,,,,,,5f3c202dc59223a250d37f11,676192165fb32c2e1fb7aee6,67d194181e13c598cee590e4,2025-03-12_08h04.02.826,Tarea de decisión léxica,2024.2.5,MacIntel,63.29113924,,,,,,,,,,,,,,,,,,,,,,,508.2924,509.4571,a,1,0.485,,0.485,1,509.4573,509.9572,,,,,,133,FEM,WORD,DIS,150,vaca,,el,,509.9574,509.9575,-0.262856658,0.009515115,0,0,0,,0,135,135,132,1,vesa,,,,
,,,,,,5f3c202dc59223a250d37f11,676192165fb32c2e1fb7aee6,67d194181e13c598cee590e4,2025-03-12_08h04.02.826,Tarea de decisión léxica,2024.2.5,MacIntel,63.29113924,,,,,,,,,,,,,,,,,,,,,,,509.959,511.0237,l,1,0.3957,,0.3957,1,511.0238,511.5238,,,,,,408,FEM,NOWORD,DIS,150,cauba,,el,,511.5254,511.5265,-0.262856658,0.009515115,0,0,0,,0,136,136,407,1,cueva,,,,
,,,,,,5f3c202dc59223a250d37f11,676192165fb32c2e1fb7aee6,67d194181e13c598cee590e4,2025-03-12_08h04.02.826,Tarea de decisión léxica,2024.2.5,MacIntel,63.29113924,,,,,,,,,,,,,,,,,,,,,,,511.5275,512.5905,l,1,0.3834,,0.3834,1,512.5907,513.0907,,,,,,190,MAS,NOWORD,AGR,150,muvo,,el,,513.0907,513.0909,-0.262856658,0.009515115,0,0,0,,0,137,137,189,1,puño,,,,
,,,,,,5f3c202dc59223a250d37f11,676192165fb32c2e1fb7aee6,67d194181e13c598cee590e4,2025-03-12_08h04.02.826,Tarea de decisión léxica,2024.2.5,MacIntel,63.29113924,,,,,,,,,,,,,,,,,,,,,,,513.0925,514.1237,l,1,0.3553,,0.3553,1,514.1238,514.6239,,,,,,158,MAS,NOWORD,AGR,150,hico,,el,,514.6239,514.6243,-0.262856658,0.009515115,0,0,0,,0,138,138,157,1,nido,,,,
,,,,,,5f3c202dc59223a250d37f11,676192165fb32c2e1fb7aee6,67d194181e13c598cee590e4,2025-03-12_08h04.02.826,Tarea de decisión léxica,2024.2.5,MacIntel,63.29113924,,,,,,,,,,,,,,,,,,,,,,,514.6258,515.7906,l,1,0.4837,,0.4837,1,515.7907,516.2906,,,,,,458,MAS,NOWORD,AGR,150,glaco,,el,,516.2906,516.2908,-0.262856658,0.009515115,0,0,0,,0,139,139,457,1,plato,,,,
,,,,,,5f3c202dc59223a250d37f11,676192165fb32c2e1fb7aee6,67d194181e13c598cee590e4,2025-03-12_08h04.02.826,Tarea de decisión léxica,2024.2.5,MacIntel,63.29113924,,,,,,,,,,,,,,,,,,,,,,,516.2923,517.3237,l,0,0.3617,,0.3617,0,517.3247,517.8239,,,,,,393,FEM,WORD,DIS,150,aldea,,el,,517.824,517.8241,-0.262856658,0.009515115,0,0,0,,0,140,140,392,1,ashea,,,,
,,,,,,5f3c202dc59223a250d37f11,676192165fb32c2e1fb7aee6,67d194181e13c598cee590e4,2025-03-12_08h04.02.826,Tarea de decisión léxica,2024.2.5,MacIntel,63.29113924,,,,,,,,,,,,,,,,,,,,,,,517.8257,519.0071,l,1,0.5004,,0.5004,1,519.0082,519.5073,,,,,,420,MAS,NOWORD,DIS,150,chudo,,la,,519.5089,519.5102,-0.262856658,0.009515115,0,0,0,,0,141,141,419,1,truco,,,,
,,,,,,5f3c202dc59223a250d37f11,676192165fb32c2e1fb7aee6,67d194181e13c598cee590e4,2025-03-12_08h04.02.826,Tarea de decisión léxica,2024.2.5,MacIntel,63.29113924,,,,,,,,,,,,,,,,,,,,,,,519.5111,520.4405,l,0,0.2507,,0.2507,0,520.4416,520.9406,,,,,,77,MAS,WORD,DIS,150,loco,,la,,520.9407,520.9408,-0.262856658,0.009515115,0,0,0,,0,142,142,76,1,fodo,,,,
,,,,,,5f3c202dc59223a250d37f11,676192165fb32c2e1fb7aee6,67d194181e13c598cee590e4,2025-03-12_08h04.02.826,Tarea de decisión léxica,2024.2.5,MacIntel,63.29113924,,,,,,,,,,,,,,,,,,,,,,,520.9423,522.1069,l,1,0.4953,,0.4953,1,522.1077,522.6072,,,,,,16,FEM,NOWORD,DIS,150,odea,,el,,522.6072,522.6073,-0.262856658,0.009515115,0,0,0,,0,143,143,15,1,idea,,,,
,,,,,,5f3c202dc59223a250d37f11,676192165fb32c2e1fb7aee6,67d194181e13c598cee590e4,2025-03-12_08h04.02.826,Tarea de decisión léxica,2024.2.5,MacIntel,63.29113924,,,,,,,,,,,,,,,,,,,,,,,522.6088,523.6736,a,1,0.397,,0.397,1,523.6738,524.1738,,,,,,115,FEM,WORD,AGR,150,pata,,la,,524.1738,524.1739,-0.262856658,0.009515115,0,0,0,,0,144,144,114,1,haca,,,,
,,,,,,5f3c202dc59223a250d37f11,676192165fb32c2e1fb7aee6,67d194181e13c598cee590e4,2025-03-12_08h04.02.826,Tarea de decisión léxica,2024.2.5,MacIntel,63.29113924,,,,,,,,,,,,,,,,,,,,,,,524.1754,525.3067,a,1,0.4587,,0.4587,1,525.3068,525.8071,,,,,,395,FEM,WORD,AGR,150,caída,,la,,525.8072,525.8073,-0.262856658,0.009515115,0,0,0,,0,145,145,394,1,paeda,,,,
,,,,,,5f3c202dc59223a250d37f11,676192165fb32c2e1fb7aee6,67d194181e13c598cee590e4,2025-03-12_08h04.02.826,Tarea de decisión léxica,2024.2.5,MacIntel,63.29113924,,,,,,,,,,,,,,,,,,,,,,,525.8086,526.8906,l,1,0.4009,,0.4009,1,526.8906,527.3906,,,,,,60,FEM,NOWORD,DIS,150,tafa,,el,,527.3921,527.3933,-0.262856658,0.009515115,0,0,0,,0,146,146,59,1,sala,,,,
,,,,,,5f3c202dc59223a250d37f11,676192165fb32c2e1fb7aee6,67d194181e13c598cee590e4,2025-03-12_08h04.02.826,Tarea de decisión léxica,2024.2.5,MacIntel,63.29113924,,,,,,,,,,,,,,,,,,,,,,,527.3942,528.4738,a,1,0.4041,,0.4041,1,528.4739,528.9738,,,,,,249,FEM,WORD,DIS,150,clase,,el,,528.974,528.9741,-0.262856658,0.009515115,0,0,0,,0,147,147,248,1,plane,,,,
,,,,,,5f3c202dc59223a250d37f11,676192165fb32c2e1fb7aee6,67d194181e13c598cee590e4,2025-03-12_08h04.02.826,Tarea de decisión léxica,2024.2.5,MacIntel,63.29113924,,,,,,,,,,,,,,,,,,,,,,,528.9756,530.1068,l,1,0.4537,,0.4537,1,530.1068,530.6071,,,,,,92,FEM,NOWORD,DIS,150,sava,,el,,530.6072,530.6074,-0.262856658,0.009515115,0,0,0,,0,148,148,91,1,taza,,,,
,,,,,,5f3c202dc59223a250d37f11,676192165fb32c2e1fb7aee6,67d194181e13c598cee590e4,2025-03-12_08h04.02.826,Tarea de decisión léxica,2024.2.5,MacIntel,63.29113924,,,,,,,,,,,,,,,,,,,,,,,530.609,531.724,a,1,0.4462,,0.4462,1,531.7241,532.2239,,,,,,149,MAS,WORD,AGR,150,cabo,,el,,532.2239,532.2242,-0.262856658,0.009515115,0,0,0,,0,149,149,148,1,pafo,,,,
,,,,,,5f3c202dc59223a250d37f11,676192165fb32c2e1fb7aee6,67d194181e13c598cee590e4,2025-03-12_08h04.02.826,Tarea de decisión léxica,2024.2.5,MacIntel,63.29113924,,,,,,,,,,,,,,,,,,,,,,,532.2256,533.4572,l,1,0.5507,,0.5507,1,533.4574,533.9571,,,,,,372,FEM,NOWORD,DIS,150,mosta,,el,,533.9572,533.9574,-0.262856658,0.009515115,0,0,0,,0,150,150,371,1,pasta,,,,
,,,,,,5f3c202dc59223a250d37f11,676192165fb32c2e1fb7aee6,67d194181e13c598cee590e4,2025-03-12_08h04.02.826,Tarea de decisión léxica,2024.2.5,MacIntel,63.29113924,,,,,,,,,,,,,,,,,,,,,,,533.9587,535.0738,l,1,0.4332,,0.4332,1,535.0738,535.573,,,,,,100,MAS,NOWORD,DIS,150,soro,,la,,535.5745,535.5758,-0.262856658,0.009515115,0,0,0,,0,151,151,99,1,lobo,,,,
,,,,,,5f3c202dc59223a250d37f11,676192165fb32c2e1fb7aee6,67d194181e13c598cee590e4,2025-03-12_08h04.02.826,Tarea de decisión léxica,2024.2.5,MacIntel,63.29113924,,,,,,,,,,,,,,,,,,,,,,,535.5768,536.6572,l,1,0.4013,,0.4013,1,536.6573,537.1571,,,,,,398,FEM,NOWORD,AGR,150,trigi,,la,,537.1571,537.1573,-0.262856658,0.009515115,0,0,0,,0,152,152,397,1,tribu,,,,
,,,,,,5f3c202dc59223a250d37f11,676192165fb32c2e1fb7aee6,67d194181e13c598cee590e4,2025-03-12_08h04.02.826,Tarea de decisión léxica,2024.2.5,MacIntel,63.29113924,,,,,,,,,,,,,,,,,,,,,,,537.1587,538.3238,l,1,0.4832,,0.4832,1,538.3239,538.8239,,,,,,386,FEM,NOWORD,AGR,150,febra,,la,,538.824,538.8241,-0.262856658,0.009515115,0,0,0,,0,153,153,385,1,letra,,,,
,,,,,,5f3c202dc59223a250d37f11,676192165fb32c2e1fb7aee6,67d194181e13c598cee590e4,2025-03-12_08h04.02.826,Tarea de decisión léxica,2024.2.5,MacIntel,63.29113924,,,,,,,,,,,,,,,,,,,,,,,538.8255,539.7738,l,1,0.2671,,0.2671,1,539.7739,540.2738,,,,,,212,FEM,NOWORD,DIS,150,joad,,el,,540.2739,540.2741,-0.262856658,0.009515115,0,0,0,,0,154,154,211,1,joya,,,,
,,,,,,5f3c202dc59223a250d37f11,676192165fb32c2e1fb7aee6,67d194181e13c598cee590e4,2025-03-12_08h04.02.826,Tarea de decisión léxica,2024.2.5,MacIntel,63.29113924,,,,,,,,,,,,,,,,,,,,,,,540.2756,541.5571,a,1,0.6008,,0.6008,1,541.5572,542.0573,,,,,,109,MAS,WORD,DIS,150,rayo,,la,,542.0587,542.0599,-0.262856658,0.009515115,0,0,0,,0,155,155,108,1,suno,,,,
,,,,,,5f3c202dc59223a250d37f11,676192165fb32c2e1fb7aee6,67d194181e13c598cee590e4,2025-03-12_08h04.02.826,Tarea de decisión léxica,2024.2.5,MacIntel,63.29113924,,,,,,,,,,,,,,,,,,,,,,,542.0608,543.1904,l,1,0.4521,,0.4521,1,543.1905,543.6905,,,,,,32,FEM,NOWORD,DIS,150,bova,,el,,543.6905,543.6907,-0.262856658,0.009515115,0,0,0,,0,156,156,31,1,ropa,,,,
,,,,,,5f3c202dc59223a250d37f11,676192165fb32c2e1fb7aee6,67d194181e13c598cee590e4,2025-03-12_08h04.02.826,Tarea de decisión léxica,2024.2.5,MacIntel,63.29113924,,,,,,,,,,,,,,,,,,,,,,,543.6921,544.7571,l,1,0.3833,,0.3833,1,544.7572,545.2571,,,,,,124,FEM,NOWORD,DIS,150,maba,,el,,545.2571,545.2573,-0.262856658,0.009515115,0,0,0,,0,157,157,123,1,flor,,,,
,,,,,,5f3c202dc59223a250d37f11,676192165fb32c2e1fb7aee6,67d194181e13c598cee590e4,2025-03-12_08h04.02.826,Tarea de decisión léxica,2024.2.5,MacIntel,63.29113924,,,,,,,,,,,,,,,,,,,,,,,545.2586,546.3569,l,0,0.4287,,0.4287,0,546.358,546.8571,,,,,,169,MAS,WORD,AGR,150,cubo,,el,,546.8572,546.8573,-0.262856658,0.009515115,0,0,0,,0,158,158,168,1,mibo,,,,
,,,,,,5f3c202dc59223a250d37f11,676192165fb32c2e1fb7aee6,67d194181e13c598cee590e4,2025-03-12_08h04.02.826,Tarea de decisión léxica,2024.2.5,MacIntel,63.29113924,,,,,,,,,,,,,,,,,,,,,,,546.8586,547.9407,a,1,0.4127,,0.4127,1,547.9417,548.4407,,,,,,361,FEM,WORD,AGR,150,torre,,la,,548.4407,548.4409,-0.262856658,0.009515115,0,0,0,,0,159,159,360,1,solle,,,,
,,,,,,5f3c202dc59223a250d37f11,676192165fb32c2e1fb7aee6,67d194181e13c598cee590e4,2025-03-12_08h04.02.826,Tarea de decisión léxica,2024.2.5,MacIntel,63.29113924,,,,,,,,,,,,,,,,,,,,,,,548.4425,549.6235,a,1,0.5128,,0.5128,1,549.6236,550.1239,,,,,,465,FEM,WORD,DIS,150,aguja,,el,,550.1249,691.3844,-0.189522586,-0.369788659,0,0,0,space,0,160,160,464,1,asuba,141.2309,,,
,,,,,,5f3c202dc59223a250d37f11,676192165fb32c2e1fb7aee6,67d194181e13c598cee590e4,2025-03-12_08h04.02.826,Tarea de decisión léxica,2024.2.5,MacIntel,63.29113924,,,,,,,,,,,,,,,,,,,,,,,691.3864,692.7506,l,1,0.6834,,0.6834,1,692.7508,693.2516,,,,,,268,MAS,NOWORD,DIS,150,figro,,la,,693.2517,693.2519,-0.189522586,-0.369788659,0,0,0,,0,161,161,267,1,libro,,,,
,,,,,,5f3c202dc59223a250d37f11,676192165fb32c2e1fb7aee6,67d194181e13c598cee590e4,2025-03-12_08h04.02.826,Tarea de decisión léxica,2024.2.5,MacIntel,63.29113924,,,,,,,,,,,,,,,,,,,,,,,693.2537,694.4015,l,1,0.467,,0.467,1,694.4017,694.9015,,,,,,68,FEM,NOWORD,DIS,150,gesa,,el,,694.9016,694.9018,-0.189522586,-0.369788659,0,0,0,,0,162,162,67,1,nena,,,,
,,,,,,5f3c202dc59223a250d37f11,676192165fb32c2e1fb7aee6,67d194181e13c598cee590e4,2025-03-12_08h04.02.826,Tarea de decisión léxica,2024.2.5,MacIntel,63.29113924,,,,,,,,,,,,,,,,,,,,,,,694.9034,696.035,l,1,0.4515,,0.4515,1,696.0352,696.535,,,,,,12,MAS,NOWORD,DIS,150,bapo,,la,,696.535,696.5352,-0.189522586,-0.369788659,0,0,0,,0,163,163,11,1,lado,,,,
,,,,,,5f3c202dc59223a250d37f11,676192165fb32c2e1fb7aee6,67d194181e13c598cee590e4,2025-03-12_08h04.02.826,Tarea de decisión léxica,2024.2.5,MacIntel,63.29113924,,,,,,,,,,,,,,,,,,,,,,,696.5369,697.5516,l,1,0.3392,,0.3392,1,697.5518,698.0517,,,,,,466,FEM,NOWORD,AGR,150,asuba,,la,,698.0518,698.0519,-0.189522586,-0.369788659,0,0,0,,0,164,164,465,1,aguja,,,,
,,,,,,5f3c202dc59223a250d37f11,676192165fb32c2e1fb7aee6,67d194181e13c598cee590e4,2025-03-12_08h04.02.826,Tarea de decisión léxica,2024.2.5,MacIntel,63.29113924,,,,,,,,,,,,,,,,,,,,,,,698.0535,699.3851,l,1,0.6502,,0.6502,1,699.3852,699.8845,,,,,,418,FEM,NOWORD,AGR,150,banja,,la,,699.8849,699.8853,-0.189522586,-0.369788659,0,0,0,,0,165,165,417,1,barba,,,,
,,,,,,5f3c202dc59223a250d37f11,676192165fb32c2e1fb7aee6,67d194181e13c598cee590e4,2025-03-12_08h04.02.826,Tarea de decisión léxica,2024.2.5,MacIntel,63.29113924,,,,,,,,,,,,,,,,,,,,,,,699.8855,700.9516,l,1,0.385,,0.385,1,700.9518,701.4517,,,,,,108,MAS,NOWORD,DIS,150,raot,,la,,701.4518,701.4521,-0.189522586,-0.369788659,0,0,0,,0,166,166,107,1,saco,,,,
,,,,,,5f3c202dc59223a250d37f11,676192165fb32c2e1fb7aee6,67d194181e13c598cee590e4,2025-03-12_08h04.02.826,Tarea de decisión léxica,2024.2.5,MacIntel,63.29113924,,,,,,,,,,,,,,,,,,,,,,,701.4537,702.7184,l,1,0.5832,,0.5832,1,702.7185,703.2182,,,,,,332,MAS,NOWORD,DIS,150,erato,,la,,703.2184,703.2186,-0.189522586,-0.369788659,0,0,0,,0,167,167,331,1,éxito,,,,
,,,,,,5f3c202dc59223a250d37f11,676192165fb32c2e1fb7aee6,67d194181e13c598cee590e4,2025-03-12_08h04.02.826,Tarea de decisión léxica,2024.2.5,MacIntel,63.29113924,,,,,,,,,,,,,,,,,,,,,,,703.2202,704.2681,a,1,0.3687,,0.3687,1,704.2683,704.7685,,,,,,371,FEM,WORD,DIS,150,pasta,,el,,704.7686,704.7687,-0.189522586,-0.369788659,0,0,0,,0,168,168,370,1,mosta,,,,
,,,,,,5f3c202dc59223a250d37f11,676192165fb32c2e1fb7aee6,67d194181e13c598cee590e4,2025-03-12_08h04.02.826,Tarea de decisión léxica,2024.2.5,MacIntel,63.29113924,,,,,,,,,,,,,,,,,,,,,,,704.7703,705.8682,l,0,0.4291,,0.4291,0,705.8693,706.3683,,,,,,469,MAS,WORD,AGR,150,patio,,el,,706.3684,706.3685,-0.189522586,-0.369788659,0,0,0,,0,169,169,468,1,matia,,,,
,,,,,,5f3c202dc59223a250d37f11,676192165fb32c2e1fb7aee6,67d194181e13c598cee590e4,2025-03-12_08h04.02.826,Tarea de decisión léxica,2024.2.5,MacIntel,63.29113924,,,,,,,,,,,,,,,,,,,,,,,706.3702,707.4182,a,1,0.3771,,0.3771,1,707.4193,707.9183,,,,,,59,FEM,WORD,DIS,150,sala,,el,,707.92,707.9211,-0.189522586,-0.369788659,0,0,0,,0,170,170,58,1,tafa,,,,
,,,,,,5f3c202dc59223a250d37f11,676192165fb32c2e1fb7aee6,67d194181e13c598cee590e4,2025-03-12_08h04.02.826,Tarea de decisión léxica,2024.2.5,MacIntel,63.29113924,,,,,,,,,,,,,,,,,,,,,,,707.922,708.9684,a,1,0.3672,,0.3672,1,708.9685,709.4683,,,,,,273,FEM,WORD,AGR,150,broma,,la,,709.4684,709.4685,-0.189522586,-0.369788659,0,0,0,,0,171,171,272,1,frosa,,,,
,,,,,,5f3c202dc59223a250d37f11,676192165fb32c2e1fb7aee6,67d194181e13c598cee590e4,2025-03-12_08h04.02.826,Tarea de decisión léxica,2024.2.5,MacIntel,63.29113924,,,,,,,,,,,,,,,,,,,,,,,709.4697,710.4852,l,1,0.3335,,0.3335,1,710.4853,710.9852,,,,,,66,MAS,NOWORD,AGR,150,nios,,el,,710.9852,710.9853,-0.189522586,-0.369788659,0,0,0,,0,172,172,65,1,dios,,,,
,,,,,,5f3c202dc59223a250d37f11,676192165fb32c2e1fb7aee6,67d194181e13c598cee590e4,2025-03-12_08h04.02.826,Tarea de decisión léxica,2024.2.5,MacIntel,63.29113924,,,,,,,,,,,,,,,,,,,,,,,710.987,712.285,a,1,0.6174,,0.6174,1,712.2851,712.785,,,,,,447,MAS,WORD,DIS,150,bolso,,la,,712.7852,712.7853,-0.189522586,-0.369788659,0,0,0,,0,173,173,446,1,buaso,,,,
,,,,,,5f3c202dc59223a250d37f11,676192165fb32c2e1fb7aee6,67d194181e13c598cee590e4,2025-03-12_08h04.02.826,Tarea de decisión léxica,2024.2.5,MacIntel,63.29113924,,,,,,,,,,,,,,,,,,,,,,,712.7868,714.0184,a,0,0.5623,,0.5623,0,714.0195,714.5184,,,,,,388,FEM,NOWORD,DIS,150,bresa,,el,,714.5185,714.5187,-0.189522586,-0.369788659,0,0,0,,0,174,174,387,1,crema,,,,
,,,,,,5f3c202dc59223a250d37f11,676192165fb32c2e1fb7aee6,67d194181e13c598cee590e4,2025-03-12_08h04.02.826,Tarea de decisión léxica,2024.2.5,MacIntel,63.29113924,,,,,,,,,,,,,,,,,,,,,,,714.5202,715.5675,l,1,0.3694,,0.3694,1,715.5687,716.0684,,,,,,294,MAS,NOWORD,AGR,150,cacso,,el,,716.0699,716.071,-0.189522586,-0.369788659,0,0,0,,0,175,175,293,1,campo,,,,
,,,,,,5f3c202dc59223a250d37f11,676192165fb32c2e1fb7aee6,67d194181e13c598cee590e4,2025-03-12_08h04.02.826,Tarea de decisión léxica,2024.2.5,MacIntel,63.29113924,,,,,,,,,,,,,,,,,,,,,,,716.0719,717.2341,a,1,0.4848,,0.4848,1,717.2342,717.735,,,,,,449,FEM,WORD,AGR,150,pluma,,la,,717.735,717.7352,-0.189522586,-0.369788659,0,0,0,,0,176,176,448,1,crusa,,,,
,,,,,,5f3c202dc59223a250d37f11,676192165fb32c2e1fb7aee6,67d194181e13c598cee590e4,2025-03-12_08h04.02.826,Tarea de decisión léxica,2024.2.5,MacIntel,63.29113924,,,,,,,,,,,,,,,,,,,,,,,717.7366,718.8841,l,0,0.4718,,0.4718,0,718.8852,719.3838,,,,,,139,MAS,WORD,DIS,150,mago,,la,,719.384,719.384,-0.189522586,-0.369788659,0,0,0,,0,177,177,138,1,nila,,,,
,,,,,,5f3c202dc59223a250d37f11,676192165fb32c2e1fb7aee6,67d194181e13c598cee590e4,2025-03-12_08h04.02.826,Tarea de decisión léxica,2024.2.5,MacIntel,63.29113924,,,,,,,,,,,,,,,,,,,,,,,719.3854,720.5351,l,1,0.485,,0.485,1,720.5363,721.0351,,,,,,116,FEM,NOWORD,DIS,150,haca,,el,,721.0352,721.0353,-0.189522586,-0.369788659,0,0,0,,0,178,178,115,1,pata,,,,
,,,,,,5f3c202dc59223a250d37f11,676192165fb32c2e1fb7aee6,67d194181e13c598cee590e4,2025-03-12_08h04.02.826,Tarea de decisión léxica,2024.2.5,MacIntel,63.29113924,,,,,,,,,,,,,,,,,,,,,,,721.0371,722.0852,l,1,0.379,,0.379,1,722.0852,722.5851,,,,,,50,FEM,NOWORD,AGR,150,ecat,,la,,722.5867,722.5878,-0.189522586,-0.369788659,0,0,0,,0,179,179,49,1,edad,,,,
,,,,,,5f3c202dc59223a250d37f11,676192165fb32c2e1fb7aee6,67d194181e13c598cee590e4,2025-03-12_08h04.02.826,Tarea de decisión léxica,2024.2.5,MacIntel,63.29113924,,,,,,,,,,,,,,,,,,,,,,,722.5885,723.6181,l,1,0.3504,,0.3504,1,723.6183,724.1185,,,,,,184,FEM,NOWORD,DIS,150,raad,,el,,724.1186,724.1188,-0.189522586,-0.369788659,0,0,0,,0,180,180,183,1,raya,,,,
,,,,,,5f3c202dc59223a250d37f11,676192165fb32c2e1fb7aee6,67d194181e13c598cee590e4,2025-03-12_08h04.02.826,Tarea de decisión léxica,2024.2.5,MacIntel,63.29113924,,,,,,,,,,,,,,,,,,,,,,,724.1206,725.2507,a,1,0.4527,,0.4527,1,725.2508,725.7517,,,,,,299,FEM,WORD,DIS,150,bolsa,,el,,725.7519,725.7521,-0.189522586,-0.369788659,0,0,0,,0,181,181,298,1,bosga,,,,
,,,,,,5f3c202dc59223a250d37f11,676192165fb32c2e1fb7aee6,67d194181e13c598cee590e4,2025-03-12_08h04.02.826,Tarea de decisión léxica,2024.2.5,MacIntel,63.29113924,,,,,,,,,,,,,,,,,,,,,,,725.7537,726.985,a,1,0.5524,,0.5524,1,726.9852,727.4851,,,,,,179,MAS,WORD,DIS,150,toro,,la,,727.4851,727.4853,-0.189522586,-0.369788659,0,0,0,,0,182,182,178,1,sono,,,,
,,,,,,5f3c202dc59223a250d37f11,676192165fb32c2e1fb7aee6,67d194181e13c598cee590e4,2025-03-12_08h04.02.826,Tarea de decisión léxica,2024.2.5,MacIntel,63.29113924,,,,,,,,,,,,,,,,,,,,,,,727.4869,728.5516,a,1,0.3838,,0.3838,1,728.5517,729.0518,,,,,,445,MAS,WORD,AGR,150,actor,,el,,729.0519,729.052,-0.189522586,-0.369788659,0,0,0,,0,183,183,444,1,ascor,,,,
,,,,,,5f3c202dc59223a250d37f11,676192165fb32c2e1fb7aee6,67d194181e13c598cee590e4,2025-03-12_08h04.02.826,Tarea de decisión léxica,2024.2.5,MacIntel,63.29113924,,,,,,,,,,,,,,,,,,,,,,,729.0537,730.0516,l,1,0.3182,,0.3182,1,730.0518,730.5517,,,,,,272,FEM,NOWORD,DIS,150,refal,,el,,730.5534,730.5547,-0.189522586,-0.369788659,0,0,0,,0,184,184,271,1,señal,,,,
,,,,,,5f3c202dc59223a250d37f11,676192165fb32c2e1fb7aee6,67d194181e13c598cee590e4,2025-03-12_08h04.02.826,Tarea de decisión léxica,2024.2.5,MacIntel,63.29113924,,,,,,,,,,,,,,,,,,,,,,,730.5557,731.6516,l,1,0.4175,,0.4175,1,731.6518,732.1505,,,,,,448,MAS,NOWORD,DIS,150,buaso,,la,,732.1507,732.151,-0.189522586,-0.369788659,0,0,0,,0,185,185,447,1,bolso,,,,
,,,,,,5f3c202dc59223a250d37f11,676192165fb32c2e1fb7aee6,67d194181e13c598cee590e4,2025-03-12_08h04.02.826,Tarea de decisión léxica,2024.2.5,MacIntel,63.29113924,,,,,,,,,,,,,,,,,,,,,,,732.1524,733.2015,l,0,0.3665,,0.3665,0,733.2028,733.7016,,,,,,219,FEM,WORD,DIS,150,pipa,,el,,733.7017,733.7019,-0.189522586,-0.369788659,0,0,0,,0,186,186,218,1,miva,,,,
,,,,,,5f3c202dc59223a250d37f11,676192165fb32c2e1fb7aee6,67d194181e13c598cee590e4,2025-03-12_08h04.02.826,Tarea de decisión léxica,2024.2.5,MacIntel,63.29113924,,,,,,,,,,,,,,,,,,,,,,,733.7035,735.1681,a,1,0.7842,,0.7842,1,735.1693,735.6683,,,,,,425,FEM,WORD,AGR,150,viuda,,la,,735.6683,735.6686,-0.189522586,-0.369788659,0,0,0,,0,187,187,424,1,virca,,,,
,,,,,,5f3c202dc59223a250d37f11,676192165fb32c2e1fb7aee6,67d194181e13c598cee590e4,2025-03-12_08h04.02.826,Tarea de decisión léxica,2024.2.5,MacIntel,63.29113924,,,,,,,,,,,,,,,,,,,,,,,735.6703,737.0348,a,0,0.6957,,0.6957,0,737.0358,737.5349,,,,,,226,MAS,NOWORD,AGR,150,boco,,el,,737.5351,737.5353,-0.189522586,-0.369788659,0,0,0,,0,188,188,225,1,lodo,,,,
,,,,,,5f3c202dc59223a250d37f11,676192165fb32c2e1fb7aee6,67d194181e13c598cee590e4,2025-03-12_08h04.02.826,Tarea de decisión léxica,2024.2.5,MacIntel,63.29113924,,,,,,,,,,,,,,,,,,,,,,,737.5369,738.6017,l,0,0.396,,0.396,0,738.6018,739.1007,,,,,,85,MAS,WORD,AGR,150,lago,,el,,739.1023,739.1034,-0.189522586,-0.369788659,0,0,0,,0,189,189,84,1,babo,,,,
,,,,,,5f3c202dc59223a250d37f11,676192165fb32c2e1fb7aee6,67d194181e13c598cee590e4,2025-03-12_08h04.02.826,Tarea de decisión léxica,2024.2.5,MacIntel,63.29113924,,,,,,,,,,,,,,,,,,,,,,,739.1042,740.1847,a,1,0.4135,,0.4135,1,740.1858,740.6849,,,,,,93,FEM,WORD,DIS,150,bola,,el,,740.685,740.6852,-0.189522586,-0.369788659,0,0,0,,0,190,190,92,1,rona,,,,
,,,,,,5f3c202dc59223a250d37f11,676192165fb32c2e1fb7aee6,67d194181e13c598cee590e4,2025-03-12_08h04.02.826,Tarea de decisión léxica,2024.2.5,MacIntel,63.29113924,,,,,,,,,,,,,,,,,,,,,,,740.6869,741.8014,a,1,0.4457,,0.4457,1,741.8016,742.3016,,,,,,97,MAS,WORD,DIS,150,mono,,la,,742.3016,742.3018,-0.189522586,-0.369788659,0,0,0,,0,191,191,96,1,fopo,,,,
,,,,,,5f3c202dc59223a250d37f11,676192165fb32c2e1fb7aee6,67d194181e13c598cee590e4,2025-03-12_08h04.02.826,Tarea de decisión léxica,2024.2.5,MacIntel,63.29113924,,,,,,,,,,,,,,,,,,,,,,,742.3036,743.4681,a,1,0.4867,,0.4867,1,743.4683,743.9682,,,,,,235,FEM,WORD,AGR,150,grúa,,la,,743.9684,743.9686,-0.189522586,-0.369788659,0,0,0,,0,192,192,234,1,tria,,,,
,,,,,,5f3c202dc59223a250d37f11,676192165fb32c2e1fb7aee6,67d194181e13c598cee590e4,2025-03-12_08h04.02.826,Tarea de decisión léxica,2024.2.5,MacIntel,63.29113924,,,,,,,,,,,,,,,,,,,,,,,743.9702,745.3514,l,1,0.7002,,0.7002,1,745.3516,745.8515,,,,,,366,FEM,NOWORD,AGR,150,gulla,,la,,745.8516,745.8518,-0.189522586,-0.369788659,0,0,0,,0,193,193,365,1,ducha,,,,
,,,,,,5f3c202dc59223a250d37f11,676192165fb32c2e1fb7aee6,67d194181e13c598cee590e4,2025-03-12_08h04.02.826,Tarea de decisión léxica,2024.2.5,MacIntel,63.29113924,,,,,,,,,,,,,,,,,,,,,,,745.8534,746.9513,a,1,0.4286,,0.4286,1,746.9514,747.4516,,,,,,391,MAS,WORD,AGR,150,dueño,,el,,747.4532,747.4544,-0.189522586,-0.369788659,0,0,0,,0,194,194,390,1,dievo,,,,
,,,,,,5f3c202dc59223a250d37f11,676192165fb32c2e1fb7aee6,67d194181e13c598cee590e4,2025-03-12_08h04.02.826,Tarea de decisión léxica,2024.2.5,MacIntel,63.29113924,,,,,,,,,,,,,,,,,,,,,,,747.4553,748.6517,l,1,0.5163,,0.5163,1,748.6518,749.1516,,,,,,342,MAS,NOWORD,AGR,150,daror,,el,,749.1517,749.1518,-0.189522586,-0.369788659,0,0,0,,0,195,195,341,1,valor,,,,
,,,,,,5f3c202dc59223a250d37f11,676192165fb32c2e1fb7aee6,67d194181e13c598cee590e4,2025-03-12_08h04.02.826,Tarea de decisión léxica,2024.2.5,MacIntel,63.29113924,,,,,,,,,,,,,,,,,,,,,,,749.1535,750.3676,l,1,0.532,,0.532,1,750.3677,750.8683,,,,,,412,MAS,NOWORD,DIS,150,mobro,,la,,750.8684,750.8686,-0.189522586,-0.369788659,0,0,0,,0,196,196,411,1,pollo,,,,
,,,,,,5f3c202dc59223a250d37f11,676192165fb32c2e1fb7aee6,67d194181e13c598cee590e4,2025-03-12_08h04.02.826,Tarea de decisión léxica,2024.2.5,MacIntel,63.29113924,,,,,,,,,,,,,,,,,,,,,,,750.8703,752.0848,a,1,0.535,,0.535,1,752.085,752.5849,,,,,,479,MAS,WORD,AGR,150,rumbo,,el,,752.585,752.5851,-0.189522586,-0.369788659,0,0,0,,0,197,197,478,1,rimpo,,,,
,,,,,,5f3c202dc59223a250d37f11,676192165fb32c2e1fb7aee6,67d194181e13c598cee590e4,2025-03-12_08h04.02.826,Tarea de decisión léxica,2024.2.5,MacIntel,63.29113924,,,,,,,,,,,,,,,,,,,,,,,752.5868,753.7344,a,1,0.4769,,0.4769,1,753.7345,754.2349,,,,,,379,MAS,WORD,DIS,150,turno,,la,,754.235,754.2351,-0.189522586,-0.369788659,0,0,0,,0,198,198,378,1,tunso,,,,
,,,,,,5f3c202dc59223a250d37f11,676192165fb32c2e1fb7aee6,67d194181e13c598cee590e4,2025-03-12_08h04.02.826,Tarea de decisión léxica,2024.2.5,MacIntel,63.29113924,,,,,,,,,,,,,,,,,,,,,,,754.2368,755.4344,a,1,0.5266,,0.5266,1,755.4345,755.9348,,,,,,365,FEM,WORD,AGR,150,ducha,,la,,755.9365,755.9376,-0.189522586,-0.369788659,0,0,0,,0,199,199,364,1,gulla,,,,
,,,,,,5f3c202dc59223a250d37f11,676192165fb32c2e1fb7aee6,67d194181e13c598cee590e4,2025-03-12_08h04.02.826,Tarea de decisión léxica,2024.2.5,MacIntel,63.29113924,,,,,,,,,,,,,,,,,,,,,,,755.9385,757.018,a,1,0.4022,,0.4022,1,757.0182,757.5182,,,,,,41,FEM,WORD,DIS,150,nave,,el,,757.5183,757.5185,-0.189522586,-0.369788659,0,0,0,,0,200,200,40,1,haje,,,,
,,,,,,5f3c202dc59223a250d37f11,676192165fb32c2e1fb7aee6,67d194181e13c598cee590e4,2025-03-12_08h04.02.826,Tarea de decisión léxica,2024.2.5,MacIntel,63.29113924,,,,,,,,,,,,,,,,,,,,,,,757.5202,758.5181,a,1,0.3222,,0.3222,1,758.5181,759.0182,,,,,,183,FEM,WORD,DIS,150,raya,,el,,759.0183,759.0184,-0.189522586,-0.369788659,0,0,0,,0,201,201,182,1,raad,,,,
,,,,,,5f3c202dc59223a250d37f11,676192165fb32c2e1fb7aee6,67d194181e13c598cee590e4,2025-03-12_08h04.02.826,Tarea de decisión léxica,2024.2.5,MacIntel,63.29113924,,,,,,,,,,,,,,,,,,,,,,,759.02,760.1514,a,1,0.4516,,0.4516,1,760.1515,760.6514,,,,,,125,MAS,WORD,AGR,150,lujo,,el,,760.6515,760.6517,-0.189522586,-0.369788659,0,0,0,,0,202,202,124,1,vudo,,,,
,,,,,,5f3c202dc59223a250d37f11,676192165fb32c2e1fb7aee6,67d194181e13c598cee590e4,2025-03-12_08h04.02.826,Tarea de decisión léxica,2024.2.5,MacIntel,63.29113924,,,,,,,,,,,,,,,,,,,,,,,760.6534,761.8008,l,1,0.4691,,0.4691,1,761.8009,762.3015,,,,,,112,MAS,NOWORD,DIS,150,siro,,la,,762.3032,762.3043,-0.189522586,-0.369788659,0,0,0,,0,203,203,111,1,muro,,,,
,,,,,,5f3c202dc59223a250d37f11,676192165fb32c2e1fb7aee6,67d194181e13c598cee590e4,2025-03-12_08h04.02.826,Tarea de decisión léxica,2024.2.5,MacIntel,63.29113924,,,,,,,,,,,,,,,,,,,,,,,762.3051,763.4847,a,1,0.5002,,0.5002,1,763.4847,763.9848,,,,,,427,FEM,WORD,DIS,150,oreja,,el,,763.9849,763.985,-0.189522586,-0.369788659,0,0,0,,0,204,204,426,1,oseva,,,,
,,,,,,5f3c202dc59223a250d37f11,676192165fb32c2e1fb7aee6,67d194181e13c598cee590e4,2025-03-12_08h04.02.826,Tarea de decisión léxica,2024.2.5,MacIntel,63.29113924,,,,,,,,,,,,,,,,,,,,,,,763.9866,765.1348,a,1,0.467,,0.467,1,765.1349,765.6348,,,,,,27,MAS,WORD,AGR,150,baño,,el,,765.6349,765.6351,-0.189522586,-0.369788659,0,0,0,,0,205,205,26,1,ravo,,,,
,,,,,,5f3c202dc59223a250d37f11,676192165fb32c2e1fb7aee6,67d194181e13c598cee590e4,2025-03-12_08h04.02.826,Tarea de decisión léxica,2024.2.5,MacIntel,63.29113924,,,,,,,,,,,,,,,,,,,,,,,765.6367,766.8181,l,1,0.5002,,0.5002,1,766.8182,767.318,,,,,,52,FEM,NOWORD,DIS,150,mava,,el,,767.3181,767.3182,-0.189522586,-0.369788659,0,0,0,,0,206,206,51,1,caja,,,,
,,,,,,5f3c202dc59223a250d37f11,676192165fb32c2e1fb7aee6,67d194181e13c598cee590e4,2025-03-12_08h04.02.826,Tarea de decisión léxica,2024.2.5,MacIntel,63.29113924,,,,,,,,,,,,,,,,,,,,,,,767.3195,768.5513,l,1,0.5614,,0.5614,1,768.5513,769.0515,,,,,,194,FEM,NOWORD,AGR,150,foda,,la,,769.0517,769.0518,-0.189522586,-0.369788659,0,0,0,,0,207,207,193,1,loca,,,,
,,,,,,5f3c202dc59223a250d37f11,676192165fb32c2e1fb7aee6,67d194181e13c598cee590e4,2025-03-12_08h04.02.826,Tarea de decisión léxica,2024.2.5,MacIntel,63.29113924,,,,,,,,,,,,,,,,,,,,,,,769.0534,770.2514,l,0,0.5292,,0.5292,0,770.2524,770.7515,,,,,,121,MAS,WORD,DIS,150,hoyo,,la,,770.7531,770.7543,-0.189522586,-0.369788659,0,0,0,,0,208,208,120,1,bomo,,,,
,,,,,,5f3c202dc59223a250d37f11,676192165fb32c2e1fb7aee6,67d194181e13c598cee590e4,2025-03-12_08h04.02.826,Tarea de decisión léxica,2024.2.5,MacIntel,63.29113924,,,,,,,,,,,,,,,,,,,,,,,770.7554,771.8847,a,1,0.4526,,0.4526,1,771.886,772.3849,,,,,,79,FEM,WORD,DIS,150,piel,,el,,772.3849,772.3851,-0.189522586,-0.369788659,0,0,0,,0,209,209,78,1,ciel,,,,
,,,,,,5f3c202dc59223a250d37f11,676192165fb32c2e1fb7aee6,67d194181e13c598cee590e4,2025-03-12_08h04.02.826,Tarea de decisión léxica,2024.2.5,MacIntel,63.29113924,,,,,,,,,,,,,,,,,,,,,,,772.3869,773.3503,a,1,0.2926,,0.2926,1,773.3505,773.8514,,,,,,153,MAS,WORD,AGR,150,pato,,el,,773.8516,773.8517,-0.189522586,-0.369788659,0,0,0,,0,210,210,152,1,tado,,,,
,,,,,,5f3c202dc59223a250d37f11,676192165fb32c2e1fb7aee6,67d194181e13c598cee590e4,2025-03-12_08h04.02.826,Tarea de decisión léxica,2024.2.5,MacIntel,63.29113924,,,,,,,,,,,,,,,,,,,,,,,773.8533,774.9515,a,1,0.4172,,0.4172,1,774.9516,775.4514,,,,,,89,MAS,WORD,AGR,150,humo,,el,,775.4515,775.4517,-0.189522586,-0.369788659,0,0,0,,0,211,211,88,1,guso,,,,
,,,,,,5f3c202dc59223a250d37f11,676192165fb32c2e1fb7aee6,67d194181e13c598cee590e4,2025-03-12_08h04.02.826,Tarea de decisión léxica,2024.2.5,MacIntel,63.29113924,,,,,,,,,,,,,,,,,,,,,,,775.4533,776.5681,a,1,0.433,,0.433,1,776.5682,777.0681,,,,,,385,FEM,WORD,DIS,150,letra,,el,,777.0682,777.0684,-0.189522586,-0.369788659,0,0,0,,0,212,212,384,1,febra,,,,
,,,,,,5f3c202dc59223a250d37f11,676192165fb32c2e1fb7aee6,67d194181e13c598cee590e4,2025-03-12_08h04.02.826,Tarea de decisión léxica,2024.2.5,MacIntel,63.29113924,,,,,,,,,,,,,,,,,,,,,,,777.07,778.2004,a,1,0.4504,,0.4504,1,778.2006,778.7014,,,,,,373,FEM,WORD,AGR,150,pizza,,la,,778.703,778.7041,-0.189522586,-0.369788659,0,0,0,,0,213,213,372,1,pogza,,,,
,,,,,,5f3c202dc59223a250d37f11,676192165fb32c2e1fb7aee6,67d194181e13c598cee590e4,2025-03-12_08h04.02.826,Tarea de decisión léxica,2024.2.5,MacIntel,63.29113924,,,,,,,,,,,,,,,,,,,,,,,778.7049,779.6849,a,1,0.3005,,0.3005,1,779.685,780.1848,,,,,,55,MAS,WORD,AGR,150,gato,,el,,780.1849,780.1851,-0.189522586,-0.369788659,0,0,0,,0,214,214,54,1,jado,,,,
,,,,,,5f3c202dc59223a250d37f11,676192165fb32c2e1fb7aee6,67d194181e13c598cee590e4,2025-03-12_08h04.02.826,Tarea de decisión léxica,2024.2.5,MacIntel,63.29113924,,,,,,,,,,,,,,,,,,,,,,,780.1868,781.1681,a,1,0.3038,,0.3038,1,781.1682,781.6681,,,,,,29,MAS,WORD,DIS,150,modo,,la,,781.6682,781.6684,-0.189522586,-0.369788659,0,0,0,,0,215,215,28,1,pono,,,,
,,,,,,5f3c202dc59223a250d37f11,676192165fb32c2e1fb7aee6,67d194181e13c598cee590e4,2025-03-12_08h04.02.826,Tarea de decisión léxica,2024.2.5,MacIntel,63.29113924,,,,,,,,,,,,,,,,,,,,,,,781.67,782.7847,l,1,0.4335,,0.4335,1,782.7847,783.2848,,,,,,362,FEM,NOWORD,AGR,150,solle,,la,,783.285,783.2851,-0.189522586,-0.369788659,0,0,0,,0,216,216,361,1,torre,,,,
,,,,,,5f3c202dc59223a250d37f11,676192165fb32c2e1fb7aee6,67d194181e13c598cee590e4,2025-03-12_08h04.02.826,Tarea de decisión léxica,2024.2.5,MacIntel,63.29113924,,,,,,,,,,,,,,,,,,,,,,,783.2868,784.3848,a,1,0.4169,,0.4169,1,784.3849,784.8849,,,,,,339,MAS,WORD,DIS,150,brazo,,la,,784.885,784.8852,-0.189522586,-0.369788659,0,0,0,,0,217,217,338,1,plajo,,,,
,,,,,,5f3c202dc59223a250d37f11,676192165fb32c2e1fb7aee6,67d194181e13c598cee590e4,2025-03-12_08h04.02.826,Tarea de decisión léxica,2024.2.5,MacIntel,63.29113924,,,,,,,,,,,,,,,,,,,,,,,784.8868,785.8847,a,1,0.317,,0.317,1,785.8849,786.3846,,,,,,377,MAS,WORD,AGR,150,hielo,,el,,786.3861,786.3871,-0.189522586,-0.369788659,0,0,0,,0,218,218,376,1,gaulo,,,,
,,,,,,5f3c202dc59223a250d37f11,676192165fb32c2e1fb7aee6,67d194181e13c598cee590e4,2025-03-12_08h04.02.826,Tarea de decisión léxica,2024.2.5,MacIntel,63.29113924,,,,,,,,,,,,,,,,,,,,,,,786.3879,787.418,a,1,0.3512,,0.3512,1,787.4181,787.9182,,,,,,411,MAS,WORD,AGR,150,pollo,,el,,787.9183,787.9184,-0.189522586,-0.369788659,0,0,0,,0,219,219,410,1,mobro,,,,
,,,,,,5f3c202dc59223a250d37f11,676192165fb32c2e1fb7aee6,67d194181e13c598cee590e4,2025-03-12_08h04.02.826,Tarea de decisión léxica,2024.2.5,MacIntel,63.29113924,,,,,,,,,,,,,,,,,,,,,,,787.9201,788.8514,a,0,0.2501,,0.2501,0,788.8526,789.3513,,,,,,156,FEM,NOWORD,DIS,150,luma,,el,,789.3514,789.3515,-0.189522586,-0.369788659,0,0,0,,0,220,220,155,1,fuga,,,,
,,,,,,5f3c202dc59223a250d37f11,676192165fb32c2e1fb7aee6,67d194181e13c598cee590e4,2025-03-12_08h04.02.826,Tarea de decisión léxica,2024.2.5,MacIntel,63.29113924,,,,,,,,,,,,,,,,,,,,,,,789.3531,790.5847,a,1,0.55,,0.55,1,790.586,791.0848,,,,,,233,FEM,WORD,DIS,150,lana,,el,,791.0848,791.085,-0.189522586,-0.369788659,0,0,0,,0,221,221,232,1,fasa,,,,
,,,,,,5f3c202dc59223a250d37f11,676192165fb32c2e1fb7aee6,67d194181e13c598cee590e4,2025-03-12_08h04.02.826,Tarea de decisión léxica,2024.2.5,MacIntel,63.29113924,,,,,,,,,,,,,,,,,,,,,,,791.0868,792.1838,a,1,0.4263,,0.4263,1,792.1839,792.6849,,,,,,261,MAS,WORD,DIS,150,sitio,,la,,792.685,792.6852,-0.189522586,-0.369788659,0,0,0,,0,222,222,260,1,titio,,,,
,,,,,,5f3c202dc59223a250d37f11,676192165fb32c2e1fb7aee6,67d194181e13c598cee590e4,2025-03-12_08h04.02.826,Tarea de decisión léxica,2024.2.5,MacIntel,63.29113924,,,,,,,,,,,,,,,,,,,,,,,792.6867,793.8514,a,1,0.4844,,0.4844,1,793.8515,794.3514,,,,,,357,FEM,WORD,DIS,150,bruja,,el,,794.353,794.3543,-0.189522586,-0.369788659,0,0,0,,0,223,223,356,1,gruba,,,,
,,,,,,5f3c202dc59223a250d37f11,676192165fb32c2e1fb7aee6,67d194181e13c598cee590e4,2025-03-12_08h04.02.826,Tarea de decisión léxica,2024.2.5,MacIntel,63.29113924,,,,,,,,,,,,,,,,,,,,,,,794.3553,795.4347,a,1,0.4031,,0.4031,1,795.4348,795.9348,,,,,,301,FEM,WORD,AGR,150,banda,,la,,795.9348,795.935,-0.189522586,-0.369788659,0,0,0,,0,224,224,300,1,ranga,,,,
,,,,,,5f3c202dc59223a250d37f11,676192165fb32c2e1fb7aee6,67d194181e13c598cee590e4,2025-03-12_08h04.02.826,Tarea de decisión léxica,2024.2.5,MacIntel,63.29113924,,,,,,,,,,,,,,,,,,,,,,,795.9366,796.9347,a,1,0.3169,,0.3169,1,796.9348,797.4349,,,,,,283,MAS,WORD,DIS,150,sueño,,la,,797.4349,797.4351,-0.189522586,-0.369788659,0,0,0,,0,225,225,282,1,tuevo,,,,
,,,,,,5f3c202dc59223a250d37f11,676192165fb32c2e1fb7aee6,67d194181e13c598cee590e4,2025-03-12_08h04.02.826,Tarea de decisión léxica,2024.2.5,MacIntel,63.29113924,,,,,,,,,,,,,,,,,,,,,,,797.4367,798.718,l,1,0.6002,,0.6002,1,798.7181,799.2181,,,,,,450,FEM,NOWORD,AGR,150,crusa,,la,,799.2183,799.2185,-0.189522586,-0.369788659,0,0,0,,0,226,226,449,1,pluma,,,,
,,,,,,5f3c202dc59223a250d37f11,676192165fb32c2e1fb7aee6,67d194181e13c598cee590e4,2025-03-12_08h04.02.826,Tarea de decisión léxica,2024.2.5,MacIntel,63.29113924,,,,,,,,,,,,,,,,,,,,,,,799.2201,800.5013,l,1,0.6005,,0.6005,1,800.5015,801.0015,,,,,,114,FEM,NOWORD,AGR,150,tada,,la,,801.0029,801.0042,-0.189522586,-0.369788659,0,0,0,,0,227,227,113,1,miel,,,,
,,,,,,5f3c202dc59223a250d37f11,676192165fb32c2e1fb7aee6,67d194181e13c598cee590e4,2025-03-12_08h04.02.826,Tarea de decisión léxica,2024.2.5,MacIntel,63.29113924,,,,,,,,,,,,,,,,,,,,,,,801.0051,802.1514,a,1,0.4704,,0.4704,1,802.1515,802.6516,,,,,,117,MAS,WORD,DIS,150,palo,,la,,802.6517,802.6518,-0.189522586,-0.369788659,0,0,0,,0,228,228,116,1,movo,,,,
,,,,,,5f3c202dc59223a250d37f11,676192165fb32c2e1fb7aee6,67d194181e13c598cee590e4,2025-03-12_08h04.02.826,Tarea de decisión léxica,2024.2.5,MacIntel,63.29113924,,,,,,,,,,,,,,,,,,,,,,,802.6534,803.7347,a,1,0.4005,,0.4005,1,803.7349,804.2348,,,,,,19,MAS,WORD,AGR,150,niño,,el,,804.235,804.2352,-0.189522586,-0.369788659,0,0,0,,0,229,229,18,1,himo,,,,
,,,,,,5f3c202dc59223a250d37f11,676192165fb32c2e1fb7aee6,67d194181e13c598cee590e4,2025-03-12_08h04.02.826,Tarea de decisión léxica,2024.2.5,MacIntel,63.29113924,,,,,,,,,,,,,,,,,,,,,,,804.2366,805.4848,l,1,0.5698,,0.5698,1,805.4848,805.9847,,,,,,452,FEM,NOWORD,DIS,150,clita,,el,,805.9848,805.985,-0.189522586,-0.369788659,0,0,0,,0,230,230,451,1,fruta,,,,
,,,,,,5f3c202dc59223a250d37f11,676192165fb32c2e1fb7aee6,67d194181e13c598cee590e4,2025-03-12_08h04.02.826,Tarea de decisión léxica,2024.2.5,MacIntel,63.29113924,,,,,,,,,,,,,,,,,,,,,,,805.9865,807.0345,a,1,0.3671,,0.3671,1,807.0347,807.5347,,,,,,401,MAS,WORD,AGR,150,polvo,,el,,807.5348,807.535,-0.189522586,-0.369788659,0,0,0,,0,231,231,400,1,pirvo,,,,
,,,,,,5f3c202dc59223a250d37f11,676192165fb32c2e1fb7aee6,67d194181e13c598cee590e4,2025-03-12_08h04.02.826,Tarea de decisión léxica,2024.2.5,MacIntel,63.29113924,,,,,,,,,,,,,,,,,,,,,,,807.5365,808.6347,a,0,0.417,,0.417,0,808.6357,809.1348,,,,,,360,MAS,NOWORD,DIS,150,cacer,,la,,809.1363,809.1372,-0.189522586,-0.369788659,0,0,0,,0,232,232,359,1,calor,,,,
,,,,,,5f3c202dc59223a250d37f11,676192165fb32c2e1fb7aee6,67d194181e13c598cee590e4,2025-03-12_08h04.02.826,Tarea de decisión léxica,2024.2.5,MacIntel,63.29113924,,,,,,,,,,,,,,,,,,,,,,,809.1382,810.3009,l,0,0.4952,,0.4952,0,810.301,810.8014,,,,,,177,MAS,WORD,AGR,150,reto,,el,,810.8015,810.8016,-0.189522586,-0.369788659,0,0,0,,0,233,233,176,1,bito,,,,
,,,,,,5f3c202dc59223a250d37f11,676192165fb32c2e1fb7aee6,67d194181e13c598cee590e4,2025-03-12_08h04.02.826,Tarea de decisión léxica,2024.2.5,MacIntel,63.29113924,,,,,,,,,,,,,,,,,,,,,,,810.8032,812.0502,l,1,0.5779,,0.5779,1,812.0511,812.5514,,,,,,70,FEM,NOWORD,AGR,150,ñola,,la,,812.5515,812.5517,-0.189522586,-0.369788659,0,0,0,,0,234,234,69,1,zona,,,,
,,,,,,5f3c202dc59223a250d37f11,676192165fb32c2e1fb7aee6,67d194181e13c598cee590e4,2025-03-12_08h04.02.826,Tarea de decisión léxica,2024.2.5,MacIntel,63.29113924,,,,,,,,,,,,,,,,,,,,,,,812.5532,813.6847,a,1,0.4504,,0.4504,1,813.6848,814.1847,,,,,,471,FEM,WORD,AGR,150,grasa,,la,,814.1848,814.185,-0.189522586,-0.369788659,0,0,0,,0,235,235,470,1,prana,,,,
,,,,,,5f3c202dc59223a250d37f11,676192165fb32c2e1fb7aee6,67d194181e13c598cee590e4,2025-03-12_08h04.02.826,Tarea de decisión léxica,2024.2.5,MacIntel,63.29113924,,,,,,,,,,,,,,,,,,,,,,,814.1865,815.3014,a,1,0.4333,,0.4333,1,815.3015,815.8003,,,,,,281,MAS,WORD,AGR,150,cielo,,el,,815.8005,815.8006,-0.189522586,-0.369788659,0,0,0,,0,236,236,280,1,cauro,,,,
,,,,,,5f3c202dc59223a250d37f11,676192165fb32c2e1fb7aee6,67d194181e13c598cee590e4,2025-03-12_08h04.02.826,Tarea de decisión léxica,2024.2.5,MacIntel,63.29113924,,,,,,,,,,,,,,,,,,,,,,,815.8021,817.0009,a,1,0.5191,,0.5191,1,817.0009,817.5014,,,,,,57,MAS,WORD,DIS,150,dedo,,la,,817.503,817.5042,-0.189522586,-0.369788659,0,0,0,,0,237,237,56,1,heco,,,,
,,,,,,5f3c202dc59223a250d37f11,676192165fb32c2e1fb7aee6,67d194181e13c598cee590e4,2025-03-12_08h04.02.826,Tarea de decisión léxica,2024.2.5,MacIntel,63.29113924,,,,,,,,,,,,,,,,,,,,,,,817.5052,818.6846,l,1,0.5004,,0.5004,1,818.6848,819.1842,,,,,,350,MAS,NOWORD,AGR,150,cosir,,el,,819.1843,819.1843,-0.189522586,-0.369788659,0,0,0,,0,238,238,349,1,color,,,,
,,,,,,5f3c202dc59223a250d37f11,676192165fb32c2e1fb7aee6,67d194181e13c598cee590e4,2025-03-12_08h04.02.826,Tarea de decisión léxica,2024.2.5,MacIntel,63.29113924,,,,,,,,,,,,,,,,,,,,,,,819.1848,820.418,l,1,0.5516,,0.5516,1,820.4181,820.918,,,,,,404,FEM,NOWORD,DIS,150,grisa,,el,,820.9181,820.9182,-0.189522586,-0.369788659,0,0,0,,0,239,239,403,1,prima,,,,
,,,,,,5f3c202dc59223a250d37f11,676192165fb32c2e1fb7aee6,67d194181e13c598cee590e4,2025-03-12_08h04.02.826,Tarea de decisión léxica,2024.2.5,MacIntel,63.29113924,,,,,,,,,,,,,,,,,,,,,,,820.9195,822.0346,a,0,0.4334,,0.4334,0,822.0355,822.5347,,,,,,168,FEM,NOWORD,DIS,150,zifa,,el,,822.5348,822.5349,-0.189522586,-0.369788659,0,0,0,,0,240,240,167,1,jefa,,,,
,,,,,,5f3c202dc59223a250d37f11,676192165fb32c2e1fb7aee6,67d194181e13c598cee590e4,2025-03-12_08h04.02.826,Tarea de decisión léxica,2024.2.5,MacIntel,63.29113924,,,,,,,,,,,,,,,,,,,,,,,822.5364,823.668,a,1,0.4501,,0.4501,1,823.6691,824.168,,,,,,63,FEM,WORD,DIS,150,luna,,el,,824.1682,824.1683,-0.189522586,-0.369788659,0,0,0,,0,241,241,62,1,funa,,,,
,,,,,,5f3c202dc59223a250d37f11,676192165fb32c2e1fb7aee6,67d194181e13c598cee590e4,2025-03-12_08h04.02.826,Tarea de decisión léxica,2024.2.5,MacIntel,63.29113924,,,,,,,,,,,,,,,,,,,,,,,824.1698,825.3012,l,1,0.4503,,0.4503,1,825.3013,825.8014,,,,,,56,MAS,NOWORD,DIS,150,jado,,la,,825.803,825.804,-0.189522586,-0.369788659,0,0,0,,0,242,242,55,1,gato,,,,
,,,,,,5f3c202dc59223a250d37f11,676192165fb32c2e1fb7aee6,67d194181e13c598cee590e4,2025-03-12_08h04.02.826,Tarea de decisión léxica,2024.2.5,MacIntel,63.29113924,,,,,,,,,,,,,,,,,,,,,,,825.8047,826.9513,l,1,0.4669,,0.4669,1,826.9515,827.4514,,,,,,164,FEM,NOWORD,DIS,150,laga,,el,,827.4515,827.4517,-0.189522586,-0.369788659,0,0,0,,0,243,243,163,1,fama,,,,
,,,,,,5f3c202dc59223a250d37f11,676192165fb32c2e1fb7aee6,67d194181e13c598cee590e4,2025-03-12_08h04.02.826,Tarea de decisión léxica,2024.2.5,MacIntel,63.29113924,,,,,,,,,,,,,,,,,,,,,,,827.4531,828.8345,a,1,0.7118,,0.7118,1,828.8346,829.3345,,,,,,131,FEM,WORD,AGR,150,mina,,la,,829.3346,829.3348,-0.189522586,-0.369788659,0,0,0,,0,244,244,130,1,fada,,,,
,,,,,,5f3c202dc59223a250d37f11,676192165fb32c2e1fb7aee6,67d194181e13c598cee590e4,2025-03-12_08h04.02.826,Tarea de decisión léxica,2024.2.5,MacIntel,63.29113924,,,,,,,,,,,,,,,,,,,,,,,829.3362,830.4344,a,1,0.428,,0.428,1,830.4346,830.9348,,,,,,173,FEM,WORD,AGR,150,rosa,,la,,830.9349,830.9351,-0.189522586,-0.369788659,0,0,0,,0,245,245,172,1,boma,,,,
,,,,,,5f3c202dc59223a250d37f11,676192165fb32c2e1fb7aee6,67d194181e13c598cee590e4,2025-03-12_08h04.02.826,Tarea de decisión léxica,2024.2.5,MacIntel,63.29113924,,,,,,,,,,,,,,,,,,,,,,,830.9369,832.2012,l,1,0.5837,,0.5837,1,832.2013,832.7014,,,,,,446,MAS,NOWORD,AGR,150,ascor,,el,,832.7015,832.7016,-0.189522586,-0.369788659,0,0,0,,0,246,246,445,1,actor,,,,
,,,,,,5f3c202dc59223a250d37f11,676192165fb32c2e1fb7aee6,67d194181e13c598cee590e4,2025-03-12_08h04.02.826,Tarea de decisión léxica,2024.2.5,MacIntel,63.29113924,,,,,,,,,,,,,,,,,,,,,,,832.7032,833.9346,l,1,0.5626,,0.5626,1,833.9348,834.4346,,,,,,82,FEM,NOWORD,AGR,150,vasa,,la,,834.436,834.4371,-0.189522586,-0.369788659,0,0,0,,0,247,247,81,1,dama,,,,
,,,,,,5f3c202dc59223a250d37f11,676192165fb32c2e1fb7aee6,67d194181e13c598cee590e4,2025-03-12_08h04.02.826,Tarea de decisión léxica,2024.2.5,MacIntel,63.29113924,,,,,,,,,,,,,,,,,,,,,,,834.438,835.6175,a,1,0.5108,,0.5108,1,835.6175,836.1179,,,,,,135,MAS,WORD,DIS,150,tubo,,la,,836.1181,836.1182,-0.189522586,-0.369788659,0,0,0,,0,248,248,134,1,geso,,,,
,,,,,,5f3c202dc59223a250d37f11,676192165fb32c2e1fb7aee6,67d194181e13c598cee590e4,2025-03-12_08h04.02.826,Tarea de decisión léxica,2024.2.5,MacIntel,63.29113924,,,,,,,,,,,,,,,,,,,,,,,836.1196,837.2012,a,1,0.4044,,0.4044,1,837.2013,837.7012,,,,,,359,MAS,WORD,DIS,150,calor,,la,,837.7013,837.7015,-0.189522586,-0.369788659,0,0,0,,0,249,249,358,1,cacer,,,,
,,,,,,5f3c202dc59223a250d37f11,676192165fb32c2e1fb7aee6,67d194181e13c598cee590e4,2025-03-12_08h04.02.826,Tarea de decisión léxica,2024.2.5,MacIntel,63.29113924,,,,,,,,,,,,,,,,,,,,,,,837.7031,838.8679,l,1,0.4838,,0.4838,1,838.868,839.368,,,,,,384,FEM,NOWORD,DIS,150,brame,,el,,839.3681,839.3682,-0.189522586,-0.369788659,0,0,0,,0,250,250,383,1,frase,,,,
,,,,,,5f3c202dc59223a250d37f11,676192165fb32c2e1fb7aee6,67d194181e13c598cee590e4,2025-03-12_08h04.02.826,Tarea de decisión léxica,2024.2.5,MacIntel,63.29113924,,,,,,,,,,,,,,,,,,,,,,,839.3697,840.5514,l,1,0.504,,0.504,1,840.5515,841.0513,,,,,,354,FEM,NOWORD,AGR,150,cezca,,la,,841.053,841.054,-0.189522586,-0.369788659,0,0,0,,0,251,251,353,1,celda,,,,
,,,,,,5f3c202dc59223a250d37f11,676192165fb32c2e1fb7aee6,67d194181e13c598cee590e4,2025-03-12_08h04.02.826,Tarea de decisión léxica,2024.2.5,MacIntel,63.29113924,,,,,,,,,,,,,,,,,,,,,,,841.0548,842.1679,a,1,0.4445,,0.4445,1,842.1679,842.6681,,,,,,119,MAS,WORD,AGR,150,pozo,,el,,842.6682,842.6684,-0.189522586,-0.369788659,0,0,0,,0,252,252,118,1,hooy,,,,
,,,,,,5f3c202dc59223a250d37f11,676192165fb32c2e1fb7aee6,67d194181e13c598cee590e4,2025-03-12_08h04.02.826,Tarea de decisión léxica,2024.2.5,MacIntel,63.29113924,,,,,,,,,,,,,,,,,,,,,,,842.6699,843.8844,l,1,0.5449,,0.5449,1,843.8845,844.3846,,,,,,218,MAS,NOWORD,AGR,150,budo,,el,,844.3846,844.3849,-0.189522586,-0.369788659,0,0,0,,0,253,253,217,1,luto,,,,
,,,,,,5f3c202dc59223a250d37f11,676192165fb32c2e1fb7aee6,67d194181e13c598cee590e4,2025-03-12_08h04.02.826,Tarea de decisión léxica,2024.2.5,MacIntel,63.29113924,,,,,,,,,,,,,,,,,,,,,,,844.3864,845.6179,a,1,0.5524,,0.5524,1,845.6181,846.118,,,,,,263,FEM,WORD,DIS,150,vista,,el,,846.1181,846.1183,-0.189522586,-0.369788659,0,0,0,,0,254,254,262,1,dosta,,,,
,,,,,,5f3c202dc59223a250d37f11,676192165fb32c2e1fb7aee6,67d194181e13c598cee590e4,2025-03-12_08h04.02.826,Tarea de decisión léxica,2024.2.5,MacIntel,63.29113924,,,,,,,,,,,,,,,,,,,,,,,846.1198,847.3844,a,1,0.5953,,0.5953,1,847.3845,847.8846,,,,,,341,MAS,WORD,AGR,150,valor,,el,,847.8847,847.8849,-0.189522586,-0.369788659,0,0,0,,0,255,255,340,1,daror,,,,
,,,,,,5f3c202dc59223a250d37f11,676192165fb32c2e1fb7aee6,67d194181e13c598cee590e4,2025-03-12_08h04.02.826,Tarea de decisión léxica,2024.2.5,MacIntel,63.29113924,,,,,,,,,,,,,,,,,,,,,,,847.8864,849.0509,a,1,0.495,,0.495,1,849.051,849.5502,,,,,,353,FEM,WORD,DIS,150,celda,,el,,849.5518,849.5529,-0.189522586,-0.369788659,0,0,0,,0,256,256,352,1,cezca,,,,
,,,,,,5f3c202dc59223a250d37f11,676192165fb32c2e1fb7aee6,67d194181e13c598cee590e4,2025-03-12_08h04.02.826,Tarea de decisión léxica,2024.2.5,MacIntel,63.29113924,,,,,,,,,,,,,,,,,,,,,,,849.5537,850.7835,l,1,0.5502,,0.5502,1,850.7836,851.2846,,,,,,370,MAS,NOWORD,AGR,150,rioco,,el,,851.2847,851.2849,-0.189522586,-0.369788659,0,0,0,,0,257,257,369,1,ruido,,,,
,,,,,,5f3c202dc59223a250d37f11,676192165fb32c2e1fb7aee6,67d194181e13c598cee590e4,2025-03-12_08h04.02.826,Tarea de decisión léxica,2024.2.5,MacIntel,63.29113924,,,,,,,,,,,,,,,,,,,,,,,851.2866,852.5337,l,1,0.5671,,0.5671,1,852.5338,853.0347,,,,,,126,MAS,NOWORD,AGR,150,vudo,,el,,853.0348,853.0349,-0.189522586,-0.369788659,0,0,0,,0,258,258,125,1,lujo,,,,
,,,,,,5f3c202dc59223a250d37f11,676192165fb32c2e1fb7aee6,67d194181e13c598cee590e4,2025-03-12_08h04.02.826,Tarea de decisión léxica,2024.2.5,MacIntel,63.29113924,,,,,,,,,,,,,,,,,,,,,,,853.0365,854.2012,a,1,0.4864,,0.4864,1,854.2014,854.7013,,,,,,229,MAS,WORD,AGR,150,amor,,el,,854.7014,854.7016,-0.189522586,-0.369788659,0,0,0,,0,259,259,228,1,ador,,,,
,,,,,,5f3c202dc59223a250d37f11,676192165fb32c2e1fb7aee6,67d194181e13c598cee590e4,2025-03-12_08h04.02.826,Tarea de decisión léxica,2024.2.5,MacIntel,63.29113924,,,,,,,,,,,,,,,,,,,,,,,854.7032,855.7345,a,1,0.3505,,0.3505,1,855.7346,856.2347,,,,,,271,FEM,WORD,DIS,150,señal,,el,,856.2348,856.235,-0.189522586,-0.369788659,0,0,0,,0,260,260,270,1,refal,,,,
,,,,,,5f3c202dc59223a250d37f11,676192165fb32c2e1fb7aee6,67d194181e13c598cee590e4,2025-03-12_08h04.02.826,Tarea de decisión léxica,2024.2.5,MacIntel,63.29113924,,,,,,,,,,,,,,,,,,,,,,,856.2366,857.3847,l,1,0.4671,,0.4671,1,857.3848,857.8847,,,,,,178,MAS,NOWORD,AGR,150,bito,,el,,857.8862,857.8875,-0.189522586,-0.369788659,0,0,0,,0,261,261,177,1,reto,,,,
