counterbalancing_condition,consent_prescreening.block_1/declare_consent,consent_prescreening.block_1/age_years,consent_prescreening.block_1/gender,consent_prescreening.block_1/language_disorder,consent_prescreening.block_1/first_language,PROLIFIC_PID,STUDY_ID,SESSION_ID,date,expName,psychopyVersion,OS,frameRate,check_prescreening_answers.started,check_prescreening_answers.stopped,Instructions.started,Instructions.stopped,instr_done_keyboard.keys,instr_done_keyboard.rt,instr_done_keyboard.duration,instr_done_touch.x,instr_done_touch.y,instr_done_touch.leftButton,instr_done_touch.midButton,instr_done_touch.rightButton,instruction_pages.thisRepN,instruction_pages.thisTrialN,instruction_pages.thisN,instruction_pages.thisIndex,instruction_pages.ran,pageN,phase,instruct_text,has_image,instruct_image,presentTrial.started,presentTrial.stopped,response.keys,response.corr,response.rt,response.duration,rt,corr,feedback.started,feedback.stopped,practice_trials.thisRepN,practice_trials.thisTrialN,practice_trials.thisN,practice_trials.thisIndex,practice_trials.ran,TrialID,Gender,StimulusType,Condition,PrimeDuration,Prime,len,Flanker,corrAns,Break.started,Break.stopped,break_done_touch.x,break_done_touch.y,break_done_touch.leftButton,break_done_touch.midButton,break_done_touch.rightButton,break_done_keyboard.keys,experiment_trials.thisRepN,experiment_trials.thisTrialN,experiment_trials.thisN,experiment_trials.thisIndex,experiment_trials.ran,PairedWith,break_done_keyboard.rt,break_done_keyboard.duration,End.started,End.stopped
3,"[""over_18"",""comfortable"",""read_info"",""consent_given""]",23,M,"[""none""]","[""spanish""]",5f527fcd94f94754853db0e5,676192165fb32c2e1fb7aee6,67d1b5300c02f891b58b3d41,2025-03-12_10h42.53.556,Tarea de decisión léxica,2024.2.5,Win32,59.88023952,,,,,,,,,,,,,,,,,,,,,,,,,,,,,,,,,,,,,,,,,,,,,,,,,,,,,,,,,,,,,,,,
,,,,,,5f527fcd94f94754853db0e5,676192165fb32c2e1fb7aee6,67d1b5300c02f891b58b3d41,2025-03-12_10h42.53.556,Tarea de decisión léxica,2024.2.5,Win32,59.88023952,24.2546,24.2547,,,,,,,,,,,,,,,,,,,,,,,,,,,,,,,,,,,,,,,,,,,,,,,,,,,,,,,,,,,,,,
,,,,,,5f527fcd94f94754853db0e5,676192165fb32c2e1fb7aee6,67d1b5300c02f891b58b3d41,2025-03-12_10h42.53.556,Tarea de decisión léxica,2024.2.5,Win32,59.88023952,,,24.2696,35.2106,space,10.8914,,0.036111302,-0.411111302,0,0,0,0,0,0,0,1,1,instructions,"INSTRUCCIONES
Va a realizar una prueba de decisión léxica. Desde el comienzo de la prueba mire siempre al centro de la pantalla. Se presentará una serie de cadenas de letras, una a la vez, en la pantalla. Su tarea consiste en determinar si cada cadena de letras constituye una palabra real en español o una no-palabra (una secuencia de letras que no constituye una palabra real). 

Pulse la tecla ESPACIO para continuar.",0,keyboardresponseWN.png,,,,,,,,,,,,,,,,,,,,,,,,,,,,,,,,,,,,,,,,,,
,,,,,,5f527fcd94f94754853db0e5,676192165fb32c2e1fb7aee6,67d1b5300c02f891b58b3d41,2025-03-12_10h42.53.556,Tarea de decisión léxica,2024.2.5,Win32,59.88023952,,,35.2174,44.8736,space,9.6307,,0.036111302,-0.411111302,0,0,0,0,1,1,1,1,2,instructions,"El procedimiento es el siguiente: Aparecerán dos barras verticales posicionadas en el centro de la pantalla, separadas por un pequeño espacio.Por favor, enfoque su atención en el espacio entre las barras. Esto preparará sus ojos para la siguiente cadena de letras, que aparecerá entre las dos barras durante un instante.

Pulse la tecla ESPACIO para continuar.",0,keyboardresponseWN.png,,,,,,,,,,,,,,,,,,,,,,,,,,,,,,,,,,,,,,,,,,
,,,,,,5f527fcd94f94754853db0e5,676192165fb32c2e1fb7aee6,67d1b5300c02f891b58b3d41,2025-03-12_10h42.53.556,Tarea de decisión léxica,2024.2.5,Win32,59.88023952,,,44.8763,50.3391,space,5.412,,0.036111302,-0.411111302,0,0,0,0,2,2,2,1,3,instructions,"En el teclado de su dispositivo, pulse la tecla ""A"" si la cadena de letras es una palabra real en español (por ejemplo: ""mano"") y la tecla ""L"" si la cadena de letras es una no-palabra (por ejemplo: ""minu"").
Pulse la tecla ESPACIO para continuar.",1,keyboardresponseWN.png,,,,,,,,,,,,,,,,,,,,,,,,,,,,,,,,,,,,,,,,,,
,,,,,,5f527fcd94f94754853db0e5,676192165fb32c2e1fb7aee6,67d1b5300c02f891b58b3d41,2025-03-12_10h42.53.556,Tarea de decisión léxica,2024.2.5,Win32,59.88023952,,,50.3419,59.3867,space,9.0149,,0.036111302,-0.411111302,0,0,0,0,3,3,3,1,4,instructions,"Es muy importante que responda con la mayor rapidez y precisión posibles. Si no responde dentro de 2 segundos, aparecerá el mensaje ""Muy lento"" y el experimento pasará a la siguiente palabra. Inmediatamente después de su respuesta se indicará si fue correcta o no. Los primeros 15 intentos serán de práctica y habrá dos descansos durante la prueba.

Pulse la tecla ESPACIO  para iniciar la parte de práctica.",0,keyboardresponseWN.png,,,,,,,,,,,,,,,,,,,,,,,,,,,,,,,,,,,,,,,,,,
,,,,,,5f527fcd94f94754853db0e5,676192165fb32c2e1fb7aee6,67d1b5300c02f891b58b3d41,2025-03-12_10h42.53.556,Tarea de decisión léxica,2024.2.5,Win32,59.88023952,,,,,,,,,,,,,,,,,,,,,,,59.4045,60.8862,a,1,0.8066,,0.8066,1,60.8864,61.3863,0,0,0,5,1,1006,FEM,WORD,AGR,150,cara,4,la,l,,,,,,,,,,,,,,,,,,
,,,,,,5f527fcd94f94754853db0e5,676192165fb32c2e1fb7aee6,67d1b5300c02f891b58b3d41,2025-03-12_10h42.53.556,Tarea de decisión léxica,2024.2.5,Win32,59.88023952,,,,,,,,,,,,,,,,,,,,,,,61.3887,62.4691,a,1,0.4114,,0.4114,1,62.4693,62.969,0,1,1,9,1,1010,MAS,WORD,DIS,150,video,5,la,l,,,,,,,,,,,,,,,,,,
,,,,,,5f527fcd94f94754853db0e5,676192165fb32c2e1fb7aee6,67d1b5300c02f891b58b3d41,2025-03-12_10h42.53.556,Tarea de decisión léxica,2024.2.5,Win32,59.88023952,,,,,,,,,,,,,,,,,,,,,,,62.9699,63.9854,a,1,0.34,,0.34,1,63.9855,64.4853,0,2,2,8,1,1009,FEM,WORD,AGR,150,viejo,5,la,l,,,,,,,,,,,,,,,,,,
,,,,,,5f527fcd94f94754853db0e5,676192165fb32c2e1fb7aee6,67d1b5300c02f891b58b3d41,2025-03-12_10h42.53.556,Tarea de decisión léxica,2024.2.5,Win32,59.88023952,,,,,,,,,,,,,,,,,,,,,,,64.4862,65.5516,a,1,0.389,,0.389,1,65.5517,66.0515,0,3,3,7,1,1008,MAS,WORD,DIS,150,frío,4,la,l,,,,,,,,,,,,,,,,,,
,,,,,,5f527fcd94f94754853db0e5,676192165fb32c2e1fb7aee6,67d1b5300c02f891b58b3d41,2025-03-12_10h42.53.556,Tarea de decisión léxica,2024.2.5,Win32,59.88023952,,,,,,,,,,,,,,,,,,,,,,,66.0528,67.2179,l,1,0.4902,,0.4902,1,67.218,67.7178,0,4,4,1,1,1002,FEM,NOWORD,DIS,150,mabo,4,el,a,,,,,,,,,,,,,,,,,,
,,,,,,5f527fcd94f94754853db0e5,676192165fb32c2e1fb7aee6,67d1b5300c02f891b58b3d41,2025-03-12_10h42.53.556,Tarea de decisión léxica,2024.2.5,Win32,59.88023952,,,,,,,,,,,,,,,,,,,,,,,67.7189,68.7844,l,1,0.3901,,0.3901,1,68.7845,69.2842,0,5,5,4,1,1005,MAS,NOWORD,DIS,150,nobad,5,la,a,,,,,,,,,,,,,,,,,,
,,,,,,5f527fcd94f94754853db0e5,676192165fb32c2e1fb7aee6,67d1b5300c02f891b58b3d41,2025-03-12_10h42.53.556,Tarea de decisión léxica,2024.2.5,Win32,59.88023952,,,,,,,,,,,,,,,,,,,,,,,69.2851,70.417,l,1,0.4596,,0.4596,1,70.4171,70.9169,0,6,6,0,1,1001,FEM,NOWORD,AGR,150,croz,4,la,a,,,,,,,,,,,,,,,,,,
,,,,,,5f527fcd94f94754853db0e5,676192165fb32c2e1fb7aee6,67d1b5300c02f891b58b3d41,2025-03-12_10h42.53.556,Tarea de decisión léxica,2024.2.5,Win32,59.88023952,,,,,,,,,,,,,,,,,,,,,,,70.9178,72.0667,l,1,0.4734,,0.4734,1,72.0667,72.5665,0,7,7,2,1,1003,FEM,NOWORD,DIS,150,muvor,5,el,a,,,,,,,,,,,,,,,,,,
,,,,,,5f527fcd94f94754853db0e5,676192165fb32c2e1fb7aee6,67d1b5300c02f891b58b3d41,2025-03-12_10h42.53.556,Tarea de decisión léxica,2024.2.5,Win32,59.88023952,,,,,,,,,,,,,,,,,,,,,,,72.5671,73.6995,l,1,0.4495,,0.4495,1,73.6996,74.1993,0,8,8,3,1,1004,FEM,NOWORD,AGR,150,bireo,5,la,a,,,,,,,,,,,,,,,,,,
,,,,,,5f527fcd94f94754853db0e5,676192165fb32c2e1fb7aee6,67d1b5300c02f891b58b3d41,2025-03-12_10h42.53.556,Tarea de decisión léxica,2024.2.5,Win32,59.88023952,,,,,,,,,,,,,,,,,,,,,,,74.2002,75.266,a,1,0.3853,,0.3853,1,75.266,75.7659,0,9,9,6,1,1007,MAS,WORD,DIS,150,masa,4,la,l,,,,,,,,,,,,,,,,,,
,,,,,,5f527fcd94f94754853db0e5,676192165fb32c2e1fb7aee6,67d1b5300c02f891b58b3d41,2025-03-12_10h42.53.556,Tarea de decisión léxica,2024.2.5,Win32,59.88023952,,,78.1007,81.4646,space,3.3455,,0.036111302,-0.411111302,0,0,0,,,,,,,,,,,81.4949,82.6642,l,1,0.5021,,0.5021,1,82.6643,83.1639,,,,,,46,FEM,NOWORD,AGR,150,pema,,la,,83.1642,83.169,0.036111302,-0.411111302,0,0,0,,0,0,0,45,1,mesa,,,,
,,,,,,5f527fcd94f94754853db0e5,676192165fb32c2e1fb7aee6,67d1b5300c02f891b58b3d41,2025-03-12_10h42.53.556,Tarea de decisión léxica,2024.2.5,Win32,59.88023952,,,,,,,,,,,,,,,,,,,,,,,83.1707,84.5637,a,1,0.7172,,0.7172,1,84.5637,85.0636,,,,,,121,MAS,WORD,AGR,150,hoyo,,el,,85.0636,85.0638,0.036111302,-0.411111302,0,0,0,,0,1,1,120,1,bomo,,,,
,,,,,,5f527fcd94f94754853db0e5,676192165fb32c2e1fb7aee6,67d1b5300c02f891b58b3d41,2025-03-12_10h42.53.556,Tarea de decisión léxica,2024.2.5,Win32,59.88023952,,,,,,,,,,,,,,,,,,,,,,,85.0646,86.2465,a,1,0.5002,,0.5002,1,86.2466,86.7466,,,,,,311,MAS,WORD,DIS,150,honor,,la,,86.7478,86.7487,0.036111302,-0.411111302,0,0,0,,0,2,2,310,1,nosor,,,,
,,,,,,5f527fcd94f94754853db0e5,676192165fb32c2e1fb7aee6,67d1b5300c02f891b58b3d41,2025-03-12_10h42.53.556,Tarea de decisión léxica,2024.2.5,Win32,59.88023952,,,,,,,,,,,,,,,,,,,,,,,86.7494,87.8129,a,1,0.3968,,0.3968,1,87.813,88.3129,,,,,,415,FEM,WORD,DIS,150,jaula,,el,,88.3129,88.313,0.036111302,-0.411111302,0,0,0,,0,3,3,414,1,juira,,,,
,,,,,,5f527fcd94f94754853db0e5,676192165fb32c2e1fb7aee6,67d1b5300c02f891b58b3d41,2025-03-12_10h42.53.556,Tarea de decisión léxica,2024.2.5,Win32,59.88023952,,,,,,,,,,,,,,,,,,,,,,,88.3137,89.2959,a,1,0.3,,0.3,1,89.296,89.7956,,,,,,5,FEM,WORD,AGR,150,cosa,,la,,89.7958,89.7958,0.036111302,-0.411111302,0,0,0,,0,4,4,4,1,poga,,,,
,,,,,,5f527fcd94f94754853db0e5,676192165fb32c2e1fb7aee6,67d1b5300c02f891b58b3d41,2025-03-12_10h42.53.556,Tarea de decisión léxica,2024.2.5,Win32,59.88023952,,,,,,,,,,,,,,,,,,,,,,,89.7973,90.9455,l,1,0.4664,,0.4664,1,90.9456,91.4451,,,,,,234,FEM,NOWORD,AGR,150,fasa,,la,,91.4452,91.4453,0.036111302,-0.411111302,0,0,0,,0,5,5,233,1,lana,,,,
,,,,,,5f527fcd94f94754853db0e5,676192165fb32c2e1fb7aee6,67d1b5300c02f891b58b3d41,2025-03-12_10h42.53.556,Tarea de decisión léxica,2024.2.5,Win32,59.88023952,,,,,,,,,,,,,,,,,,,,,,,91.4459,92.5116,l,1,0.3845,,0.3845,1,92.5116,93.0118,,,,,,400,MAS,NOWORD,DIS,150,serro,,la,,93.0119,93.0121,0.036111302,-0.411111302,0,0,0,,0,6,6,399,1,techo,,,,
,,,,,,5f527fcd94f94754853db0e5,676192165fb32c2e1fb7aee6,67d1b5300c02f891b58b3d41,2025-03-12_10h42.53.556,Tarea de decisión léxica,2024.2.5,Win32,59.88023952,,,,,,,,,,,,,,,,,,,,,,,93.0128,94.0778,a,1,0.3888,,0.3888,1,94.0779,94.5777,,,,,,373,FEM,WORD,AGR,150,pizza,,la,,94.5785,94.5794,0.036111302,-0.411111302,0,0,0,,0,7,7,372,1,pogza,,,,
,,,,,,5f527fcd94f94754853db0e5,676192165fb32c2e1fb7aee6,67d1b5300c02f891b58b3d41,2025-03-12_10h42.53.556,Tarea de decisión léxica,2024.2.5,Win32,59.88023952,,,,,,,,,,,,,,,,,,,,,,,94.5799,95.7108,l,1,0.4514,,0.4514,1,95.7109,96.2107,,,,,,252,MAS,NOWORD,DIS,150,refor,,la,,96.2107,96.2108,0.036111302,-0.411111302,0,0,0,,0,8,8,251,1,señor,,,,
,,,,,,5f527fcd94f94754853db0e5,676192165fb32c2e1fb7aee6,67d1b5300c02f891b58b3d41,2025-03-12_10h42.53.556,Tarea de decisión léxica,2024.2.5,Win32,59.88023952,,,,,,,,,,,,,,,,,,,,,,,96.2115,97.2271,a,1,0.3399,,0.3399,1,97.2271,97.7272,,,,,,37,MAS,WORD,AGR,150,rato,,el,,97.7272,97.7274,0.036111302,-0.411111302,0,0,0,,0,9,9,36,1,gaco,,,,
,,,,,,5f527fcd94f94754853db0e5,676192165fb32c2e1fb7aee6,67d1b5300c02f891b58b3d41,2025-03-12_10h42.53.556,Tarea de decisión léxica,2024.2.5,Win32,59.88023952,,,,,,,,,,,,,,,,,,,,,,,97.728,98.76,l,1,0.3603,,0.3603,1,98.76,99.2601,,,,,,190,MAS,NOWORD,AGR,150,muvo,,el,,99.2602,99.2603,0.036111302,-0.411111302,0,0,0,,0,10,10,189,1,puño,,,,
,,,,,,5f527fcd94f94754853db0e5,676192165fb32c2e1fb7aee6,67d1b5300c02f891b58b3d41,2025-03-12_10h42.53.556,Tarea de decisión léxica,2024.2.5,Win32,59.88023952,,,,,,,,,,,,,,,,,,,,,,,99.2609,100.2762,a,1,0.3419,,0.3419,1,100.2763,100.7761,,,,,,315,FEM,WORD,DIS,150,reina,,el,,100.777,100.7782,0.036111302,-0.411111302,0,0,0,,0,11,11,314,1,riosa,,,,
,,,,,,5f527fcd94f94754853db0e5,676192165fb32c2e1fb7aee6,67d1b5300c02f891b58b3d41,2025-03-12_10h42.53.556,Tarea de decisión léxica,2024.2.5,Win32,59.88023952,,,,,,,,,,,,,,,,,,,,,,,100.7787,101.7928,a,1,0.3349,,0.3349,1,101.7929,102.2926,,,,,,375,FEM,WORD,DIS,150,salsa,,el,,102.2926,102.2927,0.036111302,-0.411111302,0,0,0,,0,12,12,374,1,sasna,,,,
,,,,,,5f527fcd94f94754853db0e5,676192165fb32c2e1fb7aee6,67d1b5300c02f891b58b3d41,2025-03-12_10h42.53.556,Tarea de decisión léxica,2024.2.5,Win32,59.88023952,,,,,,,,,,,,,,,,,,,,,,,102.2936,103.3589,l,1,0.3832,,0.3832,1,103.359,103.8587,,,,,,160,MAS,NOWORD,DIS,150,bilo,,la,,103.8588,103.8588,0.036111302,-0.411111302,0,0,0,,0,13,13,159,1,giro,,,,
,,,,,,5f527fcd94f94754853db0e5,676192165fb32c2e1fb7aee6,67d1b5300c02f891b58b3d41,2025-03-12_10h42.53.556,Tarea de decisión léxica,2024.2.5,Win32,59.88023952,,,,,,,,,,,,,,,,,,,,,,,103.8595,104.9917,a,1,0.4514,,0.4514,1,104.9917,105.4917,,,,,,207,MAS,WORD,DIS,150,kilo,,la,,105.4917,105.4917,0.036111302,-0.411111302,0,0,0,,0,14,14,206,1,kedo,,,,
,,,,,,5f527fcd94f94754853db0e5,676192165fb32c2e1fb7aee6,67d1b5300c02f891b58b3d41,2025-03-12_10h42.53.556,Tarea de decisión léxica,2024.2.5,Win32,59.88023952,,,,,,,,,,,,,,,,,,,,,,,105.4922,106.5583,l,1,0.387,,0.387,1,106.5583,107.058,,,,,,392,MAS,NOWORD,DIS,150,dievo,,la,,107.058,107.0581,0.036111302,-0.411111302,0,0,0,,0,15,15,391,1,dueño,,,,
,,,,,,5f527fcd94f94754853db0e5,676192165fb32c2e1fb7aee6,67d1b5300c02f891b58b3d41,2025-03-12_10h42.53.556,Tarea de decisión léxica,2024.2.5,Win32,59.88023952,,,,,,,,,,,,,,,,,,,,,,,107.0593,108.0744,a,0,0.3339,,0.3339,0,108.075,108.5743,,,,,,458,MAS,NOWORD,AGR,150,glaco,,el,,108.575,108.5759,0.036111302,-0.411111302,0,0,0,,0,16,16,457,1,plato,,,,
,,,,,,5f527fcd94f94754853db0e5,676192165fb32c2e1fb7aee6,67d1b5300c02f891b58b3d41,2025-03-12_10h42.53.556,Tarea de decisión léxica,2024.2.5,Win32,59.88023952,,,,,,,,,,,,,,,,,,,,,,,108.5766,109.8905,a,1,0.6431,,0.6431,1,109.8911,110.3905,,,,,,425,FEM,WORD,AGR,150,viuda,,la,,110.3905,110.3907,0.036111302,-0.411111302,0,0,0,,0,17,17,424,1,virca,,,,
,,,,,,5f527fcd94f94754853db0e5,676192165fb32c2e1fb7aee6,67d1b5300c02f891b58b3d41,2025-03-12_10h42.53.556,Tarea de decisión léxica,2024.2.5,Win32,59.88023952,,,,,,,,,,,,,,,,,,,,,,,110.3918,111.5237,l,1,0.4535,,0.4535,1,111.5237,112.0234,,,,,,176,FEM,NOWORD,DIS,150,hosa,,el,,112.0235,112.0236,0.036111302,-0.411111302,0,0,0,,0,18,18,175,1,goma,,,,
,,,,,,5f527fcd94f94754853db0e5,676192165fb32c2e1fb7aee6,67d1b5300c02f891b58b3d41,2025-03-12_10h42.53.556,Tarea de decisión léxica,2024.2.5,Win32,59.88023952,,,,,,,,,,,,,,,,,,,,,,,112.0243,113.1899,a,1,0.4933,,0.4933,1,113.1901,113.6897,,,,,,323,FEM,WORD,DIS,150,cinta,,el,,113.6897,113.6897,0.036111302,-0.411111302,0,0,0,,0,19,19,322,1,certa,,,,
,,,,,,5f527fcd94f94754853db0e5,676192165fb32c2e1fb7aee6,67d1b5300c02f891b58b3d41,2025-03-12_10h42.53.556,Tarea de decisión léxica,2024.2.5,Win32,59.88023952,,,,,,,,,,,,,,,,,,,,,,,113.6903,114.7893,a,1,0.4298,,0.4298,1,114.7894,115.2892,,,,,,173,FEM,WORD,AGR,150,rosa,,la,,115.2893,115.2893,0.036111302,-0.411111302,0,0,0,,0,20,20,172,1,boma,,,,
,,,,,,5f527fcd94f94754853db0e5,676192165fb32c2e1fb7aee6,67d1b5300c02f891b58b3d41,2025-03-12_10h42.53.556,Tarea de decisión léxica,2024.2.5,Win32,59.88023952,,,,,,,,,,,,,,,,,,,,,,,115.2899,116.3723,l,1,0.4094,,0.4094,1,116.3723,116.8722,,,,,,408,FEM,NOWORD,DIS,150,cauba,,el,,116.873,116.874,0.036111302,-0.411111302,0,0,0,,0,21,21,407,1,cueva,,,,
,,,,,,5f527fcd94f94754853db0e5,676192165fb32c2e1fb7aee6,67d1b5300c02f891b58b3d41,2025-03-12_10h42.53.556,Tarea de decisión léxica,2024.2.5,Win32,59.88023952,,,,,,,,,,,,,,,,,,,,,,,116.8745,117.9886,l,1,0.4388,,0.4388,1,117.9886,118.4887,,,,,,480,MAS,NOWORD,DIS,150,rimpo,,la,,118.4887,118.4889,0.036111302,-0.411111302,0,0,0,,0,22,22,479,1,rumbo,,,,
,,,,,,5f527fcd94f94754853db0e5,676192165fb32c2e1fb7aee6,67d1b5300c02f891b58b3d41,2025-03-12_10h42.53.556,Tarea de decisión léxica,2024.2.5,Win32,59.88023952,,,,,,,,,,,,,,,,,,,,,,,118.4896,119.7715,l,1,0.6017,,0.6017,1,119.7715,120.2714,,,,,,26,FEM,NOWORD,AGR,150,paza,,la,,120.2715,120.2716,0.036111302,-0.411111302,0,0,0,,0,23,23,25,1,cama,,,,
,,,,,,5f527fcd94f94754853db0e5,676192165fb32c2e1fb7aee6,67d1b5300c02f891b58b3d41,2025-03-12_10h42.53.556,Tarea de decisión léxica,2024.2.5,Win32,59.88023952,,,,,,,,,,,,,,,,,,,,,,,120.2723,121.3379,l,1,0.3835,,0.3835,1,121.3379,121.8375,,,,,,278,MAS,NOWORD,AGR,150,vuemo,,el,,121.8375,121.8376,0.036111302,-0.411111302,0,0,0,,0,24,24,277,1,fuego,,,,
,,,,,,5f527fcd94f94754853db0e5,676192165fb32c2e1fb7aee6,67d1b5300c02f891b58b3d41,2025-03-12_10h42.53.556,Tarea de decisión léxica,2024.2.5,Win32,59.88023952,,,,,,,,,,,,,,,,,,,,,,,121.8381,122.8373,l,1,0.3299,,0.3299,1,122.8373,123.3373,,,,,,310,FEM,NOWORD,AGR,150,tirra,,la,,123.3374,123.3375,0.036111302,-0.411111302,0,0,0,,0,25,25,309,1,silla,,,,
,,,,,,5f527fcd94f94754853db0e5,676192165fb32c2e1fb7aee6,67d1b5300c02f891b58b3d41,2025-03-12_10h42.53.556,Tarea de decisión léxica,2024.2.5,Win32,59.88023952,,,,,,,,,,,,,,,,,,,,,,,123.3382,124.5205,a,1,0.4998,,0.4998,1,124.5205,125.0202,,,,,,115,FEM,WORD,DIS,150,pata,,el,,125.0209,125.0223,0.036111302,-0.411111302,0,0,0,,0,26,26,114,1,haca,,,,
,,,,,,5f527fcd94f94754853db0e5,676192165fb32c2e1fb7aee6,67d1b5300c02f891b58b3d41,2025-03-12_10h42.53.556,Tarea de decisión léxica,2024.2.5,Win32,59.88023952,,,,,,,,,,,,,,,,,,,,,,,125.023,126.0699,l,1,0.3735,,0.3735,1,126.07,126.5696,,,,,,198,MAS,NOWORD,AGR,150,dade,,el,,126.5696,126.5698,0.036111302,-0.411111302,0,0,0,,0,27,27,197,1,bate,,,,
,,,,,,5f527fcd94f94754853db0e5,676192165fb32c2e1fb7aee6,67d1b5300c02f891b58b3d41,2025-03-12_10h42.53.556,Tarea de decisión léxica,2024.2.5,Win32,59.88023952,,,,,,,,,,,,,,,,,,,,,,,126.5702,127.6028,l,1,0.3614,,0.3614,1,127.6028,128.1027,,,,,,388,FEM,NOWORD,DIS,150,bresa,,el,,128.1027,128.1028,0.036111302,-0.411111302,0,0,0,,0,28,28,387,1,crema,,,,
,,,,,,5f527fcd94f94754853db0e5,676192165fb32c2e1fb7aee6,67d1b5300c02f891b58b3d41,2025-03-12_10h42.53.556,Tarea de decisión léxica,2024.2.5,Win32,59.88023952,,,,,,,,,,,,,,,,,,,,,,,128.1034,129.1192,l,1,0.3348,,0.3348,1,129.1193,129.6189,,,,,,332,MAS,NOWORD,DIS,150,erato,,la,,129.619,129.619,0.036111302,-0.411111302,0,0,0,,0,29,29,331,1,éxito,,,,
,,,,,,5f527fcd94f94754853db0e5,676192165fb32c2e1fb7aee6,67d1b5300c02f891b58b3d41,2025-03-12_10h42.53.556,Tarea de decisión léxica,2024.2.5,Win32,59.88023952,,,,,,,,,,,,,,,,,,,,,,,129.6196,130.6356,l,0,0.3332,,0.3332,0,130.6362,131.1356,,,,,,43,FEM,WORD,DIS,150,pena,,el,,131.1356,131.1356,0.036111302,-0.411111302,0,0,0,,0,30,30,42,1,meda,,,,
,,,,,,5f527fcd94f94754853db0e5,676192165fb32c2e1fb7aee6,67d1b5300c02f891b58b3d41,2025-03-12_10h42.53.556,Tarea de decisión léxica,2024.2.5,Win32,59.88023952,,,,,,,,,,,,,,,,,,,,,,,131.1364,132.1684,a,1,0.3515,,0.3515,1,132.169,132.6682,,,,,,285,MAS,WORD,AGR,150,error,,el,,132.6692,132.6702,0.036111302,-0.411111302,0,0,0,,0,31,31,284,1,echor,,,,
,,,,,,5f527fcd94f94754853db0e5,676192165fb32c2e1fb7aee6,67d1b5300c02f891b58b3d41,2025-03-12_10h42.53.556,Tarea de decisión léxica,2024.2.5,Win32,59.88023952,,,,,,,,,,,,,,,,,,,,,,,132.6709,133.6513,a,1,0.3016,,0.3016,1,133.6514,134.1512,,,,,,391,MAS,WORD,DIS,150,dueño,,la,,134.1513,134.1513,0.036111302,-0.411111302,0,0,0,,0,32,32,390,1,dievo,,,,
,,,,,,5f527fcd94f94754853db0e5,676192165fb32c2e1fb7aee6,67d1b5300c02f891b58b3d41,2025-03-12_10h42.53.556,Tarea de decisión léxica,2024.2.5,Win32,59.88023952,,,,,,,,,,,,,,,,,,,,,,,134.1523,135.1676,a,1,0.3463,,0.3463,1,135.1677,135.6674,,,,,,153,MAS,WORD,AGR,150,pato,,el,,135.6676,135.6676,0.036111302,-0.411111302,0,0,0,,0,33,33,152,1,tado,,,,
,,,,,,5f527fcd94f94754853db0e5,676192165fb32c2e1fb7aee6,67d1b5300c02f891b58b3d41,2025-03-12_10h42.53.556,Tarea de decisión léxica,2024.2.5,Win32,59.88023952,,,,,,,,,,,,,,,,,,,,,,,135.6681,136.7339,l,1,0.3837,,0.3837,1,136.7339,137.2338,,,,,,448,MAS,NOWORD,DIS,150,buaso,,la,,137.2338,137.2339,0.036111302,-0.411111302,0,0,0,,0,34,34,447,1,bolso,,,,
,,,,,,5f527fcd94f94754853db0e5,676192165fb32c2e1fb7aee6,67d1b5300c02f891b58b3d41,2025-03-12_10h42.53.556,Tarea de decisión léxica,2024.2.5,Win32,59.88023952,,,,,,,,,,,,,,,,,,,,,,,137.2348,138.4504,a,1,0.5336,,0.5336,1,138.4504,138.95,,,,,,7,MAS,WORD,DIS,150,hijo,,la,,138.9508,138.9514,0.036111302,-0.411111302,0,0,0,,0,35,35,6,1,nivo,,,,
,,,,,,5f527fcd94f94754853db0e5,676192165fb32c2e1fb7aee6,67d1b5300c02f891b58b3d41,2025-03-12_10h42.53.556,Tarea de decisión léxica,2024.2.5,Win32,59.88023952,,,,,,,,,,,,,,,,,,,,,,,138.9522,140.1164,l,1,0.4945,,0.4945,1,140.1164,140.6161,,,,,,134,FEM,NOWORD,AGR,150,vesa,,la,,140.6161,140.6162,0.036111302,-0.411111302,0,0,0,,0,36,36,133,1,vaca,,,,
,,,,,,5f527fcd94f94754853db0e5,676192165fb32c2e1fb7aee6,67d1b5300c02f891b58b3d41,2025-03-12_10h42.53.556,Tarea de decisión léxica,2024.2.5,Win32,59.88023952,,,,,,,,,,,,,,,,,,,,,,,140.6168,141.8329,l,1,0.5348,,0.5348,1,141.8329,142.3328,,,,,,236,FEM,NOWORD,DIS,150,tria,,el,,142.3328,142.3328,0.036111302,-0.411111302,0,0,0,,0,37,37,235,1,grúa,,,,
,,,,,,5f527fcd94f94754853db0e5,676192165fb32c2e1fb7aee6,67d1b5300c02f891b58b3d41,2025-03-12_10h42.53.556,Tarea de decisión léxica,2024.2.5,Win32,59.88023952,,,,,,,,,,,,,,,,,,,,,,,142.3336,143.4323,a,1,0.4265,,0.4265,1,143.4323,143.9322,,,,,,33,FEM,WORD,AGR,150,boca,,la,,143.9323,143.9323,0.036111302,-0.411111302,0,0,0,,0,38,38,32,1,loda,,,,
,,,,,,5f527fcd94f94754853db0e5,676192165fb32c2e1fb7aee6,67d1b5300c02f891b58b3d41,2025-03-12_10h42.53.556,Tarea de decisión léxica,2024.2.5,Win32,59.88023952,,,,,,,,,,,,,,,,,,,,,,,143.9329,145.0153,l,1,0.4028,,0.4028,1,145.0153,145.5151,,,,,,152,MAS,NOWORD,DIS,150,sogo,,la,,145.5151,145.5152,0.036111302,-0.411111302,0,0,0,,0,39,39,151,1,tomo,,,,
,,,,,,5f527fcd94f94754853db0e5,676192165fb32c2e1fb7aee6,67d1b5300c02f891b58b3d41,2025-03-12_10h42.53.556,Tarea de decisión léxica,2024.2.5,Win32,59.88023952,,,,,,,,,,,,,,,,,,,,,,,145.516,146.5983,l,1,0.4004,,0.4004,1,146.5983,147.098,,,,,,194,FEM,NOWORD,AGR,150,foda,,la,,147.0991,147.1002,0.036111302,-0.411111302,0,0,0,,0,40,40,193,1,loca,,,,
,,,,,,5f527fcd94f94754853db0e5,676192165fb32c2e1fb7aee6,67d1b5300c02f891b58b3d41,2025-03-12_10h42.53.556,Tarea de decisión léxica,2024.2.5,Win32,59.88023952,,,,,,,,,,,,,,,,,,,,,,,147.1008,148.1811,l,0,0.4038,,0.4038,0,148.1817,148.681,,,,,,29,MAS,WORD,AGR,150,modo,,el,,148.681,148.681,0.036111302,-0.411111302,0,0,0,,0,41,41,28,1,pono,,,,
,,,,,,5f527fcd94f94754853db0e5,676192165fb32c2e1fb7aee6,67d1b5300c02f891b58b3d41,2025-03-12_10h42.53.556,Tarea de decisión léxica,2024.2.5,Win32,59.88023952,,,,,,,,,,,,,,,,,,,,,,,148.6819,149.9973,a,1,0.6412,,0.6412,1,149.9977,150.4972,,,,,,165,FEM,WORD,AGR,150,vela,,la,,150.4972,150.4972,0.036111302,-0.411111302,0,0,0,,0,42,42,164,1,dera,,,,
,,,,,,5f527fcd94f94754853db0e5,676192165fb32c2e1fb7aee6,67d1b5300c02f891b58b3d41,2025-03-12_10h42.53.556,Tarea de decisión léxica,2024.2.5,Win32,59.88023952,,,,,,,,,,,,,,,,,,,,,,,150.4979,151.6136,l,1,0.4354,,0.4354,1,151.6136,152.1135,,,,,,262,MAS,NOWORD,AGR,150,titio,,el,,152.1135,152.1136,0.036111302,-0.411111302,0,0,0,,0,43,43,261,1,sitio,,,,
,,,,,,5f527fcd94f94754853db0e5,676192165fb32c2e1fb7aee6,67d1b5300c02f891b58b3d41,2025-03-12_10h42.53.556,Tarea de decisión léxica,2024.2.5,Win32,59.88023952,,,,,,,,,,,,,,,,,,,,,,,152.1143,153.2464,a,0,0.453,,0.453,0,153.2468,153.7464,,,,,,302,FEM,NOWORD,AGR,150,ranga,,la,,153.7464,153.7465,0.036111302,-0.411111302,0,0,0,,0,44,44,301,1,banda,,,,
,,,,,,5f527fcd94f94754853db0e5,676192165fb32c2e1fb7aee6,67d1b5300c02f891b58b3d41,2025-03-12_10h42.53.556,Tarea de decisión léxica,2024.2.5,Win32,59.88023952,,,,,,,,,,,,,,,,,,,,,,,153.7471,154.8628,a,1,0.4344,,0.4344,1,154.8633,155.3628,,,,,,435,MAS,WORD,DIS,150,ritmo,,la,,155.3636,155.3645,0.036111302,-0.411111302,0,0,0,,0,45,45,434,1,ricno,,,,
,,,,,,5f527fcd94f94754853db0e5,676192165fb32c2e1fb7aee6,67d1b5300c02f891b58b3d41,2025-03-12_10h42.53.556,Tarea de decisión léxica,2024.2.5,Win32,59.88023952,,,,,,,,,,,,,,,,,,,,,,,155.3653,156.4789,l,1,0.4449,,0.4449,1,156.4789,156.9792,,,,,,440,FEM,NOWORD,DIS,150,prema,,el,,156.9792,156.9792,0.036111302,-0.411111302,0,0,0,,0,46,46,439,1,presa,,,,
,,,,,,5f527fcd94f94754853db0e5,676192165fb32c2e1fb7aee6,67d1b5300c02f891b58b3d41,2025-03-12_10h42.53.556,Tarea de decisión léxica,2024.2.5,Win32,59.88023952,,,,,,,,,,,,,,,,,,,,,,,156.9799,158.0787,a,1,0.4182,,0.4182,1,158.0788,158.5787,,,,,,271,FEM,WORD,DIS,150,señal,,el,,158.5788,158.5788,0.036111302,-0.411111302,0,0,0,,0,47,47,270,1,refal,,,,
,,,,,,5f527fcd94f94754853db0e5,676192165fb32c2e1fb7aee6,67d1b5300c02f891b58b3d41,2025-03-12_10h42.53.556,Tarea de decisión léxica,2024.2.5,Win32,59.88023952,,,,,,,,,,,,,,,,,,,,,,,158.5795,159.8283,a,1,0.5671,,0.5671,1,159.8284,160.3281,,,,,,453,FEM,WORD,AGR,150,mafia,,la,,160.3282,160.3282,0.036111302,-0.411111302,0,0,0,,0,48,48,452,1,pafia,,,,
,,,,,,5f527fcd94f94754853db0e5,676192165fb32c2e1fb7aee6,67d1b5300c02f891b58b3d41,2025-03-12_10h42.53.556,Tarea de decisión léxica,2024.2.5,Win32,59.88023952,,,,,,,,,,,,,,,,,,,,,,,160.3289,161.578,l,1,0.5672,,0.5672,1,161.5781,162.0776,,,,,,472,FEM,NOWORD,DIS,150,prana,,el,,162.0777,162.0777,0.036111302,-0.411111302,0,0,0,,0,49,49,471,1,grasa,,,,
,,,,,,5f527fcd94f94754853db0e5,676192165fb32c2e1fb7aee6,67d1b5300c02f891b58b3d41,2025-03-12_10h42.53.556,Tarea de decisión léxica,2024.2.5,Win32,59.88023952,,,,,,,,,,,,,,,,,,,,,,,162.0784,163.244,l,1,0.4871,,0.4871,1,163.244,163.7439,,,,,,238,MAS,NOWORD,AGR,150,huco,,el,,163.7445,163.7451,0.036111302,-0.411111302,0,0,0,,0,50,50,237,1,nudo,,,,
,,,,,,5f527fcd94f94754853db0e5,676192165fb32c2e1fb7aee6,67d1b5300c02f891b58b3d41,2025-03-12_10h42.53.556,Tarea de decisión léxica,2024.2.5,Win32,59.88023952,,,,,,,,,,,,,,,,,,,,,,,163.7459,164.9271,a,1,0.503,,0.503,1,164.9271,165.4268,,,,,,325,FEM,WORD,AGR,150,magia,,la,,165.4268,165.4268,0.036111302,-0.411111302,0,0,0,,0,51,51,324,1,mabia,,,,
,,,,,,5f527fcd94f94754853db0e5,676192165fb32c2e1fb7aee6,67d1b5300c02f891b58b3d41,2025-03-12_10h42.53.556,Tarea de decisión léxica,2024.2.5,Win32,59.88023952,,,,,,,,,,,,,,,,,,,,,,,165.4274,166.4601,a,1,0.3518,,0.3518,1,166.4601,166.9599,,,,,,309,FEM,WORD,AGR,150,silla,,la,,166.9599,166.9599,0.036111302,-0.411111302,0,0,0,,0,52,52,308,1,tirra,,,,
,,,,,,5f527fcd94f94754853db0e5,676192165fb32c2e1fb7aee6,67d1b5300c02f891b58b3d41,2025-03-12_10h42.53.556,Tarea de decisión léxica,2024.2.5,Win32,59.88023952,,,,,,,,,,,,,,,,,,,,,,,166.9606,168.1261,a,1,0.4864,,0.4864,1,168.1262,168.6261,,,,,,171,MAS,WORD,DIS,150,hilo,,la,,168.6262,168.6262,0.036111302,-0.411111302,0,0,0,,0,53,53,170,1,niro,,,,
,,,,,,5f527fcd94f94754853db0e5,676192165fb32c2e1fb7aee6,67d1b5300c02f891b58b3d41,2025-03-12_10h42.53.556,Tarea de decisión léxica,2024.2.5,Win32,59.88023952,,,,,,,,,,,,,,,,,,,,,,,168.627,169.8257,a,1,0.5246,,0.5246,1,169.8258,170.3256,,,,,,421,MAS,WORD,AGR,150,primo,,el,,170.3256,170.3257,0.036111302,-0.411111302,0,0,0,,0,54,54,420,1,griso,,,,
,,,,,,5f527fcd94f94754853db0e5,676192165fb32c2e1fb7aee6,67d1b5300c02f891b58b3d41,2025-03-12_10h42.53.556,Tarea de decisión léxica,2024.2.5,Win32,59.88023952,,,,,,,,,,,,,,,,,,,,,,,170.3263,171.3923,a,1,0.3887,,0.3887,1,171.3923,171.8919,,,,,,259,MAS,WORD,DIS,150,juego,,la,,171.8929,171.8943,0.036111302,-0.411111302,0,0,0,,0,55,55,258,1,jaumo,,,,
,,,,,,5f527fcd94f94754853db0e5,676192165fb32c2e1fb7aee6,67d1b5300c02f891b58b3d41,2025-03-12_10h42.53.556,Tarea de decisión léxica,2024.2.5,Win32,59.88023952,,,,,,,,,,,,,,,,,,,,,,,171.8951,173.0251,a,1,0.4557,,0.4557,1,173.0251,173.5251,,,,,,205,FEM,WORD,AGR,150,rana,,la,,173.5252,173.5252,0.036111302,-0.411111302,0,0,0,,0,56,56,204,1,bara,,,,
,,,,,,5f527fcd94f94754853db0e5,676192165fb32c2e1fb7aee6,67d1b5300c02f891b58b3d41,2025-03-12_10h42.53.556,Tarea de decisión léxica,2024.2.5,Win32,59.88023952,,,,,,,,,,,,,,,,,,,,,,,173.5258,174.5081,a,1,0.3139,,0.3139,1,174.5082,175.0078,,,,,,451,FEM,WORD,DIS,150,fruta,,el,,175.0078,175.0078,0.036111302,-0.411111302,0,0,0,,0,57,57,450,1,clita,,,,
,,,,,,5f527fcd94f94754853db0e5,676192165fb32c2e1fb7aee6,67d1b5300c02f891b58b3d41,2025-03-12_10h42.53.556,Tarea de decisión léxica,2024.2.5,Win32,59.88023952,,,,,,,,,,,,,,,,,,,,,,,175.0083,176.191,a,1,0.5013,,0.5013,1,176.1911,176.6909,,,,,,119,MAS,WORD,DIS,150,pozo,,la,,176.6909,176.6911,0.036111302,-0.411111302,0,0,0,,0,58,58,118,1,hooy,,,,
,,,,,,5f527fcd94f94754853db0e5,676192165fb32c2e1fb7aee6,67d1b5300c02f891b58b3d41,2025-03-12_10h42.53.556,Tarea de decisión léxica,2024.2.5,Win32,59.88023952,,,,,,,,,,,,,,,,,,,,,,,176.692,177.8071,l,1,0.4413,,0.4413,1,177.8072,178.3072,,,,,,68,FEM,NOWORD,DIS,150,gesa,,el,,178.308,178.3087,0.036111302,-0.411111302,0,0,0,,0,59,59,67,1,nena,,,,
,,,,,,5f527fcd94f94754853db0e5,676192165fb32c2e1fb7aee6,67d1b5300c02f891b58b3d41,2025-03-12_10h42.53.556,Tarea de decisión léxica,2024.2.5,Win32,59.88023952,,,,,,,,,,,,,,,,,,,,,,,178.3099,179.407,a,1,0.4304,,0.4304,1,179.4071,179.9066,,,,,,3,FEM,WORD,DIS,150,vida,,el,,179.9066,179.9066,0.036111302,-0.411111302,0,0,0,,0,60,60,2,1,dica,,,,
,,,,,,5f527fcd94f94754853db0e5,676192165fb32c2e1fb7aee6,67d1b5300c02f891b58b3d41,2025-03-12_10h42.53.556,Tarea de decisión léxica,2024.2.5,Win32,59.88023952,,,,,,,,,,,,,,,,,,,,,,,179.9082,181.0062,l,1,0.4264,,0.4264,1,181.0062,181.5064,,,,,,154,MAS,NOWORD,AGR,150,tado,,el,,181.5064,181.5065,0.036111302,-0.411111302,0,0,0,,0,61,61,153,1,pato,,,,
,,,,,,5f527fcd94f94754853db0e5,676192165fb32c2e1fb7aee6,67d1b5300c02f891b58b3d41,2025-03-12_10h42.53.556,Tarea de decisión léxica,2024.2.5,Win32,59.88023952,,,,,,,,,,,,,,,,,,,,,,,181.5072,182.5725,a,1,0.3909,,0.3909,1,182.5726,183.0725,,,,,,301,FEM,WORD,AGR,150,banda,,la,,183.0726,183.0726,0.036111302,-0.411111302,0,0,0,,0,62,62,300,1,ranga,,,,
,,,,,,5f527fcd94f94754853db0e5,676192165fb32c2e1fb7aee6,67d1b5300c02f891b58b3d41,2025-03-12_10h42.53.556,Tarea de decisión léxica,2024.2.5,Win32,59.88023952,,,,,,,,,,,,,,,,,,,,,,,183.0732,184.3387,l,1,0.5955,,0.5955,1,184.3387,184.8388,,,,,,72,FEM,NOWORD,DIS,150,urla,,el,,184.8388,184.8389,0.036111302,-0.411111302,0,0,0,,0,63,63,71,1,isla,,,,
,,,,,,5f527fcd94f94754853db0e5,676192165fb32c2e1fb7aee6,67d1b5300c02f891b58b3d41,2025-03-12_10h42.53.556,Tarea de decisión léxica,2024.2.5,Win32,59.88023952,,,,,,,,,,,,,,,,,,,,,,,184.8396,185.8884,a,1,0.3679,,0.3679,1,185.8885,186.3883,,,,,,1,FEM,WORD,AGR,150,casa,,la,,186.3888,186.3892,0.036111302,-0.411111302,0,0,0,,0,64,64,0,1,mada,,,,
,,,,,,5f527fcd94f94754853db0e5,676192165fb32c2e1fb7aee6,67d1b5300c02f891b58b3d41,2025-03-12_10h42.53.556,Tarea de decisión léxica,2024.2.5,Win32,59.88023952,,,,,,,,,,,,,,,,,,,,,,,186.39,187.5215,l,1,0.4543,,0.4543,1,187.5215,188.0213,,,,,,316,FEM,NOWORD,DIS,150,riosa,,el,,188.0213,188.0213,0.036111302,-0.411111302,0,0,0,,0,65,65,315,1,reina,,,,
,,,,,,5f527fcd94f94754853db0e5,676192165fb32c2e1fb7aee6,67d1b5300c02f891b58b3d41,2025-03-12_10h42.53.556,Tarea de decisión léxica,2024.2.5,Win32,59.88023952,,,,,,,,,,,,,,,,,,,,,,,188.022,189.2544,l,1,0.5508,,0.5508,1,189.2544,189.7543,,,,,,304,MAS,NOWORD,DIS,150,lanco,,la,,189.7544,189.7544,0.036111302,-0.411111302,0,0,0,,0,66,66,303,1,barco,,,,
,,,,,,5f527fcd94f94754853db0e5,676192165fb32c2e1fb7aee6,67d1b5300c02f891b58b3d41,2025-03-12_10h42.53.556,Tarea de decisión léxica,2024.2.5,Win32,59.88023952,,,,,,,,,,,,,,,,,,,,,,,189.7552,190.7871,a,1,0.3589,,0.3589,1,190.7871,191.2873,,,,,,403,FEM,WORD,DIS,150,prima,,el,,191.2874,191.2875,0.036111302,-0.411111302,0,0,0,,0,67,67,402,1,grisa,,,,
,,,,,,5f527fcd94f94754853db0e5,676192165fb32c2e1fb7aee6,67d1b5300c02f891b58b3d41,2025-03-12_10h42.53.556,Tarea de decisión léxica,2024.2.5,Win32,59.88023952,,,,,,,,,,,,,,,,,,,,,,,191.2884,192.3704,l,1,0.4025,,0.4025,1,192.3704,192.8702,,,,,,266,FEM,NOWORD,AGR,150,pitat,,la,,192.8702,192.8703,0.036111302,-0.411111302,0,0,0,,0,68,68,265,1,mitad,,,,
,,,,,,5f527fcd94f94754853db0e5,676192165fb32c2e1fb7aee6,67d1b5300c02f891b58b3d41,2025-03-12_10h42.53.556,Tarea de decisión léxica,2024.2.5,Win32,59.88023952,,,,,,,,,,,,,,,,,,,,,,,192.871,193.9699,a,1,0.4211,,0.4211,1,193.97,194.4695,,,,,,181,FEM,WORD,AGR,150,seda,,la,,194.4701,194.4707,0.036111302,-0.411111302,0,0,0,,0,69,69,180,1,teda,,,,
,,,,,,5f527fcd94f94754853db0e5,676192165fb32c2e1fb7aee6,67d1b5300c02f891b58b3d41,2025-03-12_10h42.53.556,Tarea de decisión léxica,2024.2.5,Win32,59.88023952,,,,,,,,,,,,,,,,,,,,,,,194.4716,195.5694,l,1,0.4182,,0.4182,1,195.5694,196.0694,,,,,,284,MAS,NOWORD,DIS,150,tuevo,,la,,196.0694,196.0696,0.036111302,-0.411111302,0,0,0,,0,70,70,283,1,sueño,,,,
,,,,,,5f527fcd94f94754853db0e5,676192165fb32c2e1fb7aee6,67d1b5300c02f891b58b3d41,2025-03-12_10h42.53.556,Tarea de decisión léxica,2024.2.5,Win32,59.88023952,,,,,,,,,,,,,,,,,,,,,,,196.0702,197.1522,a,1,0.403,,0.403,1,197.1523,197.6521,,,,,,159,MAS,WORD,DIS,150,giro,,la,,197.6522,197.6522,0.036111302,-0.411111302,0,0,0,,0,71,71,158,1,bilo,,,,
,,,,,,5f527fcd94f94754853db0e5,676192165fb32c2e1fb7aee6,67d1b5300c02f891b58b3d41,2025-03-12_10h42.53.556,Tarea de decisión léxica,2024.2.5,Win32,59.88023952,,,,,,,,,,,,,,,,,,,,,,,197.6533,198.7352,l,1,0.4005,,0.4005,1,198.7352,199.2351,,,,,,264,FEM,NOWORD,DIS,150,dosta,,el,,199.2352,199.2352,0.036111302,-0.411111302,0,0,0,,0,72,72,263,1,vista,,,,
,,,,,,5f527fcd94f94754853db0e5,676192165fb32c2e1fb7aee6,67d1b5300c02f891b58b3d41,2025-03-12_10h42.53.556,Tarea de decisión léxica,2024.2.5,Win32,59.88023952,,,,,,,,,,,,,,,,,,,,,,,199.2357,200.4681,l,1,0.5629,,0.5629,1,200.4683,200.968,,,,,,242,MAS,NOWORD,AGR,150,mirdo,,el,,200.968,200.9681,0.036111302,-0.411111302,0,0,0,,0,73,73,241,1,mundo,,,,
,,,,,,5f527fcd94f94754853db0e5,676192165fb32c2e1fb7aee6,67d1b5300c02f891b58b3d41,2025-03-12_10h42.53.556,Tarea de decisión léxica,2024.2.5,Win32,59.88023952,,,,,,,,,,,,,,,,,,,,,,,200.9687,202.0677,l,1,0.4177,,0.4177,1,202.0678,202.5675,,,,,,122,MAS,NOWORD,AGR,150,bomo,,el,,202.5682,202.5689,0.036111302,-0.411111302,0,0,0,,0,74,74,121,1,hoyo,,,,
,,,,,,5f527fcd94f94754853db0e5,676192165fb32c2e1fb7aee6,67d1b5300c02f891b58b3d41,2025-03-12_10h42.53.556,Tarea de decisión léxica,2024.2.5,Win32,59.88023952,,,,,,,,,,,,,,,,,,,,,,,202.5698,203.6842,l,1,0.4335,,0.4335,1,203.6842,204.1839,,,,,,338,MAS,NOWORD,AGR,150,nuejo,,el,,204.1839,204.1841,0.036111302,-0.411111302,0,0,0,,0,75,75,337,1,huevo,,,,
,,,,,,5f527fcd94f94754853db0e5,676192165fb32c2e1fb7aee6,67d1b5300c02f891b58b3d41,2025-03-12_10h42.53.556,Tarea de decisión léxica,2024.2.5,Win32,59.88023952,,,,,,,,,,,,,,,,,,,,,,,204.1846,205.2504,a,1,0.3915,,0.3915,1,205.2504,205.7502,,,,,,265,FEM,WORD,AGR,150,mitad,,la,,205.7503,205.7503,0.036111302,-0.411111302,0,0,0,,0,76,76,264,1,pitat,,,,
,,,,,,5f527fcd94f94754853db0e5,676192165fb32c2e1fb7aee6,67d1b5300c02f891b58b3d41,2025-03-12_10h42.53.556,Tarea de decisión léxica,2024.2.5,Win32,59.88023952,,,,,,,,,,,,,,,,,,,,,,,205.7511,206.8167,a,1,0.3869,,0.3869,1,206.8168,207.3165,,,,,,163,FEM,WORD,DIS,150,fama,,el,,207.3165,207.3166,0.036111302,-0.411111302,0,0,0,,0,77,77,162,1,laga,,,,
,,,,,,5f527fcd94f94754853db0e5,676192165fb32c2e1fb7aee6,67d1b5300c02f891b58b3d41,2025-03-12_10h42.53.556,Tarea de decisión léxica,2024.2.5,Win32,59.88023952,,,,,,,,,,,,,,,,,,,,,,,207.3173,208.4327,l,1,0.4405,,0.4405,1,208.4328,208.9326,,,,,,10,MAS,NOWORD,AGR,150,sibo,,el,,208.9327,208.9328,0.036111302,-0.411111302,0,0,0,,0,78,78,9,1,tipo,,,,
,,,,,,5f527fcd94f94754853db0e5,676192165fb32c2e1fb7aee6,67d1b5300c02f891b58b3d41,2025-03-12_10h42.53.556,Tarea de decisión léxica,2024.2.5,Win32,59.88023952,,,,,,,,,,,,,,,,,,,,,,,208.9334,210.0159,l,1,0.4026,,0.4026,1,210.0159,210.5158,,,,,,18,FEM,NOWORD,AGR,150,paba,,la,,210.5166,210.5172,0.036111302,-0.411111302,0,0,0,,0,79,79,17,1,mamá,,,,
,,,,,,5f527fcd94f94754853db0e5,676192165fb32c2e1fb7aee6,67d1b5300c02f891b58b3d41,2025-03-12_10h42.53.556,Tarea de decisión léxica,2024.2.5,Win32,59.88023952,,,,,,,,,,,,,,,,,,,,,,,210.5182,211.832,a,1,0.6381,,0.6381,1,211.832,212.3319,,,,,,397,FEM,WORD,AGR,150,tribu,,la,,212.332,212.332,0.036111302,-0.411111302,0,0,0,,0,80,80,396,1,trigi,,,,
,,,,,,5f527fcd94f94754853db0e5,676192165fb32c2e1fb7aee6,67d1b5300c02f891b58b3d41,2025-03-12_10h42.53.556,Tarea de decisión léxica,2024.2.5,Win32,59.88023952,,,,,,,,,,,,,,,,,,,,,,,212.3325,213.3984,a,1,0.3873,,0.3873,1,213.3985,213.8982,,,,,,419,MAS,WORD,DIS,150,truco,,la,,213.8983,213.8984,0.036111302,-0.411111302,0,0,0,,0,81,81,418,1,chudo,,,,
,,,,,,5f527fcd94f94754853db0e5,676192165fb32c2e1fb7aee6,67d1b5300c02f891b58b3d41,2025-03-12_10h42.53.556,Tarea de decisión léxica,2024.2.5,Win32,59.88023952,,,,,,,,,,,,,,,,,,,,,,,213.8991,214.8812,a,1,0.3055,,0.3055,1,214.8812,215.3812,,,,,,355,FEM,WORD,DIS,150,regla,,el,,215.3813,215.3813,0.036111302,-0.411111302,0,0,0,,0,82,82,354,1,bepla,,,,
,,,,,,5f527fcd94f94754853db0e5,676192165fb32c2e1fb7aee6,67d1b5300c02f891b58b3d41,2025-03-12_10h42.53.556,Tarea de decisión léxica,2024.2.5,Win32,59.88023952,,,,,,,,,,,,,,,,,,,,,,,215.3818,216.4642,a,1,0.41,,0.41,1,216.4642,216.9643,,,,,,463,FEM,WORD,DIS,150,cabra,,el,,216.9651,216.9658,0.036111302,-0.411111302,0,0,0,,0,83,83,462,1,matla,,,,
,,,,,,5f527fcd94f94754853db0e5,676192165fb32c2e1fb7aee6,67d1b5300c02f891b58b3d41,2025-03-12_10h42.53.556,Tarea de decisión léxica,2024.2.5,Win32,59.88023952,,,,,,,,,,,,,,,,,,,,,,,216.9668,218.0636,l,1,0.4199,,0.4199,1,218.0637,218.5637,,,,,,114,FEM,NOWORD,AGR,150,tada,,la,,218.5638,218.5638,0.036111302,-0.411111302,0,0,0,,0,84,84,113,1,miel,,,,
,,,,,,5f527fcd94f94754853db0e5,676192165fb32c2e1fb7aee6,67d1b5300c02f891b58b3d41,2025-03-12_10h42.53.556,Tarea de decisión léxica,2024.2.5,Win32,59.88023952,,,,,,,,,,,,,,,,,,,,,,,218.5647,219.6801,a,1,0.442,,0.442,1,219.6802,220.1801,,,,,,101,MAS,WORD,AGR,150,tono,,el,,220.1801,220.1801,0.036111302,-0.411111302,0,0,0,,0,85,85,100,1,gito,,,,
,,,,,,5f527fcd94f94754853db0e5,676192165fb32c2e1fb7aee6,67d1b5300c02f891b58b3d41,2025-03-12_10h42.53.556,Tarea de decisión léxica,2024.2.5,Win32,59.88023952,,,,,,,,,,,,,,,,,,,,,,,220.1808,221.2631,l,1,0.4005,,0.4005,1,221.2631,221.7632,,,,,,178,MAS,NOWORD,AGR,150,bito,,el,,221.7633,221.7634,0.036111302,-0.411111302,0,0,0,,0,86,86,177,1,reto,,,,
,,,,,,5f527fcd94f94754853db0e5,676192165fb32c2e1fb7aee6,67d1b5300c02f891b58b3d41,2025-03-12_10h42.53.556,Tarea de decisión léxica,2024.2.5,Win32,59.88023952,,,,,,,,,,,,,,,,,,,,,,,221.7643,222.796,a,1,0.3595,,0.3595,1,222.796,223.2956,,,,,,277,MAS,WORD,AGR,150,fuego,,el,,223.2957,223.2958,0.036111302,-0.411111302,0,0,0,,0,87,87,276,1,vuemo,,,,
,,,,,,5f527fcd94f94754853db0e5,676192165fb32c2e1fb7aee6,67d1b5300c02f891b58b3d41,2025-03-12_10h42.53.556,Tarea de decisión léxica,2024.2.5,Win32,59.88023952,,,,,,,,,,,,,,,,,,,,,,,223.2963,224.3957,l,1,0.4304,,0.4304,1,224.3959,224.8954,,,,,,354,FEM,NOWORD,AGR,150,cezca,,la,,224.8961,224.8974,0.036111302,-0.411111302,0,0,0,,0,88,88,353,1,celda,,,,
,,,,,,5f527fcd94f94754853db0e5,676192165fb32c2e1fb7aee6,67d1b5300c02f891b58b3d41,2025-03-12_10h42.53.556,Tarea de decisión léxica,2024.2.5,Win32,59.88023952,,,,,,,,,,,,,,,,,,,,,,,224.8982,225.9118,a,1,0.3373,,0.3373,1,225.9118,226.4119,,,,,,247,FEM,WORD,DIS,150,chica,,el,,226.412,226.412,0.036111302,-0.411111302,0,0,0,,0,89,89,246,1,trida,,,,
,,,,,,5f527fcd94f94754853db0e5,676192165fb32c2e1fb7aee6,67d1b5300c02f891b58b3d41,2025-03-12_10h42.53.556,Tarea de decisión léxica,2024.2.5,Win32,59.88023952,,,,,,,,,,,,,,,,,,,,,,,226.4127,227.6114,a,1,0.5165,,0.5165,1,227.6115,228.1114,,,,,,69,FEM,WORD,AGR,150,zona,,la,,228.1114,228.1116,0.036111302,-0.411111302,0,0,0,,0,90,90,68,1,ñola,,,,
,,,,,,5f527fcd94f94754853db0e5,676192165fb32c2e1fb7aee6,67d1b5300c02f891b58b3d41,2025-03-12_10h42.53.556,Tarea de decisión léxica,2024.2.5,Win32,59.88023952,,,,,,,,,,,,,,,,,,,,,,,228.1123,229.2277,l,1,0.4354,,0.4354,1,229.2277,229.7277,,,,,,150,MAS,NOWORD,AGR,150,pafo,,el,,229.7277,229.7279,0.036111302,-0.411111302,0,0,0,,0,91,91,149,1,cabo,,,,
,,,,,,5f527fcd94f94754853db0e5,676192165fb32c2e1fb7aee6,67d1b5300c02f891b58b3d41,2025-03-12_10h42.53.556,Tarea de decisión léxica,2024.2.5,Win32,59.88023952,,,,,,,,,,,,,,,,,,,,,,,229.7286,230.8774,a,1,0.4682,,0.4682,1,230.8775,231.3771,,,,,,267,MAS,WORD,DIS,150,libro,,la,,231.3771,231.3771,0.036111302,-0.411111302,0,0,0,,0,92,92,266,1,figro,,,,
,,,,,,5f527fcd94f94754853db0e5,676192165fb32c2e1fb7aee6,67d1b5300c02f891b58b3d41,2025-03-12_10h42.53.556,Tarea de decisión léxica,2024.2.5,Win32,59.88023952,,,,,,,,,,,,,,,,,,,,,,,231.3778,232.4603,a,1,0.4055,,0.4055,1,232.4603,232.96,,,,,,81,FEM,WORD,AGR,150,dama,,la,,232.9606,232.961,0.036111302,-0.411111302,0,0,0,,0,93,93,80,1,vasa,,,,
,,,,,,5f527fcd94f94754853db0e5,676192165fb32c2e1fb7aee6,67d1b5300c02f891b58b3d41,2025-03-12_10h42.53.556,Tarea de decisión léxica,2024.2.5,Win32,59.88023952,,,,,,,,,,,,,,,,,,,,,,,232.9617,234.0098,l,1,0.3736,,0.3736,1,234.0098,234.5098,,,,,,374,FEM,NOWORD,AGR,150,pogza,,la,,234.5098,234.51,0.036111302,-0.411111302,0,0,0,,0,94,94,373,1,pizza,,,,
,,,,,,5f527fcd94f94754853db0e5,676192165fb32c2e1fb7aee6,67d1b5300c02f891b58b3d41,2025-03-12_10h42.53.556,Tarea de decisión léxica,2024.2.5,Win32,59.88023952,,,,,,,,,,,,,,,,,,,,,,,234.5106,235.5596,l,1,0.3746,,0.3746,1,235.5598,236.0595,,,,,,290,FEM,NOWORD,AGR,150,bumpa,,la,,236.0596,236.0596,0.036111302,-0.411111302,0,0,0,,0,95,95,289,1,bomba,,,,
,,,,,,5f527fcd94f94754853db0e5,676192165fb32c2e1fb7aee6,67d1b5300c02f891b58b3d41,2025-03-12_10h42.53.556,Tarea de decisión léxica,2024.2.5,Win32,59.88023952,,,,,,,,,,,,,,,,,,,,,,,236.0603,237.1591,a,1,0.4169,,0.4169,1,237.1591,237.659,,,,,,297,MAS,WORD,AGR,150,grupo,,el,,237.659,237.6591,0.036111302,-0.411111302,0,0,0,,0,96,96,296,1,brubo,,,,
,,,,,,5f527fcd94f94754853db0e5,676192165fb32c2e1fb7aee6,67d1b5300c02f891b58b3d41,2025-03-12_10h42.53.556,Tarea de decisión léxica,2024.2.5,Win32,59.88023952,,,,,,,,,,,,,,,,,,,,,,,237.66,238.6587,a,1,0.3169,,0.3169,1,238.6589,239.1587,,,,,,331,MAS,WORD,DIS,150,éxito,,la,,239.1588,239.1589,0.036111302,-0.411111302,0,0,0,,0,97,97,330,1,erato,,,,
,,,,,,5f527fcd94f94754853db0e5,676192165fb32c2e1fb7aee6,67d1b5300c02f891b58b3d41,2025-03-12_10h42.53.556,Tarea de decisión léxica,2024.2.5,Win32,59.88023952,,,,,,,,,,,,,,,,,,,,,,,239.1595,240.125,a,1,0.2886,,0.2886,1,240.1251,240.6249,,,,,,249,FEM,WORD,AGR,150,clase,,la,,240.6254,240.6259,0.036111302,-0.411111302,0,0,0,,0,98,98,248,1,plane,,,,
,,,,,,5f527fcd94f94754853db0e5,676192165fb32c2e1fb7aee6,67d1b5300c02f891b58b3d41,2025-03-12_10h42.53.556,Tarea de decisión léxica,2024.2.5,Win32,59.88023952,,,,,,,,,,,,,,,,,,,,,,,240.6267,241.7915,a,1,0.4917,,0.4917,1,241.7915,242.2909,,,,,,9,MAS,WORD,AGR,150,tipo,,el,,242.291,242.2911,0.036111302,-0.411111302,0,0,0,,0,99,99,8,1,sibo,,,,
,,,,,,5f527fcd94f94754853db0e5,676192165fb32c2e1fb7aee6,67d1b5300c02f891b58b3d41,2025-03-12_10h42.53.556,Tarea de decisión léxica,2024.2.5,Win32,59.88023952,,,,,,,,,,,,,,,,,,,,,,,242.2916,243.3074,l,1,0.3367,,0.3367,1,243.3074,243.8075,,,,,,402,MAS,NOWORD,AGR,150,pirvo,,el,,243.8075,243.8075,0.036111302,-0.411111302,0,0,0,,0,100,100,401,1,polvo,,,,
,,,,,,5f527fcd94f94754853db0e5,676192165fb32c2e1fb7aee6,67d1b5300c02f891b58b3d41,2025-03-12_10h42.53.556,Tarea de decisión léxica,2024.2.5,Win32,59.88023952,,,,,,,,,,,,,,,,,,,,,,,243.8081,244.8074,a,1,0.3307,,0.3307,1,244.8074,245.3069,,,,,,77,MAS,WORD,AGR,150,loco,,el,,245.307,245.307,0.036111302,-0.411111302,0,0,0,,0,101,101,76,1,fodo,,,,
,,,,,,5f527fcd94f94754853db0e5,676192165fb32c2e1fb7aee6,67d1b5300c02f891b58b3d41,2025-03-12_10h42.53.556,Tarea de decisión léxica,2024.2.5,Win32,59.88023952,,,,,,,,,,,,,,,,,,,,,,,245.3076,246.3734,l,1,0.3882,,0.3882,1,246.3734,246.8733,,,,,,420,MAS,NOWORD,DIS,150,chudo,,la,,246.8734,246.8735,0.036111302,-0.411111302,0,0,0,,0,102,102,419,1,truco,,,,
,,,,,,5f527fcd94f94754853db0e5,676192165fb32c2e1fb7aee6,67d1b5300c02f891b58b3d41,2025-03-12_10h42.53.556,Tarea de decisión léxica,2024.2.5,Win32,59.88023952,,,,,,,,,,,,,,,,,,,,,,,246.8743,247.9897,l,1,0.4464,,0.4464,1,247.9898,248.4899,,,,,,406,FEM,NOWORD,AGR,150,rarra,,la,,248.4906,248.4912,0.036111302,-0.411111302,0,0,0,,0,103,103,405,1,barra,,,,
,,,,,,5f527fcd94f94754853db0e5,676192165fb32c2e1fb7aee6,67d1b5300c02f891b58b3d41,2025-03-12_10h42.53.556,Tarea de decisión léxica,2024.2.5,Win32,59.88023952,,,,,,,,,,,,,,,,,,,,,,,248.4924,249.5559,l,1,0.3833,,0.3833,1,249.5559,250.0559,,,,,,162,MAS,NOWORD,AGR,150,bopo,,el,,250.056,250.056,0.036111302,-0.411111302,0,0,0,,0,104,104,161,1,coro,,,,
,,,,,,5f527fcd94f94754853db0e5,676192165fb32c2e1fb7aee6,67d1b5300c02f891b58b3d41,2025-03-12_10h42.53.556,Tarea de decisión léxica,2024.2.5,Win32,59.88023952,,,,,,,,,,,,,,,,,,,,,,,250.0567,251.089,l,1,0.3618,,0.3618,1,251.0891,251.589,,,,,,474,FEM,NOWORD,AGR,150,felia,,la,,251.589,251.5891,0.036111302,-0.411111302,0,0,0,,0,105,105,473,1,feria,,,,
,,,,,,5f527fcd94f94754853db0e5,676192165fb32c2e1fb7aee6,67d1b5300c02f891b58b3d41,2025-03-12_10h42.53.556,Tarea de decisión léxica,2024.2.5,Win32,59.88023952,,,,,,,,,,,,,,,,,,,,,,,251.5899,252.6051,l,1,0.3463,,0.3463,1,252.6051,253.1051,,,,,,318,FEM,NOWORD,AGR,150,plaad,,la,,253.1051,253.1051,0.036111302,-0.411111302,0,0,0,,0,106,106,317,1,playa,,,,
,,,,,,5f527fcd94f94754853db0e5,676192165fb32c2e1fb7aee6,67d1b5300c02f891b58b3d41,2025-03-12_10h42.53.556,Tarea de decisión léxica,2024.2.5,Win32,59.88023952,,,,,,,,,,,,,,,,,,,,,,,253.1058,254.1214,l,1,0.3341,,0.3341,1,254.1215,254.6217,,,,,,192,FEM,NOWORD,DIS,150,bila,,el,,254.6262,254.6269,0.036111302,-0.411111302,0,0,0,,0,107,107,191,1,pila,,,,
,,,,,,5f527fcd94f94754853db0e5,676192165fb32c2e1fb7aee6,67d1b5300c02f891b58b3d41,2025-03-12_10h42.53.556,Tarea de decisión léxica,2024.2.5,Win32,59.88023952,,,,,,,,,,,,,,,,,,,,,,,254.6274,255.7045,l,1,0.4092,,0.4092,1,255.7045,256.2045,,,,,,92,FEM,NOWORD,DIS,150,sava,,el,,256.2046,256.2046,0.036111302,-0.411111302,0,0,0,,0,108,108,91,1,taza,,,,
,,,,,,5f527fcd94f94754853db0e5,676192165fb32c2e1fb7aee6,67d1b5300c02f891b58b3d41,2025-03-12_10h42.53.556,Tarea de decisión léxica,2024.2.5,Win32,59.88023952,,,,,,,,,,,,,,,,,,,,,,,256.2053,257.2873,a,1,0.4,,0.4,1,257.2874,257.7872,,,,,,335,FEM,WORD,DIS,150,costa,,el,,257.7873,257.7873,0.036111302,-0.411111302,0,0,0,,0,109,109,334,1,pesta,,,,
,,,,,,5f527fcd94f94754853db0e5,676192165fb32c2e1fb7aee6,67d1b5300c02f891b58b3d41,2025-03-12_10h42.53.556,Tarea de decisión léxica,2024.2.5,Win32,59.88023952,,,,,,,,,,,,,,,,,,,,,,,257.7878,258.9705,l,1,0.5003,,0.5003,1,258.9706,259.4703,,,,,,116,FEM,NOWORD,DIS,150,haca,,el,,259.4703,259.4704,0.036111302,-0.411111302,0,0,0,,0,110,110,115,1,pata,,,,
,,,,,,5f527fcd94f94754853db0e5,676192165fb32c2e1fb7aee6,67d1b5300c02f891b58b3d41,2025-03-12_10h42.53.556,Tarea de decisión léxica,2024.2.5,Win32,59.88023952,,,,,,,,,,,,,,,,,,,,,,,259.4711,260.67,a,1,0.5171,,0.5171,1,260.6701,261.1699,,,,,,189,MAS,WORD,AGR,150,puño,,el,,261.17,261.1701,0.036111302,-0.411111302,0,0,0,,0,111,111,188,1,muvo,,,,
,,,,,,5f527fcd94f94754853db0e5,676192165fb32c2e1fb7aee6,67d1b5300c02f891b58b3d41,2025-03-12_10h42.53.556,Tarea de decisión léxica,2024.2.5,Win32,59.88023952,,,,,,,,,,,,,,,,,,,,,,,261.171,262.3028,a,1,0.4575,,0.4575,1,262.3029,262.8026,,,,,,221,FEM,WORD,AGR,150,mula,,la,,262.8035,262.8048,0.036111302,-0.411111302,0,0,0,,0,112,112,220,1,puca,,,,
,,,,,,5f527fcd94f94754853db0e5,676192165fb32c2e1fb7aee6,67d1b5300c02f891b58b3d41,2025-03-12_10h42.53.556,Tarea de decisión léxica,2024.2.5,Win32,59.88023952,,,,,,,,,,,,,,,,,,,,,,,262.8054,263.8524,a,1,0.3777,,0.3777,1,263.8524,264.3522,,,,,,471,FEM,WORD,DIS,150,grasa,,el,,264.3523,264.3523,0.036111302,-0.411111302,0,0,0,,0,113,113,470,1,prana,,,,
,,,,,,5f527fcd94f94754853db0e5,676192165fb32c2e1fb7aee6,67d1b5300c02f891b58b3d41,2025-03-12_10h42.53.556,Tarea de decisión léxica,2024.2.5,Win32,59.88023952,,,,,,,,,,,,,,,,,,,,,,,264.353,265.4353,l,1,0.4132,,0.4132,1,265.4354,265.9353,,,,,,218,MAS,NOWORD,AGR,150,budo,,el,,265.9354,265.9354,0.036111302,-0.411111302,0,0,0,,0,114,114,217,1,luto,,,,
,,,,,,5f527fcd94f94754853db0e5,676192165fb32c2e1fb7aee6,67d1b5300c02f891b58b3d41,2025-03-12_10h42.53.556,Tarea de decisión léxica,2024.2.5,Win32,59.88023952,,,,,,,,,,,,,,,,,,,,,,,265.9359,266.9351,a,1,0.3186,,0.3186,1,266.9352,267.4349,,,,,,349,MAS,WORD,AGR,150,color,,el,,267.4349,267.4349,0.036111302,-0.411111302,0,0,0,,0,115,115,348,1,cosir,,,,
,,,,,,5f527fcd94f94754853db0e5,676192165fb32c2e1fb7aee6,67d1b5300c02f891b58b3d41,2025-03-12_10h42.53.556,Tarea de decisión léxica,2024.2.5,Win32,59.88023952,,,,,,,,,,,,,,,,,,,,,,,267.4356,268.4347,a,1,0.3208,,0.3208,1,268.4347,268.9346,,,,,,65,MAS,WORD,AGR,150,dios,,el,,268.9346,268.9347,0.036111302,-0.411111302,0,0,0,,0,116,116,64,1,nios,,,,
,,,,,,5f527fcd94f94754853db0e5,676192165fb32c2e1fb7aee6,67d1b5300c02f891b58b3d41,2025-03-12_10h42.53.556,Tarea de decisión léxica,2024.2.5,Win32,59.88023952,,,,,,,,,,,,,,,,,,,,,,,268.9352,270.0178,l,1,0.4002,,0.4002,1,270.0178,270.5173,,,,,,96,FEM,NOWORD,DIS,151,neda,,el,,270.518,270.5189,0.036111302,-0.411111302,0,0,0,,0,117,117,95,1,moda,,,,
,,,,,,5f527fcd94f94754853db0e5,676192165fb32c2e1fb7aee6,67d1b5300c02f891b58b3d41,2025-03-12_10h42.53.556,Tarea de decisión léxica,2024.2.5,Win32,59.88023952,,,,,,,,,,,,,,,,,,,,,,,270.5198,271.5837,l,1,0.3844,,0.3844,1,271.5838,272.0836,,,,,,394,FEM,NOWORD,AGR,150,ashea,,la,,272.0836,272.0836,0.036111302,-0.411111302,0,0,0,,0,118,118,393,1,aldea,,,,
,,,,,,5f527fcd94f94754853db0e5,676192165fb32c2e1fb7aee6,67d1b5300c02f891b58b3d41,2025-03-12_10h42.53.556,Tarea de decisión léxica,2024.2.5,Win32,59.88023952,,,,,,,,,,,,,,,,,,,,,,,272.0842,273.2167,l,1,0.4546,,0.4546,1,273.2168,273.7167,,,,,,186,MAS,NOWORD,AGR,150,raol,,el,,273.7167,273.7167,0.036111302,-0.411111302,0,0,0,,0,119,119,185,1,baúl,,,,
,,,,,,5f527fcd94f94754853db0e5,676192165fb32c2e1fb7aee6,67d1b5300c02f891b58b3d41,2025-03-12_10h42.53.556,Tarea de decisión léxica,2024.2.5,Win32,59.88023952,,,,,,,,,,,,,,,,,,,,,,,273.7172,274.8829,l,1,0.483,,0.483,1,274.8829,275.383,,,,,,70,FEM,NOWORD,AGR,150,ñola,,la,,275.383,275.383,0.036111302,-0.411111302,0,0,0,,0,120,120,69,1,zona,,,,
,,,,,,5f527fcd94f94754853db0e5,676192165fb32c2e1fb7aee6,67d1b5300c02f891b58b3d41,2025-03-12_10h42.53.556,Tarea de decisión léxica,2024.2.5,Win32,59.88023952,,,,,,,,,,,,,,,,,,,,,,,275.3836,276.5828,l,1,0.5168,,0.5168,1,276.5828,277.0827,,,,,,148,FEM,NOWORD,DIS,150,pama,,el,,277.0827,277.0828,0.036111302,-0.411111302,0,0,0,,0,121,121,147,1,hoja,,,,
,,,,,,5f527fcd94f94754853db0e5,676192165fb32c2e1fb7aee6,67d1b5300c02f891b58b3d41,2025-03-12_10h42.53.556,Tarea de decisión léxica,2024.2.5,Win32,59.88023952,,,,,,,,,,,,,,,,,,,,,,,277.0837,278.1657,l,1,0.414,,0.414,1,278.1658,278.6654,,,,,,230,MAS,NOWORD,AGR,150,ador,,el,,278.6661,278.6671,0.036111302,-0.411111302,0,0,0,,0,122,122,229,1,amor,,,,
,,,,,,5f527fcd94f94754853db0e5,676192165fb32c2e1fb7aee6,67d1b5300c02f891b58b3d41,2025-03-12_10h42.53.556,Tarea de decisión léxica,2024.2.5,Win32,59.88023952,,,,,,,,,,,,,,,,,,,,,,,278.6677,279.7485,l,1,0.4,,0.4,1,279.7485,280.2483,,,,,,426,FEM,NOWORD,AGR,150,virca,,la,,280.2483,280.2483,0.036111302,-0.411111302,0,0,0,,0,123,123,425,1,viuda,,,,
,,,,,,5f527fcd94f94754853db0e5,676192165fb32c2e1fb7aee6,67d1b5300c02f891b58b3d41,2025-03-12_10h42.53.556,Tarea de decisión léxica,2024.2.5,Win32,59.88023952,,,,,,,,,,,,,,,,,,,,,,,280.2491,281.4313,a,1,0.5127,,0.5127,1,281.4313,281.9313,,,,,,363,FEM,WORD,DIS,150,deuda,,el,,281.9313,281.9314,0.036111302,-0.411111302,0,0,0,,0,124,124,362,1,veida,,,,
,,,,,,5f527fcd94f94754853db0e5,676192165fb32c2e1fb7aee6,67d1b5300c02f891b58b3d41,2025-03-12_10h42.53.556,Tarea de decisión léxica,2024.2.5,Win32,59.88023952,,,,,,,,,,,,,,,,,,,,,,,281.9322,283.0143,a,1,0.4072,,0.4072,1,283.0144,283.5143,,,,,,327,MAS,WORD,DIS,150,fondo,,la,,283.5143,283.5143,0.036111302,-0.411111302,0,0,0,,0,125,125,326,1,lendo,,,,
,,,,,,5f527fcd94f94754853db0e5,676192165fb32c2e1fb7aee6,67d1b5300c02f891b58b3d41,2025-03-12_10h42.53.556,Tarea de decisión léxica,2024.2.5,Win32,59.88023952,,,,,,,,,,,,,,,,,,,,,,,283.5149,284.6471,l,1,0.4593,,0.4593,1,284.6472,285.1472,,,,,,98,MAS,NOWORD,AGR,150,fopo,,el,,285.1472,285.1473,0.036111302,-0.411111302,0,0,0,,0,126,126,97,1,mono,,,,
,,,,,,5f527fcd94f94754853db0e5,676192165fb32c2e1fb7aee6,67d1b5300c02f891b58b3d41,2025-03-12_10h42.53.556,Tarea de decisión léxica,2024.2.5,Win32,59.88023952,,,,,,,,,,,,,,,,,,,,,,,285.1481,286.1969,a,1,0.3721,,0.3721,1,286.1969,286.6968,,,,,,97,MAS,WORD,AGR,150,mono,,el,,286.6973,286.6978,0.036111302,-0.411111302,0,0,0,,0,127,127,96,1,fopo,,,,
,,,,,,5f527fcd94f94754853db0e5,676192165fb32c2e1fb7aee6,67d1b5300c02f891b58b3d41,2025-03-12_10h42.53.556,Tarea de decisión léxica,2024.2.5,Win32,59.88023952,,,,,,,,,,,,,,,,,,,,,,,286.6986,287.7964,a,1,0.4226,,0.4226,1,287.7965,288.2965,,,,,,359,MAS,WORD,DIS,150,calor,,la,,288.2966,288.2967,0.036111302,-0.411111302,0,0,0,,0,128,128,358,1,cacer,,,,
,,,,,,5f527fcd94f94754853db0e5,676192165fb32c2e1fb7aee6,67d1b5300c02f891b58b3d41,2025-03-12_10h42.53.556,Tarea de decisión léxica,2024.2.5,Win32,59.88023952,,,,,,,,,,,,,,,,,,,,,,,288.2975,289.4627,l,1,0.4906,,0.4906,1,289.4627,289.9628,,,,,,432,MAS,NOWORD,DIS,150,tetor,,la,,289.9628,289.9629,0.036111302,-0.411111302,0,0,0,,0,129,129,431,1,motor,,,,
,,,,,,5f527fcd94f94754853db0e5,676192165fb32c2e1fb7aee6,67d1b5300c02f891b58b3d41,2025-03-12_10h42.53.556,Tarea de decisión léxica,2024.2.5,Win32,59.88023952,,,,,,,,,,,,,,,,,,,,,,,289.9638,291.1625,a,1,0.5209,,0.5209,1,291.1625,291.6624,,,,,,477,MAS,WORD,AGR,150,botón,,el,,291.6624,291.6625,0.036111302,-0.411111302,0,0,0,,0,130,130,476,1,hocon,,,,
,,,,,,5f527fcd94f94754853db0e5,676192165fb32c2e1fb7aee6,67d1b5300c02f891b58b3d41,2025-03-12_10h42.53.556,Tarea de decisión léxica,2024.2.5,Win32,59.88023952,,,,,,,,,,,,,,,,,,,,,,,291.6634,292.7285,a,1,0.3846,,0.3846,1,292.7286,293.2285,,,,,,99,MAS,WORD,DIS,150,lobo,,la,,293.2292,293.2301,0.036111302,-0.411111302,0,0,0,,0,131,131,98,1,soro,,,,
,,,,,,5f527fcd94f94754853db0e5,676192165fb32c2e1fb7aee6,67d1b5300c02f891b58b3d41,2025-03-12_10h42.53.556,Tarea de decisión léxica,2024.2.5,Win32,59.88023952,,,,,,,,,,,,,,,,,,,,,,,293.2308,294.4615,a,1,0.5514,,0.5514,1,294.4615,294.9613,,,,,,155,FEM,WORD,DIS,150,fuga,,el,,294.9613,294.9614,0.036111302,-0.411111302,0,0,0,,0,132,132,154,1,luma,,,,
,,,,,,5f527fcd94f94754853db0e5,676192165fb32c2e1fb7aee6,67d1b5300c02f891b58b3d41,2025-03-12_10h42.53.556,Tarea de decisión léxica,2024.2.5,Win32,59.88023952,,,,,,,,,,,,,,,,,,,,,,,294.9619,296.2111,l,1,0.5737,,0.5737,1,296.2111,296.7111,,,,,,288,FEM,NOWORD,DIS,150,fosta,,el,,296.7112,296.7112,0.036111302,-0.411111302,0,0,0,,0,133,133,287,1,lista,,,,
,,,,,,5f527fcd94f94754853db0e5,676192165fb32c2e1fb7aee6,67d1b5300c02f891b58b3d41,2025-03-12_10h42.53.556,Tarea de decisión léxica,2024.2.5,Win32,59.88023952,,,,,,,,,,,,,,,,,,,,,,,296.7121,297.9939,l,1,0.6009,,0.6009,1,297.994,298.494,,,,,,30,MAS,NOWORD,AGR,150,pono,,el,,298.494,298.494,0.036111302,-0.411111302,0,0,0,,0,134,134,29,1,modo,,,,
,,,,,,5f527fcd94f94754853db0e5,676192165fb32c2e1fb7aee6,67d1b5300c02f891b58b3d41,2025-03-12_10h42.53.556,Tarea de decisión léxica,2024.2.5,Win32,59.88023952,,,,,,,,,,,,,,,,,,,,,,,298.4948,299.8435,l,1,0.6736,,0.6736,1,299.8435,300.3436,,,,,,110,MAS,NOWORD,AGR,150,suno,,el,,300.3436,300.3437,0.036111302,-0.411111302,0,0,0,,0,135,135,109,1,rayo,,,,
,,,,,,5f527fcd94f94754853db0e5,676192165fb32c2e1fb7aee6,67d1b5300c02f891b58b3d41,2025-03-12_10h42.53.556,Tarea de decisión léxica,2024.2.5,Win32,59.88023952,,,,,,,,,,,,,,,,,,,,,,,300.3445,302.1765,a,1,1.1498,,1.1498,1,302.1765,302.6761,,,,,,407,FEM,WORD,DIS,150,cueva,,el,,302.6767,302.6776,0.036111302,-0.411111302,0,0,0,,0,136,136,406,1,cauba,,,,
,,,,,,5f527fcd94f94754853db0e5,676192165fb32c2e1fb7aee6,67d1b5300c02f891b58b3d41,2025-03-12_10h42.53.556,Tarea de decisión léxica,2024.2.5,Win32,59.88023952,,,,,,,,,,,,,,,,,,,,,,,302.6785,304.9088,a,1,1.5502,,1.5502,1,304.9088,305.4088,,,,,,257,FEM,WORD,AGR,150,amiga,,la,,305.4089,305.4089,0.036111302,-0.411111302,0,0,0,,0,137,137,256,1,asama,,,,
,,,,,,5f527fcd94f94754853db0e5,676192165fb32c2e1fb7aee6,67d1b5300c02f891b58b3d41,2025-03-12_10h42.53.556,Tarea de decisión léxica,2024.2.5,Win32,59.88023952,,,,,,,,,,,,,,,,,,,,,,,305.4095,306.5757,a,1,0.4975,,0.4975,1,306.5758,307.0753,,,,,,329,MAS,WORD,AGR,150,hueso,,el,,307.0753,307.0754,0.036111302,-0.411111302,0,0,0,,0,138,138,328,1,nueno,,,,
,,,,,,5f527fcd94f94754853db0e5,676192165fb32c2e1fb7aee6,67d1b5300c02f891b58b3d41,2025-03-12_10h42.53.556,Tarea de decisión léxica,2024.2.5,Win32,59.88023952,,,,,,,,,,,,,,,,,,,,,,,307.076,308.2079,l,1,0.452,,0.452,1,308.208,308.7081,,,,,,320,MAS,NOWORD,DIS,150,tuero,,la,,308.7081,308.7081,0.036111302,-0.411111302,0,0,0,,0,139,139,319,1,suelo,,,,
,,,,,,5f527fcd94f94754853db0e5,676192165fb32c2e1fb7aee6,67d1b5300c02f891b58b3d41,2025-03-12_10h42.53.556,Tarea de decisión léxica,2024.2.5,Win32,59.88023952,,,,,,,,,,,,,,,,,,,,,,,308.7088,309.8745,l,1,0.4851,,0.4851,1,309.8746,310.3744,,,,,,364,FEM,NOWORD,DIS,150,veida,,el,,310.3744,310.3745,0.036111302,-0.411111302,0,0,0,,0,140,140,363,1,deuda,,,,
,,,,,,5f527fcd94f94754853db0e5,676192165fb32c2e1fb7aee6,67d1b5300c02f891b58b3d41,2025-03-12_10h42.53.556,Tarea de decisión léxica,2024.2.5,Win32,59.88023952,,,,,,,,,,,,,,,,,,,,,,,310.3752,311.4576,a,1,0.4059,,0.4059,1,311.4577,311.9572,,,,,,11,MAS,WORD,DIS,150,lado,,la,,311.9583,311.9589,0.036111302,-0.411111302,0,0,0,,0,141,141,10,1,bapo,,,,
,,,,,,5f527fcd94f94754853db0e5,676192165fb32c2e1fb7aee6,67d1b5300c02f891b58b3d41,2025-03-12_10h42.53.556,Tarea de decisión léxica,2024.2.5,Win32,59.88023952,,,,,,,,,,,,,,,,,,,,,,,311.9597,312.9235,a,1,0.2919,,0.2919,1,312.9235,313.4236,,,,,,103,FEM,WORD,DIS,150,ruta,,el,,313.4236,313.4236,0.036111302,-0.411111302,0,0,0,,0,142,142,102,1,rova,,,,
,,,,,,5f527fcd94f94754853db0e5,676192165fb32c2e1fb7aee6,67d1b5300c02f891b58b3d41,2025-03-12_10h42.53.556,Tarea de decisión léxica,2024.2.5,Win32,59.88023952,,,,,,,,,,,,,,,,,,,,,,,313.4242,314.5399,a,1,0.4442,,0.4442,1,314.54,315.0399,,,,,,179,MAS,WORD,DIS,150,toro,,la,,315.0399,315.04,0.036111302,-0.411111302,0,0,0,,0,143,143,178,1,sono,,,,
,,,,,,5f527fcd94f94754853db0e5,676192165fb32c2e1fb7aee6,67d1b5300c02f891b58b3d41,2025-03-12_10h42.53.556,Tarea de decisión léxica,2024.2.5,Win32,59.88023952,,,,,,,,,,,,,,,,,,,,,,,315.0406,316.1396,l,1,0.4182,,0.4182,1,316.1398,316.6395,,,,,,204,FEM,NOWORD,DIS,150,beja,,el,,316.6396,316.6396,0.036111302,-0.411111302,0,0,0,,0,144,144,203,1,leña,,,,
,,,,,,5f527fcd94f94754853db0e5,676192165fb32c2e1fb7aee6,67d1b5300c02f891b58b3d41,2025-03-12_10h42.53.556,Tarea de decisión léxica,2024.2.5,Win32,59.88023952,,,,,,,,,,,,,,,,,,,,,,,316.6403,317.9225,a,1,0.6068,,0.6068,1,317.9226,318.4224,,,,,,467,MAS,WORD,DIS,150,piano,,la,,318.4225,318.4225,0.036111302,-0.411111302,0,0,0,,0,145,145,466,1,peiso,,,,
,,,,,,5f527fcd94f94754853db0e5,676192165fb32c2e1fb7aee6,67d1b5300c02f891b58b3d41,2025-03-12_10h42.53.556,Tarea de decisión léxica,2024.2.5,Win32,59.88023952,,,,,,,,,,,,,,,,,,,,,,,318.4232,319.5053,a,1,0.4005,,0.4005,1,319.5053,320.0052,,,,,,293,MAS,WORD,AGR,150,campo,,el,,320.0057,320.0062,0.036111302,-0.411111302,0,0,0,,0,146,146,292,1,cacso,,,,
,,,,,,5f527fcd94f94754853db0e5,676192165fb32c2e1fb7aee6,67d1b5300c02f891b58b3d41,2025-03-12_10h42.53.556,Tarea de decisión léxica,2024.2.5,Win32,59.88023952,,,,,,,,,,,,,,,,,,,,,,,320.0069,321.0049,a,0,0.3257,,0.3257,0,321.0053,321.505,,,,,,102,MAS,NOWORD,AGR,150,gito,,el,,321.505,321.5051,0.036111302,-0.411111302,0,0,0,,0,147,147,101,1,tono,,,,
,,,,,,5f527fcd94f94754853db0e5,676192165fb32c2e1fb7aee6,67d1b5300c02f891b58b3d41,2025-03-12_10h42.53.556,Tarea de decisión léxica,2024.2.5,Win32,59.88023952,,,,,,,,,,,,,,,,,,,,,,,321.5057,322.6212,a,1,0.4414,,0.4414,1,322.6215,323.1211,,,,,,201,FEM,WORD,AGR,150,cuna,,la,,323.1211,323.1211,0.036111302,-0.411111302,0,0,0,,0,148,148,200,1,cusa,,,,
,,,,,,5f527fcd94f94754853db0e5,676192165fb32c2e1fb7aee6,67d1b5300c02f891b58b3d41,2025-03-12_10h42.53.556,Tarea de decisión léxica,2024.2.5,Win32,59.88023952,,,,,,,,,,,,,,,,,,,,,,,323.1216,324.1709,l,1,0.3716,,0.3716,1,324.171,324.6707,,,,,,298,MAS,NOWORD,AGR,150,brubo,,el,,324.6708,324.6708,0.036111302,-0.411111302,0,0,0,,0,149,149,297,1,grupo,,,,
,,,,,,5f527fcd94f94754853db0e5,676192165fb32c2e1fb7aee6,67d1b5300c02f891b58b3d41,2025-03-12_10h42.53.556,Tarea de decisión léxica,2024.2.5,Win32,59.88023952,,,,,,,,,,,,,,,,,,,,,,,324.6717,325.8203,l,1,0.4788,,0.4788,1,325.8203,326.3203,,,,,,80,FEM,NOWORD,DIS,150,ciel,,el,,326.3203,326.3204,0.036111302,-0.411111302,0,0,0,,0,150,150,79,1,piel,,,,
,,,,,,5f527fcd94f94754853db0e5,676192165fb32c2e1fb7aee6,67d1b5300c02f891b58b3d41,2025-03-12_10h42.53.556,Tarea de decisión léxica,2024.2.5,Win32,59.88023952,,,,,,,,,,,,,,,,,,,,,,,326.3212,327.2866,a,1,0.2871,,0.2871,1,327.2868,327.7866,,,,,,53,FEM,WORD,AGR,150,boda,,la,,327.7872,327.7876,0.036111302,-0.411111302,0,0,0,,0,151,151,52,1,rora,,,,
,,,,,,5f527fcd94f94754853db0e5,676192165fb32c2e1fb7aee6,67d1b5300c02f891b58b3d41,2025-03-12_10h42.53.556,Tarea de decisión léxica,2024.2.5,Win32,59.88023952,,,,,,,,,,,,,,,,,,,,,,,327.7888,328.803,a,1,0.334,,0.334,1,328.8031,329.3027,,,,,,361,FEM,WORD,AGR,150,torre,,la,,329.3028,329.3028,0.036111302,-0.411111302,0,0,0,,0,152,152,360,1,solle,,,,
,,,,,,5f527fcd94f94754853db0e5,676192165fb32c2e1fb7aee6,67d1b5300c02f891b58b3d41,2025-03-12_10h42.53.556,Tarea de decisión léxica,2024.2.5,Win32,59.88023952,,,,,,,,,,,,,,,,,,,,,,,329.3034,330.3027,a,1,0.3251,,0.3251,1,330.3027,330.8026,,,,,,213,FEM,WORD,AGR,150,rama,,la,,330.8026,330.8026,0.036111302,-0.411111302,0,0,0,,0,153,153,212,1,bana,,,,
,,,,,,5f527fcd94f94754853db0e5,676192165fb32c2e1fb7aee6,67d1b5300c02f891b58b3d41,2025-03-12_10h42.53.556,Tarea de decisión léxica,2024.2.5,Win32,59.88023952,,,,,,,,,,,,,,,,,,,,,,,330.8033,331.8188,l,1,0.3445,,0.3445,1,331.8189,332.3186,,,,,,386,FEM,NOWORD,AGR,150,febra,,la,,332.3186,332.3188,0.036111302,-0.411111302,0,0,0,,0,154,154,385,1,letra,,,,
,,,,,,5f527fcd94f94754853db0e5,676192165fb32c2e1fb7aee6,67d1b5300c02f891b58b3d41,2025-03-12_10h42.53.556,Tarea de decisión léxica,2024.2.5,Win32,59.88023952,,,,,,,,,,,,,,,,,,,,,,,332.3193,333.4016,l,1,0.4091,,0.4091,1,333.4017,333.9018,,,,,,128,MAS,NOWORD,DIS,150,itio,,la,,333.9026,333.9031,0.036111302,-0.411111302,0,0,0,,0,155,155,127,1,pico,,,,
,,,,,,5f527fcd94f94754853db0e5,676192165fb32c2e1fb7aee6,67d1b5300c02f891b58b3d41,2025-03-12_10h42.53.556,Tarea de decisión léxica,2024.2.5,Win32,59.88023952,,,,,,,,,,,,,,,,,,,,,,,333.9039,334.9679,a,1,0.3935,,0.3935,1,334.9681,335.4681,,,,,,411,MAS,WORD,DIS,150,pollo,,la,,335.4681,335.4683,0.036111302,-0.411111302,0,0,0,,0,156,156,410,1,mobro,,,,
,,,,,,5f527fcd94f94754853db0e5,676192165fb32c2e1fb7aee6,67d1b5300c02f891b58b3d41,2025-03-12_10h42.53.556,Tarea de decisión léxica,2024.2.5,Win32,59.88023952,,,,,,,,,,,,,,,,,,,,,,,335.469,336.6343,l,1,0.4868,,0.4868,1,336.6343,337.1342,,,,,,164,FEM,NOWORD,DIS,150,laga,,el,,337.1342,337.1343,0.036111302,-0.411111302,0,0,0,,0,157,157,163,1,fama,,,,
,,,,,,5f527fcd94f94754853db0e5,676192165fb32c2e1fb7aee6,67d1b5300c02f891b58b3d41,2025-03-12_10h42.53.556,Tarea de decisión léxica,2024.2.5,Win32,59.88023952,,,,,,,,,,,,,,,,,,,,,,,337.1348,338.3837,l,1,0.5697,,0.5697,1,338.3838,338.884,,,,,,82,FEM,NOWORD,AGR,150,vasa,,la,,338.884,338.8841,0.036111302,-0.411111302,0,0,0,,0,158,158,81,1,dama,,,,
,,,,,,5f527fcd94f94754853db0e5,676192165fb32c2e1fb7aee6,67d1b5300c02f891b58b3d41,2025-03-12_10h42.53.556,Tarea de decisión léxica,2024.2.5,Win32,59.88023952,,,,,,,,,,,,,,,,,,,,,,,338.8848,339.8835,a,1,0.3213,,0.3213,1,339.8835,340.3834,,,,,,261,MAS,WORD,AGR,150,sitio,,el,,340.3835,340.3835,0.036111302,-0.411111302,0,0,0,,0,159,159,260,1,titio,,,,
,,,,,,5f527fcd94f94754853db0e5,676192165fb32c2e1fb7aee6,67d1b5300c02f891b58b3d41,2025-03-12_10h42.53.556,Tarea de decisión léxica,2024.2.5,Win32,59.88023952,,,,,,,,,,,,,,,,,,,,,,,340.384,341.4001,a,1,0.3337,,0.3337,1,341.4001,341.8999,,,,,,275,MAS,WORD,DIS,150,punto,,la,,341.9003,369.6596,0.036111302,-0.411111302,0,0,0,space,0,160,160,274,1,musto,27.7425,,,
,,,,,,5f527fcd94f94754853db0e5,676192165fb32c2e1fb7aee6,67d1b5300c02f891b58b3d41,2025-03-12_10h42.53.556,Tarea de decisión léxica,2024.2.5,Win32,59.88023952,,,,,,,,,,,,,,,,,,,,,,,369.6602,370.8092,l,1,0.4797,,0.4797,1,370.8093,371.3093,,,,,,248,FEM,NOWORD,DIS,150,trida,,el,,371.3093,371.3094,0.036111302,-0.411111302,0,0,0,,0,161,161,247,1,chica,,,,
,,,,,,5f527fcd94f94754853db0e5,676192165fb32c2e1fb7aee6,67d1b5300c02f891b58b3d41,2025-03-12_10h42.53.556,Tarea de decisión léxica,2024.2.5,Win32,59.88023952,,,,,,,,,,,,,,,,,,,,,,,371.3101,372.3922,l,1,0.4084,,0.4084,1,372.3922,372.892,,,,,,228,MAS,NOWORD,DIS,150,laro,,la,,372.892,372.8921,0.036111302,-0.411111302,0,0,0,,0,162,162,227,1,faro,,,,
,,,,,,5f527fcd94f94754853db0e5,676192165fb32c2e1fb7aee6,67d1b5300c02f891b58b3d41,2025-03-12_10h42.53.556,Tarea de decisión léxica,2024.2.5,Win32,59.88023952,,,,,,,,,,,,,,,,,,,,,,,372.8928,373.9418,l,1,0.3758,,0.3758,1,373.9418,374.4417,,,,,,372,FEM,NOWORD,DIS,150,mosta,,el,,374.4418,374.4419,0.036111302,-0.411111302,0,0,0,,0,163,163,371,1,pasta,,,,
,,,,,,5f527fcd94f94754853db0e5,676192165fb32c2e1fb7aee6,67d1b5300c02f891b58b3d41,2025-03-12_10h42.53.556,Tarea de decisión léxica,2024.2.5,Win32,59.88023952,,,,,,,,,,,,,,,,,,,,,,,374.4425,375.4748,a,1,0.3576,,0.3576,1,375.4748,375.9747,,,,,,437,FEM,WORD,AGR,150,plaza,,la,,375.9747,375.9747,0.036111302,-0.411111302,0,0,0,,0,164,164,436,1,glava,,,,
,,,,,,5f527fcd94f94754853db0e5,676192165fb32c2e1fb7aee6,67d1b5300c02f891b58b3d41,2025-03-12_10h42.53.556,Tarea de decisión léxica,2024.2.5,Win32,59.88023952,,,,,,,,,,,,,,,,,,,,,,,375.9754,377.2076,l,1,0.5594,,0.5594,1,377.2076,377.7077,,,,,,378,MAS,NOWORD,AGR,150,gaulo,,el,,377.7085,377.709,0.036111302,-0.411111302,0,0,0,,0,165,165,377,1,hielo,,,,
,,,,,,5f527fcd94f94754853db0e5,676192165fb32c2e1fb7aee6,67d1b5300c02f891b58b3d41,2025-03-12_10h42.53.556,Tarea de decisión léxica,2024.2.5,Win32,59.88023952,,,,,,,,,,,,,,,,,,,,,,,377.7098,378.7405,l,1,0.351,,0.351,1,378.7407,379.2408,,,,,,22,MAS,NOWORD,AGR,150,blan,,el,,379.2409,379.241,0.036111302,-0.411111302,0,0,0,,0,166,166,21,1,plan,,,,
,,,,,,5f527fcd94f94754853db0e5,676192165fb32c2e1fb7aee6,67d1b5300c02f891b58b3d41,2025-03-12_10h42.53.556,Tarea de decisión léxica,2024.2.5,Win32,59.88023952,,,,,,,,,,,,,,,,,,,,,,,379.2417,380.4405,a,1,0.5209,,0.5209,1,380.4406,380.9401,,,,,,237,MAS,WORD,AGR,150,nudo,,el,,380.9402,380.9402,0.036111302,-0.411111302,0,0,0,,0,167,167,236,1,huco,,,,
,,,,,,5f527fcd94f94754853db0e5,676192165fb32c2e1fb7aee6,67d1b5300c02f891b58b3d41,2025-03-12_10h42.53.556,Tarea de decisión léxica,2024.2.5,Win32,59.88023952,,,,,,,,,,,,,,,,,,,,,,,380.9407,382.173,a,1,0.5553,,0.5553,1,382.1732,382.6731,,,,,,39,MAS,WORD,DIS,150,voto,,la,,382.6732,382.6733,0.036111302,-0.411111302,0,0,0,,0,168,168,38,1,redo,,,,
,,,,,,5f527fcd94f94754853db0e5,676192165fb32c2e1fb7aee6,67d1b5300c02f891b58b3d41,2025-03-12_10h42.53.556,Tarea de decisión léxica,2024.2.5,Win32,59.88023952,,,,,,,,,,,,,,,,,,,,,,,382.6738,383.7394,l,1,0.3837,,0.3837,1,383.7394,384.2391,,,,,,258,FEM,NOWORD,AGR,150,asama,,la,,384.2391,384.2392,0.036111302,-0.411111302,0,0,0,,0,169,169,257,1,amiga,,,,
,,,,,,5f527fcd94f94754853db0e5,676192165fb32c2e1fb7aee6,67d1b5300c02f891b58b3d41,2025-03-12_10h42.53.556,Tarea de decisión léxica,2024.2.5,Win32,59.88023952,,,,,,,,,,,,,,,,,,,,,,,384.2397,385.3388,a,1,0.4222,,0.4222,1,385.3389,385.839,,,,,,131,FEM,WORD,DIS,150,mina,,el,,385.8398,385.8405,0.036111302,-0.411111302,0,0,0,,0,170,170,130,1,fada,,,,
,,,,,,5f527fcd94f94754853db0e5,676192165fb32c2e1fb7aee6,67d1b5300c02f891b58b3d41,2025-03-12_10h42.53.556,Tarea de decisión léxica,2024.2.5,Win32,59.88023952,,,,,,,,,,,,,,,,,,,,,,,385.8416,386.9386,l,1,0.418,,0.418,1,386.9386,387.4384,,,,,,220,FEM,NOWORD,DIS,150,miva,,el,,387.4385,387.4386,0.036111302,-0.411111302,0,0,0,,0,171,171,219,1,pipa,,,,
,,,,,,5f527fcd94f94754853db0e5,676192165fb32c2e1fb7aee6,67d1b5300c02f891b58b3d41,2025-03-12_10h42.53.556,Tarea de decisión léxica,2024.2.5,Win32,59.88023952,,,,,,,,,,,,,,,,,,,,,,,387.4396,388.5384,a,1,0.4174,,0.4174,1,388.5385,389.0382,,,,,,447,MAS,WORD,DIS,150,bolso,,la,,389.0382,389.0383,0.036111302,-0.411111302,0,0,0,,0,172,172,446,1,buaso,,,,
,,,,,,5f527fcd94f94754853db0e5,676192165fb32c2e1fb7aee6,67d1b5300c02f891b58b3d41,2025-03-12_10h42.53.556,Tarea de decisión léxica,2024.2.5,Win32,59.88023952,,,,,,,,,,,,,,,,,,,,,,,389.039,390.0545,l,1,0.3461,,0.3461,1,390.0546,390.5543,,,,,,324,FEM,NOWORD,DIS,150,certa,,el,,390.5543,390.5545,0.036111302,-0.411111302,0,0,0,,0,173,173,323,1,cinta,,,,
,,,,,,5f527fcd94f94754853db0e5,676192165fb32c2e1fb7aee6,67d1b5300c02f891b58b3d41,2025-03-12_10h42.53.556,Tarea de decisión léxica,2024.2.5,Win32,59.88023952,,,,,,,,,,,,,,,,,,,,,,,390.5558,391.6708,a,1,0.4378,,0.4378,1,391.6709,392.1707,,,,,,203,FEM,WORD,DIS,150,leña,,el,,392.1707,392.1708,0.036111302,-0.411111302,0,0,0,,0,174,174,202,1,beja,,,,
,,,,,,5f527fcd94f94754853db0e5,676192165fb32c2e1fb7aee6,67d1b5300c02f891b58b3d41,2025-03-12_10h42.53.556,Tarea de decisión léxica,2024.2.5,Win32,59.88023952,,,,,,,,,,,,,,,,,,,,,,,392.1714,393.2036,a,1,0.3508,,0.3508,1,393.2036,393.7034,,,,,,341,MAS,WORD,AGR,150,valor,,el,,393.7041,393.705,0.036111302,-0.411111302,0,0,0,,0,175,175,340,1,daror,,,,
,,,,,,5f527fcd94f94754853db0e5,676192165fb32c2e1fb7aee6,67d1b5300c02f891b58b3d41,2025-03-12_10h42.53.556,Tarea de decisión léxica,2024.2.5,Win32,59.88023952,,,,,,,,,,,,,,,,,,,,,,,393.7057,394.7033,l,1,0.3259,,0.3259,1,394.7034,395.2032,,,,,,446,MAS,NOWORD,AGR,150,ascor,,el,,395.2032,395.2032,0.036111302,-0.411111302,0,0,0,,0,176,176,445,1,actor,,,,
,,,,,,5f527fcd94f94754853db0e5,676192165fb32c2e1fb7aee6,67d1b5300c02f891b58b3d41,2025-03-12_10h42.53.556,Tarea de decisión léxica,2024.2.5,Win32,59.88023952,,,,,,,,,,,,,,,,,,,,,,,395.2038,396.2694,a,1,0.3924,,0.3924,1,396.2695,396.7694,,,,,,117,MAS,WORD,AGR,150,palo,,el,,396.7694,396.7695,0.036111302,-0.411111302,0,0,0,,0,177,177,116,1,movo,,,,
,,,,,,5f527fcd94f94754853db0e5,676192165fb32c2e1fb7aee6,67d1b5300c02f891b58b3d41,2025-03-12_10h42.53.556,Tarea de decisión léxica,2024.2.5,Win32,59.88023952,,,,,,,,,,,,,,,,,,,,,,,396.77,397.8358,a,1,0.3868,,0.3868,1,397.8359,398.3357,,,,,,353,FEM,WORD,AGR,150,celda,,la,,398.3358,398.3358,0.036111302,-0.411111302,0,0,0,,0,178,178,352,1,cezca,,,,
,,,,,,5f527fcd94f94754853db0e5,676192165fb32c2e1fb7aee6,67d1b5300c02f891b58b3d41,2025-03-12_10h42.53.556,Tarea de decisión léxica,2024.2.5,Win32,59.88023952,,,,,,,,,,,,,,,,,,,,,,,398.3363,399.7688,l,0,0.7592,,0.7592,0,399.7692,400.2688,,,,,,393,FEM,WORD,AGR,150,aldea,,la,,400.2695,400.27,0.036111302,-0.411111302,0,0,0,,0,179,179,392,1,ashea,,,,
,,,,,,5f527fcd94f94754853db0e5,676192165fb32c2e1fb7aee6,67d1b5300c02f891b58b3d41,2025-03-12_10h42.53.556,Tarea de decisión léxica,2024.2.5,Win32,59.88023952,,,,,,,,,,,,,,,,,,,,,,,400.2707,401.3685,l,1,0.4176,,0.4176,1,401.3691,401.8683,,,,,,32,FEM,NOWORD,DIS,150,bova,,el,,401.8683,401.8685,0.036111302,-0.411111302,0,0,0,,0,180,180,31,1,ropa,,,,
,,,,,,5f527fcd94f94754853db0e5,676192165fb32c2e1fb7aee6,67d1b5300c02f891b58b3d41,2025-03-12_10h42.53.556,Tarea de decisión léxica,2024.2.5,Win32,59.88023952,,,,,,,,,,,,,,,,,,,,,,,401.8694,402.9345,l,1,0.3854,,0.3854,1,402.9346,403.4344,,,,,,268,MAS,NOWORD,DIS,150,figro,,la,,403.4344,403.4345,0.036111302,-0.411111302,0,0,0,,0,181,181,267,1,libro,,,,
,,,,,,5f527fcd94f94754853db0e5,676192165fb32c2e1fb7aee6,67d1b5300c02f891b58b3d41,2025-03-12_10h42.53.556,Tarea de decisión léxica,2024.2.5,Win32,59.88023952,,,,,,,,,,,,,,,,,,,,,,,403.4351,404.4508,l,1,0.3447,,0.3447,1,404.4509,404.9507,,,,,,90,MAS,NOWORD,AGR,150,guso,,el,,404.9507,404.9508,0.036111302,-0.411111302,0,0,0,,0,182,182,89,1,humo,,,,
,,,,,,5f527fcd94f94754853db0e5,676192165fb32c2e1fb7aee6,67d1b5300c02f891b58b3d41,2025-03-12_10h42.53.556,Tarea de decisión léxica,2024.2.5,Win32,59.88023952,,,,,,,,,,,,,,,,,,,,,,,404.9516,405.9671,a,1,0.3384,,0.3384,1,405.9671,406.4672,,,,,,255,MAS,WORD,DIS,150,miedo,,la,,406.4672,406.4673,0.036111302,-0.411111302,0,0,0,,0,183,183,254,1,mauco,,,,
,,,,,,5f527fcd94f94754853db0e5,676192165fb32c2e1fb7aee6,67d1b5300c02f891b58b3d41,2025-03-12_10h42.53.556,Tarea de decisión léxica,2024.2.5,Win32,59.88023952,,,,,,,,,,,,,,,,,,,,,,,406.468,407.4835,a,1,0.3343,,0.3343,1,407.4835,407.9832,,,,,,383,FEM,WORD,DIS,150,frase,,el,,407.9838,407.9843,0.036111302,-0.411111302,0,0,0,,0,184,184,382,1,brame,,,,
,,,,,,5f527fcd94f94754853db0e5,676192165fb32c2e1fb7aee6,67d1b5300c02f891b58b3d41,2025-03-12_10h42.53.556,Tarea de decisión léxica,2024.2.5,Win32,59.88023952,,,,,,,,,,,,,,,,,,,,,,,407.9855,409.0664,a,1,0.4024,,0.4024,1,409.0664,409.5665,,,,,,17,FEM,WORD,AGR,150,mamá,,la,,409.5665,409.5665,0.036111302,-0.411111302,0,0,0,,0,185,185,16,1,paba,,,,
,,,,,,5f527fcd94f94754853db0e5,676192165fb32c2e1fb7aee6,67d1b5300c02f891b58b3d41,2025-03-12_10h42.53.556,Tarea de decisión léxica,2024.2.5,Win32,59.88023952,,,,,,,,,,,,,,,,,,,,,,,409.5672,410.5995,l,1,0.3522,,0.3522,1,410.5996,411.0993,,,,,,56,MAS,NOWORD,DIS,150,jado,,la,,411.0993,411.0994,0.036111302,-0.411111302,0,0,0,,0,186,186,55,1,gato,,,,
,,,,,,5f527fcd94f94754853db0e5,676192165fb32c2e1fb7aee6,67d1b5300c02f891b58b3d41,2025-03-12_10h42.53.556,Tarea de decisión léxica,2024.2.5,Win32,59.88023952,,,,,,,,,,,,,,,,,,,,,,,411.1001,412.1157,l,1,0.3459,,0.3459,1,412.1158,412.6156,,,,,,300,FEM,NOWORD,DIS,150,bosga,,el,,412.6156,412.6157,0.036111302,-0.411111302,0,0,0,,0,187,187,299,1,bolsa,,,,
,,,,,,5f527fcd94f94754853db0e5,676192165fb32c2e1fb7aee6,67d1b5300c02f891b58b3d41,2025-03-12_10h42.53.556,Tarea de decisión léxica,2024.2.5,Win32,59.88023952,,,,,,,,,,,,,,,,,,,,,,,412.6165,413.6819,l,1,0.394,,0.394,1,413.6819,414.182,,,,,,44,FEM,NOWORD,DIS,150,meda,,el,,414.1821,414.1822,0.036111302,-0.411111302,0,0,0,,0,188,188,43,1,pena,,,,
,,,,,,5f527fcd94f94754853db0e5,676192165fb32c2e1fb7aee6,67d1b5300c02f891b58b3d41,2025-03-12_10h42.53.556,Tarea de decisión léxica,2024.2.5,Win32,59.88023952,,,,,,,,,,,,,,,,,,,,,,,414.1828,415.3816,l,1,0.5169,,0.5169,1,415.3817,415.8815,,,,,,36,MAS,NOWORD,DIS,150,meno,,la,,415.8822,415.8827,0.036111302,-0.411111302,0,0,0,,0,189,189,35,1,pelo,,,,
,,,,,,5f527fcd94f94754853db0e5,676192165fb32c2e1fb7aee6,67d1b5300c02f891b58b3d41,2025-03-12_10h42.53.556,Tarea de decisión léxica,2024.2.5,Win32,59.88023952,,,,,,,,,,,,,,,,,,,,,,,415.8837,416.9979,l,1,0.4336,,0.4336,1,416.9981,417.4977,,,,,,312,MAS,NOWORD,DIS,150,nosor,,la,,417.4977,417.4977,0.036111302,-0.411111302,0,0,0,,0,190,190,311,1,honor,,,,
,,,,,,5f527fcd94f94754853db0e5,676192165fb32c2e1fb7aee6,67d1b5300c02f891b58b3d41,2025-03-12_10h42.53.556,Tarea de decisión léxica,2024.2.5,Win32,59.88023952,,,,,,,,,,,,,,,,,,,,,,,417.4983,418.5476,a,1,0.3681,,0.3681,1,418.5476,419.0473,,,,,,469,MAS,WORD,AGR,150,patio,,el,,419.0474,419.0476,0.036111302,-0.411111302,0,0,0,,0,191,191,468,1,matia,,,,
,,,,,,5f527fcd94f94754853db0e5,676192165fb32c2e1fb7aee6,67d1b5300c02f891b58b3d41,2025-03-12_10h42.53.556,Tarea de decisión léxica,2024.2.5,Win32,59.88023952,,,,,,,,,,,,,,,,,,,,,,,419.0485,420.0972,l,1,0.3692,,0.3692,1,420.0972,420.597,,,,,,410,MAS,NOWORD,AGR,150,pafro,,el,,420.5971,420.5971,0.036111302,-0.411111302,0,0,0,,0,192,192,409,1,carro,,,,
,,,,,,5f527fcd94f94754853db0e5,676192165fb32c2e1fb7aee6,67d1b5300c02f891b58b3d41,2025-03-12_10h42.53.556,Tarea de decisión léxica,2024.2.5,Win32,59.88023952,,,,,,,,,,,,,,,,,,,,,,,420.5978,421.7298,a,1,0.4612,,0.4612,1,421.7298,422.2298,,,,,,439,FEM,WORD,DIS,150,presa,,el,,422.2298,422.23,0.036111302,-0.411111302,0,0,0,,0,193,193,438,1,prema,,,,
,,,,,,5f527fcd94f94754853db0e5,676192165fb32c2e1fb7aee6,67d1b5300c02f891b58b3d41,2025-03-12_10h42.53.556,Tarea de decisión léxica,2024.2.5,Win32,59.88023952,,,,,,,,,,,,,,,,,,,,,,,422.2306,423.2128,a,1,0.3105,,0.3105,1,423.2128,423.7127,,,,,,183,FEM,WORD,DIS,150,raya,,el,,423.7132,423.7138,0.036111302,-0.411111302,0,0,0,,0,194,194,182,1,raad,,,,
,,,,,,5f527fcd94f94754853db0e5,676192165fb32c2e1fb7aee6,67d1b5300c02f891b58b3d41,2025-03-12_10h42.53.556,Tarea de decisión léxica,2024.2.5,Win32,59.88023952,,,,,,,,,,,,,,,,,,,,,,,423.7146,424.8292,l,1,0.4415,,0.4415,1,424.8293,425.3292,,,,,,88,MAS,NOWORD,DIS,150,damo,,la,,425.3293,425.3293,0.036111302,-0.411111302,0,0,0,,0,195,195,87,1,vaso,,,,
,,,,,,5f527fcd94f94754853db0e5,676192165fb32c2e1fb7aee6,67d1b5300c02f891b58b3d41,2025-03-12_10h42.53.556,Tarea de decisión léxica,2024.2.5,Win32,59.88023952,,,,,,,,,,,,,,,,,,,,,,,425.33,426.4957,a,1,0.4849,,0.4849,1,426.4957,426.9953,,,,,,217,MAS,WORD,AGR,150,luto,,el,,426.9953,426.9954,0.036111302,-0.411111302,0,0,0,,0,196,196,216,1,budo,,,,
,,,,,,5f527fcd94f94754853db0e5,676192165fb32c2e1fb7aee6,67d1b5300c02f891b58b3d41,2025-03-12_10h42.53.556,Tarea de decisión léxica,2024.2.5,Win32,59.88023952,,,,,,,,,,,,,,,,,,,,,,,426.996,428.0283,a,1,0.3546,,0.3546,1,428.0284,428.5282,,,,,,343,FEM,WORD,DIS,150,plata,,el,,428.5282,428.5282,0.036111302,-0.411111302,0,0,0,,0,197,197,342,1,trada,,,,
,,,,,,5f527fcd94f94754853db0e5,676192165fb32c2e1fb7aee6,67d1b5300c02f891b58b3d41,2025-03-12_10h42.53.556,Tarea de decisión léxica,2024.2.5,Win32,59.88023952,,,,,,,,,,,,,,,,,,,,,,,428.5288,429.528,l,1,0.3169,,0.3169,1,429.5281,430.0279,,,,,,478,MAS,NOWORD,AGR,150,hocon,,el,,430.0279,430.0279,0.036111302,-0.411111302,0,0,0,,0,198,198,477,1,botón,,,,
,,,,,,5f527fcd94f94754853db0e5,676192165fb32c2e1fb7aee6,67d1b5300c02f891b58b3d41,2025-03-12_10h42.53.556,Tarea de decisión léxica,2024.2.5,Win32,59.88023952,,,,,,,,,,,,,,,,,,,,,,,430.0285,431.2111,l,1,0.5076,,0.5076,1,431.2113,431.7108,,,,,,166,FEM,NOWORD,AGR,150,dera,,la,,431.7113,431.7118,0.036111302,-0.411111302,0,0,0,,0,199,199,165,1,vela,,,,
,,,,,,5f527fcd94f94754853db0e5,676192165fb32c2e1fb7aee6,67d1b5300c02f891b58b3d41,2025-03-12_10h42.53.556,Tarea de decisión léxica,2024.2.5,Win32,59.88023952,,,,,,,,,,,,,,,,,,,,,,,431.7126,432.7438,a,1,0.3604,,0.3604,1,432.7439,433.2438,,,,,,123,FEM,WORD,DIS,150,flor,,el,,433.2438,433.244,0.036111302,-0.411111302,0,0,0,,0,200,200,122,1,maba,,,,
,,,,,,5f527fcd94f94754853db0e5,676192165fb32c2e1fb7aee6,67d1b5300c02f891b58b3d41,2025-03-12_10h42.53.556,Tarea de decisión léxica,2024.2.5,Win32,59.88023952,,,,,,,,,,,,,,,,,,,,,,,433.2446,434.2604,a,1,0.3355,,0.3355,1,434.2604,434.7601,,,,,,473,FEM,WORD,AGR,150,feria,,la,,434.7602,434.7602,0.036111302,-0.411111302,0,0,0,,0,201,201,472,1,felia,,,,
,,,,,,5f527fcd94f94754853db0e5,676192165fb32c2e1fb7aee6,67d1b5300c02f891b58b3d41,2025-03-12_10h42.53.556,Tarea de decisión léxica,2024.2.5,Win32,59.88023952,,,,,,,,,,,,,,,,,,,,,,,434.7609,436.0263,l,1,0.5941,,0.5941,1,436.0264,436.5265,,,,,,294,MAS,NOWORD,AGR,150,cacso,,el,,436.5266,436.5266,0.036111302,-0.411111302,0,0,0,,0,202,202,293,1,campo,,,,
,,,,,,5f527fcd94f94754853db0e5,676192165fb32c2e1fb7aee6,67d1b5300c02f891b58b3d41,2025-03-12_10h42.53.556,Tarea de decisión léxica,2024.2.5,Win32,59.88023952,,,,,,,,,,,,,,,,,,,,,,,436.5273,437.5427,a,1,0.3393,,0.3393,1,437.5427,438.0424,,,,,,305,MAS,WORD,AGR,150,avión,,el,,438.043,438.0437,0.036111302,-0.411111302,0,0,0,,0,203,203,304,1,adiol,,,,
,,,,,,5f527fcd94f94754853db0e5,676192165fb32c2e1fb7aee6,67d1b5300c02f891b58b3d41,2025-03-12_10h42.53.556,Tarea de decisión léxica,2024.2.5,Win32,59.88023952,,,,,,,,,,,,,,,,,,,,,,,438.0447,439.1257,a,1,0.4016,,0.4016,1,439.1257,439.6257,,,,,,429,FEM,WORD,AGR,150,tarta,,la,,439.6257,439.6257,0.036111302,-0.411111302,0,0,0,,0,204,204,428,1,tenta,,,,
,,,,,,5f527fcd94f94754853db0e5,676192165fb32c2e1fb7aee6,67d1b5300c02f891b58b3d41,2025-03-12_10h42.53.556,Tarea de decisión léxica,2024.2.5,Win32,59.88023952,,,,,,,,,,,,,,,,,,,,,,,439.6265,440.6252,a,1,0.326,,0.326,1,440.6253,441.1253,,,,,,137,MAS,WORD,AGR,150,nene,,el,,441.1253,441.1254,0.036111302,-0.411111302,0,0,0,,0,205,205,136,1,pamo,,,,
,,,,,,5f527fcd94f94754853db0e5,676192165fb32c2e1fb7aee6,67d1b5300c02f891b58b3d41,2025-03-12_10h42.53.556,Tarea de decisión léxica,2024.2.5,Win32,59.88023952,,,,,,,,,,,,,,,,,,,,,,,441.1262,442.0916,a,1,0.2909,,0.2909,1,442.0917,442.5914,,,,,,401,MAS,WORD,AGR,150,polvo,,el,,442.5914,442.5915,0.036111302,-0.411111302,0,0,0,,0,206,206,400,1,pirvo,,,,
,,,,,,5f527fcd94f94754853db0e5,676192165fb32c2e1fb7aee6,67d1b5300c02f891b58b3d41,2025-03-12_10h42.53.556,Tarea de decisión léxica,2024.2.5,Win32,59.88023952,,,,,,,,,,,,,,,,,,,,,,,442.5921,443.5912,a,1,0.3228,,0.3228,1,443.5912,444.0909,,,,,,111,MAS,WORD,DIS,150,muro,,la,,444.0909,444.091,0.036111302,-0.411111302,0,0,0,,0,207,207,110,1,siro,,,,
,,,,,,5f527fcd94f94754853db0e5,676192165fb32c2e1fb7aee6,67d1b5300c02f891b58b3d41,2025-03-12_10h42.53.556,Tarea de decisión léxica,2024.2.5,Win32,59.88023952,,,,,,,,,,,,,,,,,,,,,,,444.0915,445.0073,a,1,0.2408,,0.2408,1,445.0074,445.5078,,,,,,243,MAS,WORD,DIS,150,amigo,,la,,445.5084,445.509,0.036111302,-0.411111302,0,0,0,,0,208,208,242,1,asamo,,,,
,,,,,,5f527fcd94f94754853db0e5,676192165fb32c2e1fb7aee6,67d1b5300c02f891b58b3d41,2025-03-12_10h42.53.556,Tarea de decisión léxica,2024.2.5,Win32,59.88023952,,,,,,,,,,,,,,,,,,,,,,,445.51,446.5571,a,1,0.3673,,0.3673,1,446.5572,447.0571,,,,,,241,MAS,WORD,AGR,150,mundo,,el,,447.0571,447.0571,0.036111302,-0.411111302,0,0,0,,0,209,209,240,1,mirdo,,,,
,,,,,,5f527fcd94f94754853db0e5,676192165fb32c2e1fb7aee6,67d1b5300c02f891b58b3d41,2025-03-12_10h42.53.556,Tarea de decisión léxica,2024.2.5,Win32,59.88023952,,,,,,,,,,,,,,,,,,,,,,,447.0577,448.09,l,1,0.3629,,0.3629,1,448.0901,448.5899,,,,,,40,MAS,NOWORD,DIS,150,redo,,la,,448.5899,448.59,0.036111302,-0.411111302,0,0,0,,0,210,210,39,1,voto,,,,
,,,,,,5f527fcd94f94754853db0e5,676192165fb32c2e1fb7aee6,67d1b5300c02f891b58b3d41,2025-03-12_10h42.53.556,Tarea de decisión léxica,2024.2.5,Win32,59.88023952,,,,,,,,,,,,,,,,,,,,,,,448.5908,449.5897,l,1,0.3172,,0.3172,1,449.5898,450.0897,,,,,,24,FEM,NOWORD,DIS,150,giva,,el,,450.0897,450.0898,0.036111302,-0.411111302,0,0,0,,0,211,211,23,1,hija,,,,
,,,,,,5f527fcd94f94754853db0e5,676192165fb32c2e1fb7aee6,67d1b5300c02f891b58b3d41,2025-03-12_10h42.53.556,Tarea de decisión léxica,2024.2.5,Win32,59.88023952,,,,,,,,,,,,,,,,,,,,,,,450.0905,451.1227,a,1,0.3566,,0.3566,1,451.1227,451.6227,,,,,,231,FEM,WORD,DIS,150,bota,,el,,451.6228,451.6228,0.036111302,-0.411111302,0,0,0,,0,212,212,230,1,heta,,,,
,,,,,,5f527fcd94f94754853db0e5,676192165fb32c2e1fb7aee6,67d1b5300c02f891b58b3d41,2025-03-12_10h42.53.556,Tarea de decisión léxica,2024.2.5,Win32,59.88023952,,,,,,,,,,,,,,,,,,,,,,,451.6235,452.6723,l,1,0.3701,,0.3701,1,452.6724,453.172,,,,,,254,MAS,NOWORD,AGR,150,trido,,el,,453.1725,453.1732,0.036111302,-0.411111302,0,0,0,,0,213,213,253,1,chico,,,,
,,,,,,5f527fcd94f94754853db0e5,676192165fb32c2e1fb7aee6,67d1b5300c02f891b58b3d41,2025-03-12_10h42.53.556,Tarea de decisión léxica,2024.2.5,Win32,59.88023952,,,,,,,,,,,,,,,,,,,,,,,453.1739,454.1888,l,1,0.3338,,0.3338,1,454.1888,454.6884,,,,,,382,MAS,NOWORD,AGR,150,nusor,,el,,454.6884,454.6885,0.036111302,-0.411111302,0,0,0,,0,214,214,381,1,humor,,,,
,,,,,,5f527fcd94f94754853db0e5,676192165fb32c2e1fb7aee6,67d1b5300c02f891b58b3d41,2025-03-12_10h42.53.556,Tarea de decisión léxica,2024.2.5,Win32,59.88023952,,,,,,,,,,,,,,,,,,,,,,,454.6895,455.6715,l,1,0.3064,,0.3064,1,455.6716,456.1715,,,,,,158,MAS,NOWORD,AGR,150,hico,,el,,456.1715,456.1716,0.036111302,-0.411111302,0,0,0,,0,215,215,157,1,nido,,,,
,,,,,,5f527fcd94f94754853db0e5,676192165fb32c2e1fb7aee6,67d1b5300c02f891b58b3d41,2025-03-12_10h42.53.556,Tarea de decisión léxica,2024.2.5,Win32,59.88023952,,,,,,,,,,,,,,,,,,,,,,,456.1723,457.1877,a,1,0.3378,,0.3378,1,457.1878,457.6877,,,,,,47,MAS,WORD,DIS,150,club,,la,,457.6877,457.6878,0.036111302,-0.411111302,0,0,0,,0,216,216,46,1,chub,,,,
,,,,,,5f527fcd94f94754853db0e5,676192165fb32c2e1fb7aee6,67d1b5300c02f891b58b3d41,2025-03-12_10h42.53.556,Tarea de decisión léxica,2024.2.5,Win32,59.88023952,,,,,,,,,,,,,,,,,,,,,,,457.6885,458.6874,l,1,0.3243,,0.3243,1,458.6874,459.1874,,,,,,476,FEM,NOWORD,DIS,150,mucta,,el,,459.1875,459.1876,0.036111302,-0.411111302,0,0,0,,0,217,217,475,1,manta,,,,
,,,,,,5f527fcd94f94754853db0e5,676192165fb32c2e1fb7aee6,67d1b5300c02f891b58b3d41,2025-03-12_10h42.53.556,Tarea de decisión léxica,2024.2.5,Win32,59.88023952,,,,,,,,,,,,,,,,,,,,,,,459.1883,460.1872,l,1,0.3166,,0.3166,1,460.1873,460.6869,,,,,,14,FEM,NOWORD,AGR,150,nola,,la,,460.6875,460.6881,0.036111302,-0.411111302,0,0,0,,0,218,218,13,1,hora,,,,
,,,,,,5f527fcd94f94754853db0e5,676192165fb32c2e1fb7aee6,67d1b5300c02f891b58b3d41,2025-03-12_10h42.53.556,Tarea de decisión léxica,2024.2.5,Win32,59.88023952,,,,,,,,,,,,,,,,,,,,,,,460.6888,461.7032,l,1,0.3435,,0.3435,1,461.7032,462.2033,,,,,,376,FEM,NOWORD,DIS,150,sasna,,el,,462.2033,462.2034,0.036111302,-0.411111302,0,0,0,,0,219,219,375,1,salsa,,,,
,,,,,,5f527fcd94f94754853db0e5,676192165fb32c2e1fb7aee6,67d1b5300c02f891b58b3d41,2025-03-12_10h42.53.556,Tarea de decisión léxica,2024.2.5,Win32,59.88023952,,,,,,,,,,,,,,,,,,,,,,,462.2042,463.4196,a,1,0.534,,0.534,1,463.4196,463.9195,,,,,,161,MAS,WORD,AGR,150,coro,,el,,463.9195,463.9195,0.036111302,-0.411111302,0,0,0,,0,220,220,160,1,bopo,,,,
,,,,,,5f527fcd94f94754853db0e5,676192165fb32c2e1fb7aee6,67d1b5300c02f891b58b3d41,2025-03-12_10h42.53.556,Tarea de decisión léxica,2024.2.5,Win32,59.88023952,,,,,,,,,,,,,,,,,,,,,,,463.9201,465.0025,l,1,0.4087,,0.4087,1,465.0026,465.5027,,,,,,74,MAS,NOWORD,AGR,150,omio,,el,,465.5027,465.503,0.036111302,-0.411111302,0,0,0,,0,221,221,73,1,odio,,,,
,,,,,,5f527fcd94f94754853db0e5,676192165fb32c2e1fb7aee6,67d1b5300c02f891b58b3d41,2025-03-12_10h42.53.556,Tarea de decisión léxica,2024.2.5,Win32,59.88023952,,,,,,,,,,,,,,,,,,,,,,,465.5055,466.5187,a,1,0.34,,0.34,1,466.5188,467.0188,,,,,,337,MAS,WORD,AGR,150,huevo,,el,,467.0188,467.0189,0.036111302,-0.411111302,0,0,0,,0,222,222,336,1,nuejo,,,,
,,,,,,5f527fcd94f94754853db0e5,676192165fb32c2e1fb7aee6,67d1b5300c02f891b58b3d41,2025-03-12_10h42.53.556,Tarea de decisión léxica,2024.2.5,Win32,59.88023952,,,,,,,,,,,,,,,,,,,,,,,467.0195,468.2016,a,1,0.5059,,0.5059,1,468.2016,468.7016,,,,,,169,MAS,WORD,AGR,150,cubo,,el,,468.7021,468.7026,0.036111302,-0.411111302,0,0,0,,0,223,223,168,1,mibo,,,,
,,,,,,5f527fcd94f94754853db0e5,676192165fb32c2e1fb7aee6,67d1b5300c02f891b58b3d41,2025-03-12_10h42.53.556,Tarea de decisión léxica,2024.2.5,Win32,59.88023952,,,,,,,,,,,,,,,,,,,,,,,468.7034,469.7014,l,1,0.3178,,0.3178,1,469.7015,470.2014,,,,,,370,MAS,NOWORD,AGR,150,rioco,,el,,470.2014,470.2015,0.036111302,-0.411111302,0,0,0,,0,224,224,369,1,ruido,,,,
,,,,,,5f527fcd94f94754853db0e5,676192165fb32c2e1fb7aee6,67d1b5300c02f891b58b3d41,2025-03-12_10h42.53.556,Tarea de decisión léxica,2024.2.5,Win32,59.88023952,,,,,,,,,,,,,,,,,,,,,,,470.2022,471.2177,a,1,0.3441,,0.3441,1,471.2177,471.7174,,,,,,73,MAS,WORD,AGR,150,odio,,el,,471.7174,471.7175,0.036111302,-0.411111302,0,0,0,,0,225,225,72,1,omio,,,,
,,,,,,5f527fcd94f94754853db0e5,676192165fb32c2e1fb7aee6,67d1b5300c02f891b58b3d41,2025-03-12_10h42.53.556,Tarea de decisión léxica,2024.2.5,Win32,59.88023952,,,,,,,,,,,,,,,,,,,,,,,471.7182,472.7505,a,1,0.3504,,0.3504,1,472.7506,473.2507,,,,,,441,FEM,WORD,AGR,150,selva,,la,,473.2507,473.2507,0.036111302,-0.411111302,0,0,0,,0,226,226,440,1,telza,,,,
,,,,,,5f527fcd94f94754853db0e5,676192165fb32c2e1fb7aee6,67d1b5300c02f891b58b3d41,2025-03-12_10h42.53.556,Tarea de decisión léxica,2024.2.5,Win32,59.88023952,,,,,,,,,,,,,,,,,,,,,,,473.2515,474.2837,a,1,0.3527,,0.3527,1,474.2838,474.7837,,,,,,125,MAS,WORD,AGR,150,lujo,,el,,474.7845,474.785,0.036111302,-0.411111302,0,0,0,,0,227,227,124,1,vudo,,,,
,,,,,,5f527fcd94f94754853db0e5,676192165fb32c2e1fb7aee6,67d1b5300c02f891b58b3d41,2025-03-12_10h42.53.556,Tarea de decisión léxica,2024.2.5,Win32,59.88023952,,,,,,,,,,,,,,,,,,,,,,,474.7858,475.8007,a,1,0.3478,,0.3478,1,475.8008,476.2998,,,,,,245,FEM,WORD,AGR,150,madre,,la,,476.2999,476.2999,0.036111302,-0.411111302,0,0,0,,0,228,228,244,1,pafle,,,,
,,,,,,5f527fcd94f94754853db0e5,676192165fb32c2e1fb7aee6,67d1b5300c02f891b58b3d41,2025-03-12_10h42.53.556,Tarea de decisión léxica,2024.2.5,Win32,59.88023952,,,,,,,,,,,,,,,,,,,,,,,476.3007,477.2829,l,1,0.3007,,0.3007,1,477.2831,477.7826,,,,,,380,MAS,NOWORD,DIS,150,tunso,,la,,477.7827,477.7827,0.036111302,-0.411111302,0,0,0,,0,229,229,379,1,turno,,,,
,,,,,,5f527fcd94f94754853db0e5,676192165fb32c2e1fb7aee6,67d1b5300c02f891b58b3d41,2025-03-12_10h42.53.556,Tarea de decisión léxica,2024.2.5,Win32,59.88023952,,,,,,,,,,,,,,,,,,,,,,,477.7834,478.9491,l,1,0.4882,,0.4882,1,478.9491,479.449,,,,,,470,MAS,NOWORD,AGR,150,matia,,el,,479.4491,479.4491,0.036111302,-0.411111302,0,0,0,,0,230,230,469,1,patio,,,,
,,,,,,5f527fcd94f94754853db0e5,676192165fb32c2e1fb7aee6,67d1b5300c02f891b58b3d41,2025-03-12_10h42.53.556,Tarea de decisión léxica,2024.2.5,Win32,59.88023952,,,,,,,,,,,,,,,,,,,,,,,479.4499,480.4154,a,1,0.292,,0.292,1,480.4154,480.9154,,,,,,211,FEM,WORD,DIS,150,joya,,el,,480.9154,480.9155,0.036111302,-0.411111302,0,0,0,,0,231,231,210,1,joad,,,,
,,,,,,5f527fcd94f94754853db0e5,676192165fb32c2e1fb7aee6,67d1b5300c02f891b58b3d41,2025-03-12_10h42.53.556,Tarea de decisión léxica,2024.2.5,Win32,59.88023952,,,,,,,,,,,,,,,,,,,,,,,480.9162,481.9488,l,1,0.364,,0.364,1,481.9488,482.4484,,,,,,34,FEM,NOWORD,AGR,150,loda,,la,,482.449,482.4495,0.036111302,-0.411111302,0,0,0,,0,232,232,33,1,boca,,,,
,,,,,,5f527fcd94f94754853db0e5,676192165fb32c2e1fb7aee6,67d1b5300c02f891b58b3d41,2025-03-12_10h42.53.556,Tarea de decisión léxica,2024.2.5,Win32,59.88023952,,,,,,,,,,,,,,,,,,,,,,,482.4504,483.4313,a,1,0.3128,,0.3128,1,483.4314,483.9311,,,,,,385,FEM,WORD,AGR,150,letra,,la,,483.9311,483.9312,0.036111302,-0.411111302,0,0,0,,0,233,233,384,1,febra,,,,
,,,,,,5f527fcd94f94754853db0e5,676192165fb32c2e1fb7aee6,67d1b5300c02f891b58b3d41,2025-03-12_10h42.53.556,Tarea de decisión léxica,2024.2.5,Win32,59.88023952,,,,,,,,,,,,,,,,,,,,,,,483.9317,485.1644,a,1,0.5521,,0.5521,1,485.1644,485.6642,,,,,,127,MAS,WORD,DIS,150,pico,,la,,485.6642,485.6644,0.036111302,-0.411111302,0,0,0,,0,234,234,126,1,itio,,,,
,,,,,,5f527fcd94f94754853db0e5,676192165fb32c2e1fb7aee6,67d1b5300c02f891b58b3d41,2025-03-12_10h42.53.556,Tarea de decisión léxica,2024.2.5,Win32,59.88023952,,,,,,,,,,,,,,,,,,,,,,,485.665,486.747,l,1,0.412,,0.412,1,486.7471,487.2471,,,,,,282,MAS,NOWORD,AGR,150,cauro,,el,,487.2471,487.2472,0.036111302,-0.411111302,0,0,0,,0,235,235,281,1,cielo,,,,
,,,,,,5f527fcd94f94754853db0e5,676192165fb32c2e1fb7aee6,67d1b5300c02f891b58b3d41,2025-03-12_10h42.53.556,Tarea de decisión léxica,2024.2.5,Win32,59.88023952,,,,,,,,,,,,,,,,,,,,,,,487.2476,488.2133,a,0,0.2838,,0.2838,0,488.2138,488.7134,,,,,,226,MAS,NOWORD,AGR,150,boco,,el,,488.7134,488.7136,0.036111302,-0.411111302,0,0,0,,0,236,236,225,1,lodo,,,,
,,,,,,5f527fcd94f94754853db0e5,676192165fb32c2e1fb7aee6,67d1b5300c02f891b58b3d41,2025-03-12_10h42.53.556,Tarea de decisión léxica,2024.2.5,Win32,59.88023952,,,,,,,,,,,,,,,,,,,,,,,488.7143,489.7131,a,1,0.3274,,0.3274,1,489.7134,490.2131,,,,,,449,FEM,WORD,AGR,150,pluma,,la,,490.2138,490.2143,0.036111302,-0.411111302,0,0,0,,0,237,237,448,1,crusa,,,,
,,,,,,5f527fcd94f94754853db0e5,676192165fb32c2e1fb7aee6,67d1b5300c02f891b58b3d41,2025-03-12_10h42.53.556,Tarea de decisión léxica,2024.2.5,Win32,59.88023952,,,,,,,,,,,,,,,,,,,,,,,490.2151,491.3294,l,1,0.4465,,0.4465,1,491.3294,491.8293,,,,,,200,MAS,NOWORD,DIS,150,fano,,la,,491.8294,491.8294,0.036111302,-0.411111302,0,0,0,,0,238,238,199,1,lazo,,,,
,,,,,,5f527fcd94f94754853db0e5,676192165fb32c2e1fb7aee6,67d1b5300c02f891b58b3d41,2025-03-12_10h42.53.556,Tarea de decisión léxica,2024.2.5,Win32,59.88023952,,,,,,,,,,,,,,,,,,,,,,,491.8301,492.8789,a,1,0.3785,,0.3785,1,492.879,493.3789,,,,,,19,MAS,WORD,DIS,150,niño,,la,,493.3789,493.3789,0.036111302,-0.411111302,0,0,0,,0,239,239,18,1,himo,,,,
,,,,,,5f527fcd94f94754853db0e5,676192165fb32c2e1fb7aee6,67d1b5300c02f891b58b3d41,2025-03-12_10h42.53.556,Tarea de decisión léxica,2024.2.5,Win32,59.88023952,,,,,,,,,,,,,,,,,,,,,,,493.3796,494.7618,l,1,0.7065,,0.7065,1,494.7619,495.2618,,,,,,206,FEM,NOWORD,AGR,150,bara,,la,,495.2618,495.2619,0.036111302,-0.411111302,0,0,0,,0,240,240,205,1,rana,,,,
,,,,,,5f527fcd94f94754853db0e5,676192165fb32c2e1fb7aee6,67d1b5300c02f891b58b3d41,2025-03-12_10h42.53.556,Tarea de decisión léxica,2024.2.5,Win32,59.88023952,,,,,,,,,,,,,,,,,,,,,,,495.2626,496.2281,a,1,0.2834,,0.2834,1,496.2281,496.728,,,,,,49,FEM,WORD,AGR,150,edad,,la,,496.728,496.728,0.036111302,-0.411111302,0,0,0,,0,241,241,48,1,ecat,,,,
,,,,,,5f527fcd94f94754853db0e5,676192165fb32c2e1fb7aee6,67d1b5300c02f891b58b3d41,2025-03-12_10h42.53.556,Tarea de decisión léxica,2024.2.5,Win32,59.88023952,,,,,,,,,,,,,,,,,,,,,,,496.7285,497.6277,a,1,0.2247,,0.2247,1,497.6277,498.1278,,,,,,443,MAS,WORD,DIS,150,salón,,la,,498.1302,498.1311,0.036111302,-0.411111302,0,0,0,,0,242,242,442,1,taron,,,,
,,,,,,5f527fcd94f94754853db0e5,676192165fb32c2e1fb7aee6,67d1b5300c02f891b58b3d41,2025-03-12_10h42.53.556,Tarea de decisión léxica,2024.2.5,Win32,59.88023952,,,,,,,,,,,,,,,,,,,,,,,498.132,499.1606,l,1,0.3561,,0.3561,1,499.1607,499.6608,,,,,,326,FEM,NOWORD,AGR,150,mabia,,la,,499.6609,499.6609,0.036111302,-0.411111302,0,0,0,,0,243,243,325,1,magia,,,,
,,,,,,5f527fcd94f94754853db0e5,676192165fb32c2e1fb7aee6,67d1b5300c02f891b58b3d41,2025-03-12_10h42.53.556,Tarea de decisión léxica,2024.2.5,Win32,59.88023952,,,,,,,,,,,,,,,,,,,,,,,499.6616,500.7271,l,1,0.3838,,0.3838,1,500.7272,501.2271,,,,,,360,MAS,NOWORD,DIS,150,cacer,,la,,501.2271,501.2272,0.036111302,-0.411111302,0,0,0,,0,244,244,359,1,calor,,,,
,,,,,,5f527fcd94f94754853db0e5,676192165fb32c2e1fb7aee6,67d1b5300c02f891b58b3d41,2025-03-12_10h42.53.556,Tarea de decisión léxica,2024.2.5,Win32,59.88023952,,,,,,,,,,,,,,,,,,,,,,,501.228,502.5766,l,1,0.6707,,0.6707,1,502.5766,503.0765,,,,,,130,MAS,NOWORD,AGR,150,pima,,el,,503.0765,503.0766,0.036111302,-0.411111302,0,0,0,,0,245,245,129,1,oído,,,,
,,,,,,5f527fcd94f94754853db0e5,676192165fb32c2e1fb7aee6,67d1b5300c02f891b58b3d41,2025-03-12_10h42.53.556,Tarea de decisión léxica,2024.2.5,Win32,59.88023952,,,,,,,,,,,,,,,,,,,,,,,503.0773,504.2263,l,0,0.472,,0.472,0,504.2269,504.7259,,,,,,197,MAS,WORD,AGR,150,bate,,el,,504.726,504.726,0.036111302,-0.411111302,0,0,0,,0,246,246,196,1,dade,,,,
,,,,,,5f527fcd94f94754853db0e5,676192165fb32c2e1fb7aee6,67d1b5300c02f891b58b3d41,2025-03-12_10h42.53.556,Tarea de decisión léxica,2024.2.5,Win32,59.88023952,,,,,,,,,,,,,,,,,,,,,,,504.7266,505.7589,a,1,0.353,,0.353,1,505.7594,506.2589,,,,,,417,FEM,WORD,AGR,150,barba,,la,,506.2595,506.2602,0.036111302,-0.411111302,0,0,0,,0,247,247,416,1,banja,,,,
,,,,,,5f527fcd94f94754853db0e5,676192165fb32c2e1fb7aee6,67d1b5300c02f891b58b3d41,2025-03-12_10h42.53.556,Tarea de decisión léxica,2024.2.5,Win32,59.88023952,,,,,,,,,,,,,,,,,,,,,,,506.261,507.2754,a,1,0.3437,,0.3437,1,507.2755,507.7752,,,,,,21,MAS,WORD,AGR,150,plan,,el,,507.7752,507.7753,0.036111302,-0.411111302,0,0,0,,0,248,248,20,1,blan,,,,
,,,,,,5f527fcd94f94754853db0e5,676192165fb32c2e1fb7aee6,67d1b5300c02f891b58b3d41,2025-03-12_10h42.53.556,Tarea de decisión léxica,2024.2.5,Win32,59.88023952,,,,,,,,,,,,,,,,,,,,,,,507.776,508.8916,l,1,0.4434,,0.4434,1,508.8916,509.3915,,,,,,94,FEM,NOWORD,AGR,150,rona,,la,,509.3915,509.3915,0.036111302,-0.411111302,0,0,0,,0,249,249,93,1,bola,,,,
,,,,,,5f527fcd94f94754853db0e5,676192165fb32c2e1fb7aee6,67d1b5300c02f891b58b3d41,2025-03-12_10h42.53.556,Tarea de decisión léxica,2024.2.5,Win32,59.88023952,,,,,,,,,,,,,,,,,,,,,,,509.3921,510.4247,a,1,0.3527,,0.3527,1,510.4247,510.9244,,,,,,59,FEM,WORD,DIS,150,sala,,el,,510.9244,510.9245,0.036111302,-0.411111302,0,0,0,,0,250,250,58,1,tafa,,,,
,,,,,,5f527fcd94f94754853db0e5,676192165fb32c2e1fb7aee6,67d1b5300c02f891b58b3d41,2025-03-12_10h42.53.556,Tarea de decisión léxica,2024.2.5,Win32,59.88023952,,,,,,,,,,,,,,,,,,,,,,,510.9252,511.9242,a,1,0.3292,,0.3292,1,511.9243,512.4242,,,,,,295,MAS,WORD,DIS,150,dolor,,la,,512.425,512.4254,0.036111302,-0.411111302,0,0,0,,0,251,251,294,1,goler,,,,
,,,,,,5f527fcd94f94754853db0e5,676192165fb32c2e1fb7aee6,67d1b5300c02f891b58b3d41,2025-03-12_10h42.53.556,Tarea de decisión léxica,2024.2.5,Win32,59.88023952,,,,,,,,,,,,,,,,,,,,,,,512.4262,513.5569,l,1,0.4509,,0.4509,1,513.5571,514.057,,,,,,100,MAS,NOWORD,DIS,150,soro,,la,,514.0571,514.0571,0.036111302,-0.411111302,0,0,0,,0,252,252,99,1,lobo,,,,
,,,,,,5f527fcd94f94754853db0e5,676192165fb32c2e1fb7aee6,67d1b5300c02f891b58b3d41,2025-03-12_10h42.53.556,Tarea de decisión léxica,2024.2.5,Win32,59.88023952,,,,,,,,,,,,,,,,,,,,,,,514.0577,515.0901,l,1,0.3606,,0.3606,1,515.0901,515.5901,,,,,,342,MAS,NOWORD,AGR,150,daror,,el,,515.5902,515.5902,0.036111302,-0.411111302,0,0,0,,0,253,253,341,1,valor,,,,
,,,,,,5f527fcd94f94754853db0e5,676192165fb32c2e1fb7aee6,67d1b5300c02f891b58b3d41,2025-03-12_10h42.53.556,Tarea de decisión léxica,2024.2.5,Win32,59.88023952,,,,,,,,,,,,,,,,,,,,,,,515.591,516.6563,l,1,0.3839,,0.3839,1,516.6564,517.1565,,,,,,244,MAS,NOWORD,DIS,150,asamo,,la,,517.1565,517.1565,0.036111302,-0.411111302,0,0,0,,0,254,254,243,1,amigo,,,,
,,,,,,5f527fcd94f94754853db0e5,676192165fb32c2e1fb7aee6,67d1b5300c02f891b58b3d41,2025-03-12_10h42.53.556,Tarea de decisión léxica,2024.2.5,Win32,59.88023952,,,,,,,,,,,,,,,,,,,,,,,517.1573,518.1061,a,1,0.2722,,0.2722,1,518.1061,518.6059,,,,,,23,FEM,WORD,DIS,150,hija,,el,,518.6059,518.606,0.036111302,-0.411111302,0,0,0,,0,255,255,22,1,giva,,,,
,,,,,,5f527fcd94f94754853db0e5,676192165fb32c2e1fb7aee6,67d1b5300c02f891b58b3d41,2025-03-12_10h42.53.556,Tarea de decisión léxica,2024.2.5,Win32,59.88023952,,,,,,,,,,,,,,,,,,,,,,,518.6066,519.589,l,1,0.3123,,0.3123,1,519.589,520.089,,,,,,274,FEM,NOWORD,AGR,150,frosa,,la,,520.0898,520.0903,0.036111302,-0.411111302,0,0,0,,0,256,256,273,1,broma,,,,
,,,,,,5f527fcd94f94754853db0e5,676192165fb32c2e1fb7aee6,67d1b5300c02f891b58b3d41,2025-03-12_10h42.53.556,Tarea de decisión léxica,2024.2.5,Win32,59.88023952,,,,,,,,,,,,,,,,,,,,,,,520.0912,521.1052,l,1,0.3443,,0.3443,1,521.1053,521.6053,,,,,,368,MAS,NOWORD,DIS,150,rerob,,la,,521.6053,521.6054,0.036111302,-0.411111302,0,0,0,,0,257,257,367,1,reloj,,,,
,,,,,,5f527fcd94f94754853db0e5,676192165fb32c2e1fb7aee6,67d1b5300c02f891b58b3d41,2025-03-12_10h42.53.556,Tarea de decisión léxica,2024.2.5,Win32,59.88023952,,,,,,,,,,,,,,,,,,,,,,,521.6062,522.6383,l,0,0.3507,,0.3507,0,522.6388,523.1383,,,,,,157,MAS,WORD,AGR,150,nido,,el,,523.1384,523.1384,0.036111302,-0.411111302,0,0,0,,0,258,258,156,1,hico,,,,
,,,,,,5f527fcd94f94754853db0e5,676192165fb32c2e1fb7aee6,67d1b5300c02f891b58b3d41,2025-03-12_10h42.53.556,Tarea de decisión léxica,2024.2.5,Win32,59.88023952,,,,,,,,,,,,,,,,,,,,,,,523.1392,524.5212,l,0,0.702,,0.702,0,524.5213,525.0209,,,,,,239,MAS,WORD,DIS,150,mozo,,la,,525.0209,525.021,0.036111302,-0.411111302,0,0,0,,0,259,259,238,1,poño,,,,
,,,,,,5f527fcd94f94754853db0e5,676192165fb32c2e1fb7aee6,67d1b5300c02f891b58b3d41,2025-03-12_10h42.53.556,Tarea de decisión léxica,2024.2.5,Win32,59.88023952,,,,,,,,,,,,,,,,,,,,,,,525.0216,526.354,l,1,0.6613,,0.6613,1,526.3544,526.854,,,,,,442,FEM,NOWORD,AGR,150,telza,,la,,526.854,526.8542,0.036111302,-0.411111302,0,0,0,,0,260,260,441,1,selva,,,,
,,,,,,5f527fcd94f94754853db0e5,676192165fb32c2e1fb7aee6,67d1b5300c02f891b58b3d41,2025-03-12_10h42.53.556,Tarea de decisión léxica,2024.2.5,Win32,59.88023952,,,,,,,,,,,,,,,,,,,,,,,526.8548,527.887,l,1,0.3579,,0.3579,1,527.887,528.387,,,,,,8,MAS,NOWORD,DIS,150,nivo,,la,,528.3878,528.3884,0.036111302,-0.411111302,0,0,0,,0,261,261,7,1,hijo,,,,
,,,,,,5f527fcd94f94754853db0e5,676192165fb32c2e1fb7aee6,67d1b5300c02f891b58b3d41,2025-03-12_10h42.53.556,Tarea de decisión léxica,2024.2.5,Win32,59.88023952,,,,,,,,,,,,,,,,,,,,,,,528.3893,529.42,l,1,0.3505,,0.3505,1,529.4201,529.9198,,,,,,416,FEM,NOWORD,DIS,150,juira,,el,,529.9198,529.92,0.036111302,-0.411111302,0,0,0,,0,262,262,415,1,jaula,,,,
,,,,,,5f527fcd94f94754853db0e5,676192165fb32c2e1fb7aee6,67d1b5300c02f891b58b3d41,2025-03-12_10h42.53.556,Tarea de decisión léxica,2024.2.5,Win32,59.88023952,,,,,,,,,,,,,,,,,,,,,,,529.9206,530.9194,l,1,0.3278,,0.3278,1,530.9195,531.4193,,,,,,272,FEM,NOWORD,DIS,150,refal,,el,,531.4193,531.4195,0.036111302,-0.411111302,0,0,0,,0,263,263,271,1,señal,,,,
,,,,,,5f527fcd94f94754853db0e5,676192165fb32c2e1fb7aee6,67d1b5300c02f891b58b3d41,2025-03-12_10h42.53.556,Tarea de decisión léxica,2024.2.5,Win32,59.88023952,,,,,,,,,,,,,,,,,,,,,,,531.4201,532.3527,l,1,0.2503,,0.2503,1,532.3528,532.8523,,,,,,436,MAS,NOWORD,DIS,150,ricno,,la,,532.8523,532.8524,0.036111302,-0.411111302,0,0,0,,0,264,264,435,1,ritmo,,,,
