counterbalancing_condition,consent_prescreening.block_1/declare_consent,consent_prescreening.block_1/age_years,consent_prescreening.block_1/gender,consent_prescreening.block_1/language_disorder,consent_prescreening.block_1/first_language,PROLIFIC_PID,STUDY_ID,SESSION_ID,date,expName,psychopyVersion,OS,frameRate,check_prescreening_answers.started,check_prescreening_answers.stopped,Instructions.started,Instructions.stopped,instr_done_keyboard.keys,instr_done_keyboard.rt,instr_done_keyboard.duration,instr_done_touch.x,instr_done_touch.y,instr_done_touch.leftButton,instr_done_touch.midButton,instr_done_touch.rightButton,instruction_pages.thisRepN,instruction_pages.thisTrialN,instruction_pages.thisN,instruction_pages.thisIndex,instruction_pages.ran,pageN,phase,instruct_text,has_image,instruct_image,presentTrial.started,presentTrial.stopped,response.keys,response.corr,rt,corr,feedback.started,feedback.stopped,practice_trials.thisRepN,practice_trials.thisTrialN,practice_trials.thisN,practice_trials.thisIndex,practice_trials.ran,TrialID,Gender,StimulusType,Condition,PrimeDuration,Prime,len,Flanker,corrAns,response.rt,response.duration,Break.started,Break.stopped,break_done_touch.x,break_done_touch.y,break_done_touch.leftButton,break_done_touch.midButton,break_done_touch.rightButton,break_done_keyboard.keys,experiment_trials.thisRepN,experiment_trials.thisTrialN,experiment_trials.thisN,experiment_trials.thisIndex,experiment_trials.ran,PairedWith,break_done_keyboard.rt,break_done_keyboard.duration,End.started,End.stopped
0,"[""over_18"",""comfortable"",""consent_given"",""read_info""]",34,F,"[""none""]","[""spanish""]",5f884590af7e0e2c123d766c,676192165fb32c2e1fb7aee6,67d17268a69b11269cf4429c,2025-03-12_11h39.39.112,Tarea de decisión léxica,2024.2.5,MacIntel,60.60606061,,,,,,,,,,,,,,,,,,,,,,,,,,,,,,,,,,,,,,,,,,,,,,,,,,,,,,,,,,,,,,,,
,,,,,,5f884590af7e0e2c123d766c,676192165fb32c2e1fb7aee6,67d17268a69b11269cf4429c,2025-03-12_11h39.39.112,Tarea de decisión léxica,2024.2.5,MacIntel,60.60606061,30.0967,30.0969,,,,,,,,,,,,,,,,,,,,,,,,,,,,,,,,,,,,,,,,,,,,,,,,,,,,,,,,,,,,,,
,,,,,,5f884590af7e0e2c123d766c,676192165fb32c2e1fb7aee6,67d17268a69b11269cf4429c,2025-03-12_11h39.39.112,Tarea de decisión léxica,2024.2.5,MacIntel,60.60606061,,,30.119,47.4943,space,17.3386,,-0.092990542,0.067351436,0,0,0,0,0,0,0,1,1,instructions,"INSTRUCCIONES
Va a realizar una prueba de decisión léxica. Desde el comienzo de la prueba mire siempre al centro de la pantalla. Se presentará una serie de cadenas de letras, una a la vez, en la pantalla. Su tarea consiste en determinar si cada cadena de letras constituye una palabra real en español o una no-palabra (una secuencia de letras que no constituye una palabra real). 

Pulse la tecla ESPACIO para continuar.",0,keyboardresponseNW.png,,,,,,,,,,,,,,,,,,,,,,,,,,,,,,,,,,,,,,,,,,
,,,,,,5f884590af7e0e2c123d766c,676192165fb32c2e1fb7aee6,67d17268a69b11269cf4429c,2025-03-12_11h39.39.112,Tarea de decisión léxica,2024.2.5,MacIntel,60.60606061,,,47.4963,62.4778,space,14.9611,,-0.092990542,0.067351436,0,0,0,0,1,1,1,1,2,instructions,"El procedimiento es el siguiente: Aparecerán dos barras verticales posicionadas en el centro de la pantalla, separadas por un pequeño espacio.Por favor, enfoque su atención en el espacio entre las barras. Esto preparará sus ojos para la siguiente cadena de letras, que aparecerá entre las dos barras durante un instante.

Pulse la tecla ESPACIO para continuar.",0,keyboardresponseNW.png,,,,,,,,,,,,,,,,,,,,,,,,,,,,,,,,,,,,,,,,,,
,,,,,,5f884590af7e0e2c123d766c,676192165fb32c2e1fb7aee6,67d17268a69b11269cf4429c,2025-03-12_11h39.39.112,Tarea de decisión léxica,2024.2.5,MacIntel,60.60606061,,,62.4794,77.8944,space,15.3485,,-0.092990542,0.067351436,0,0,0,0,2,2,2,1,3,instructions,"En el teclado de su dispositivo, pulse la tecla ""L"" si la cadena de letras es una palabra real en español (por ejemplo: ""mano"") y la tecla ""A"" si la cadena de letras es una no-palabra (por ejemplo: ""minu"").
Pulse la tecla ESPACIO para continuar.",1,keyboardresponseNW.png,,,,,,,,,,,,,,,,,,,,,,,,,,,,,,,,,,,,,,,,,,
,,,,,,5f884590af7e0e2c123d766c,676192165fb32c2e1fb7aee6,67d17268a69b11269cf4429c,2025-03-12_11h39.39.112,Tarea de decisión léxica,2024.2.5,MacIntel,60.60606061,,,77.8963,92.9598,space,15.0448,,-0.092990542,0.067351436,0,0,0,0,3,3,3,1,4,instructions,"Es muy importante que responda con la mayor rapidez y precisión posibles. Si no responde dentro de 2 segundos, aparecerá el mensaje ""Muy lento"" y el experimento pasará a la siguiente palabra. Inmediatamente después de su respuesta se indicará si fue correcta o no. Los primeros 15 intentos serán de práctica y habrá dos descansos durante la prueba.

Pulse la tecla ESPACIO  para iniciar la parte de práctica.",0,keyboardresponseNW.png,,,,,,,,,,,,,,,,,,,,,,,,,,,,,,,,,,,,,,,,,,
,,,,,,5f884590af7e0e2c123d766c,676192165fb32c2e1fb7aee6,67d17268a69b11269cf4429c,2025-03-12_11h39.39.112,Tarea de decisión léxica,2024.2.5,MacIntel,60.60606061,,,,,,,,,,,,,,,,,,,,,,,92.9789,95.6278,,0,,-1,95.6282,96.1268,0,0,0,1,1,1002,FEM,NOWORD,DIS,150,mabo,4,el,a,,,,,,,,,,,,,,,,,,,,
,,,,,,5f884590af7e0e2c123d766c,676192165fb32c2e1fb7aee6,67d17268a69b11269cf4429c,2025-03-12_11h39.39.112,Tarea de decisión léxica,2024.2.5,MacIntel,60.60606061,,,,,,,,,,,,,,,,,,,,,,,96.1281,98.093,l,0,1.3006,0,98.1149,98.5943,0,1,1,0,1,1001,FEM,NOWORD,AGR,150,croz,4,la,a,1.3006,,,,,,,,,,,,,,,,,,,
,,,,,,5f884590af7e0e2c123d766c,676192165fb32c2e1fb7aee6,67d17268a69b11269cf4429c,2025-03-12_11h39.39.112,Tarea de decisión léxica,2024.2.5,MacIntel,60.60606061,,,,,,,,,,,,,,,,,,,,,,,98.5953,99.9775,a,0,0.6999,0,99.9776,100.4766,0,2,2,8,1,1009,FEM,WORD,AGR,150,viejo,5,la,l,0.6999,,,,,,,,,,,,,,,,,,,
,,,,,,5f884590af7e0e2c123d766c,676192165fb32c2e1fb7aee6,67d17268a69b11269cf4429c,2025-03-12_11h39.39.112,Tarea de decisión léxica,2024.2.5,MacIntel,60.60606061,,,,,,,,,,,,,,,,,,,,,,,100.4779,101.7596,l,1,0.6163,1,101.7603,102.26,0,3,3,7,1,1008,MAS,WORD,DIS,150,frío,4,la,l,0.6163,,,,,,,,,,,,,,,,,,,
,,,,,,5f884590af7e0e2c123d766c,676192165fb32c2e1fb7aee6,67d17268a69b11269cf4429c,2025-03-12_11h39.39.112,Tarea de decisión léxica,2024.2.5,MacIntel,60.60606061,,,,,,,,,,,,,,,,,,,,,,,102.2612,103.677,a,1,0.7503,1,103.6771,104.177,0,4,4,3,1,1004,FEM,NOWORD,AGR,150,bireo,5,la,a,0.7503,,,,,,,,,,,,,,,,,,,
,,,,,,5f884590af7e0e2c123d766c,676192165fb32c2e1fb7aee6,67d17268a69b11269cf4429c,2025-03-12_11h39.39.112,Tarea de decisión léxica,2024.2.5,MacIntel,60.60606061,,,,,,,,,,,,,,,,,,,,,,,104.1783,105.3104,l,1,0.4484,1,105.3104,105.8106,0,5,5,6,1,1007,MAS,WORD,DIS,150,masa,4,la,l,0.4484,,,,,,,,,,,,,,,,,,,
,,,,,,5f884590af7e0e2c123d766c,676192165fb32c2e1fb7aee6,67d17268a69b11269cf4429c,2025-03-12_11h39.39.112,Tarea de decisión léxica,2024.2.5,MacIntel,60.60606061,,,,,,,,,,,,,,,,,,,,,,,105.8114,106.9762,l,1,0.4832,1,106.9763,107.4772,0,6,6,5,1,1006,FEM,WORD,AGR,150,cara,4,la,l,0.4832,,,,,,,,,,,,,,,,,,,
,,,,,,5f884590af7e0e2c123d766c,676192165fb32c2e1fb7aee6,67d17268a69b11269cf4429c,2025-03-12_11h39.39.112,Tarea de decisión léxica,2024.2.5,MacIntel,60.60606061,,,,,,,,,,,,,,,,,,,,,,,107.4782,108.8932,a,1,0.7346,1,108.8933,109.393,0,7,7,4,1,1005,MAS,NOWORD,DIS,150,nobad,5,la,a,0.7346,,,,,,,,,,,,,,,,,,,
,,,,,,5f884590af7e0e2c123d766c,676192165fb32c2e1fb7aee6,67d17268a69b11269cf4429c,2025-03-12_11h39.39.112,Tarea de decisión léxica,2024.2.5,MacIntel,60.60606061,,,,,,,,,,,,,,,,,,,,,,,109.3939,110.5764,l,1,0.5156,1,110.5766,111.0762,0,8,8,9,1,1010,MAS,WORD,DIS,150,video,5,la,l,0.5156,,,,,,,,,,,,,,,,,,,
,,,,,,5f884590af7e0e2c123d766c,676192165fb32c2e1fb7aee6,67d17268a69b11269cf4429c,2025-03-12_11h39.39.112,Tarea de decisión léxica,2024.2.5,MacIntel,60.60606061,,,,,,,,,,,,,,,,,,,,,,,111.0768,112.4108,a,1,0.65,1,112.411,112.9103,0,9,9,2,1,1003,FEM,NOWORD,DIS,150,muvor,5,el,a,0.65,,,,,,,,,,,,,,,,,,,
,,,,,,5f884590af7e0e2c123d766c,676192165fb32c2e1fb7aee6,67d17268a69b11269cf4429c,2025-03-12_11h39.39.112,Tarea de decisión léxica,2024.2.5,MacIntel,60.60606061,,,118.4616,128.6594,space,10.173,,-0.092990542,0.067351436,0,0,0,,,,,,,,,,,128.6988,129.8099,l,1,0.4329,1,129.8101,130.3104,,,,,,265,FEM,WORD,DIS,150,mitad,,el,,0.4329,,130.3107,130.3145,-0.092990542,0.067351436,0,0,0,,0,0,0,264,1,pitat,,,,
,,,,,,5f884590af7e0e2c123d766c,676192165fb32c2e1fb7aee6,67d17268a69b11269cf4429c,2025-03-12_11h39.39.112,Tarea de decisión léxica,2024.2.5,MacIntel,60.60606061,,,,,,,,,,,,,,,,,,,,,,,130.3157,131.3436,l,1,0.3497,1,131.3437,131.844,,,,,,283,MAS,WORD,AGR,150,sueño,,el,,0.3497,,131.8441,131.8443,-0.092990542,0.067351436,0,0,0,,0,1,1,282,1,tuevo,,,,
,,,,,,5f884590af7e0e2c123d766c,676192165fb32c2e1fb7aee6,67d17268a69b11269cf4429c,2025-03-12_11h39.39.112,Tarea de decisión léxica,2024.2.5,MacIntel,60.60606061,,,,,,,,,,,,,,,,,,,,,,,131.8458,133.176,a,1,0.65,1,133.1761,133.6768,,,,,,438,FEM,NOWORD,DIS,150,glava,,el,,0.65,,133.6779,133.6789,-0.092990542,0.067351436,0,0,0,,0,2,2,437,1,plaza,,,,
,,,,,,5f884590af7e0e2c123d766c,676192165fb32c2e1fb7aee6,67d17268a69b11269cf4429c,2025-03-12_11h39.39.112,Tarea de decisión léxica,2024.2.5,MacIntel,60.60606061,,,,,,,,,,,,,,,,,,,,,,,133.6796,135.1432,a,1,0.7832,1,135.1432,135.6433,,,,,,40,MAS,NOWORD,AGR,150,redo,,el,,0.7832,,135.6434,135.6436,-0.092990542,0.067351436,0,0,0,,0,3,3,39,1,voto,,,,
,,,,,,5f884590af7e0e2c123d766c,676192165fb32c2e1fb7aee6,67d17268a69b11269cf4429c,2025-03-12_11h39.39.112,Tarea de decisión léxica,2024.2.5,MacIntel,60.60606061,,,,,,,,,,,,,,,,,,,,,,,135.6446,137.1763,l,0,0.8498,0,137.1769,137.6763,,,,,,102,MAS,NOWORD,DIS,150,gito,,la,,0.8498,,137.6764,137.6765,-0.092990542,0.067351436,0,0,0,,0,4,4,101,1,tono,,,,
,,,,,,5f884590af7e0e2c123d766c,676192165fb32c2e1fb7aee6,67d17268a69b11269cf4429c,2025-03-12_11h39.39.112,Tarea de decisión léxica,2024.2.5,MacIntel,60.60606061,,,,,,,,,,,,,,,,,,,,,,,137.6778,138.9435,l,1,0.5834,1,138.9442,139.4428,,,,,,211,FEM,WORD,DIS,150,joya,,el,,0.5834,,139.4429,139.443,-0.092990542,0.067351436,0,0,0,,0,5,5,210,1,joad,,,,
,,,,,,5f884590af7e0e2c123d766c,676192165fb32c2e1fb7aee6,67d17268a69b11269cf4429c,2025-03-12_11h39.39.112,Tarea de decisión léxica,2024.2.5,MacIntel,60.60606061,,,,,,,,,,,,,,,,,,,,,,,139.4438,140.6593,a,1,0.534,1,140.6594,141.1601,,,,,,162,MAS,NOWORD,DIS,150,bopo,,la,,0.534,,141.1602,141.1604,-0.092990542,0.067351436,0,0,0,,0,6,6,161,1,coro,,,,
,,,,,,5f884590af7e0e2c123d766c,676192165fb32c2e1fb7aee6,67d17268a69b11269cf4429c,2025-03-12_11h39.39.112,Tarea de decisión léxica,2024.2.5,MacIntel,60.60606061,,,,,,,,,,,,,,,,,,,,,,,141.1618,142.7424,a,1,0.8998,1,142.7425,143.2424,,,,,,148,FEM,NOWORD,AGR,150,pama,,la,,0.8998,,143.2431,143.2438,-0.092990542,0.067351436,0,0,0,,0,7,7,147,1,hoja,,,,
,,,,,,5f884590af7e0e2c123d766c,676192165fb32c2e1fb7aee6,67d17268a69b11269cf4429c,2025-03-12_11h39.39.112,Tarea de decisión léxica,2024.2.5,MacIntel,60.60606061,,,,,,,,,,,,,,,,,,,,,,,143.2443,144.5433,l,1,0.6164,1,144.5433,145.0426,,,,,,177,MAS,WORD,DIS,150,reto,,la,,0.6164,,145.0428,145.0429,-0.092990542,0.067351436,0,0,0,,0,8,8,176,1,bito,,,,
,,,,,,5f884590af7e0e2c123d766c,676192165fb32c2e1fb7aee6,67d17268a69b11269cf4429c,2025-03-12_11h39.39.112,Tarea de decisión léxica,2024.2.5,MacIntel,60.60606061,,,,,,,,,,,,,,,,,,,,,,,145.0437,146.309,l,1,0.5841,1,146.3092,146.8092,,,,,,105,FEM,WORD,DIS,150,sopa,,el,,0.5841,,146.8092,146.8095,-0.092990542,0.067351436,0,0,0,,0,9,9,104,1,vina,,,,
,,,,,,5f884590af7e0e2c123d766c,676192165fb32c2e1fb7aee6,67d17268a69b11269cf4429c,2025-03-12_11h39.39.112,Tarea de decisión léxica,2024.2.5,MacIntel,60.60606061,,,,,,,,,,,,,,,,,,,,,,,146.8104,147.9925,l,1,0.5168,1,147.9926,148.4934,,,,,,145,MAS,WORD,AGR,150,león,,el,,0.5168,,148.4934,148.4936,-0.092990542,0.067351436,0,0,0,,0,10,10,144,1,nobo,,,,
,,,,,,5f884590af7e0e2c123d766c,676192165fb32c2e1fb7aee6,67d17268a69b11269cf4429c,2025-03-12_11h39.39.112,Tarea de decisión léxica,2024.2.5,MacIntel,60.60606061,,,,,,,,,,,,,,,,,,,,,,,148.4945,149.7424,a,1,0.5666,1,149.7425,150.2426,,,,,,138,MAS,NOWORD,DIS,150,pamo,,la,,0.5666,,150.244,150.2449,-0.092990542,0.067351436,0,0,0,,0,11,11,137,1,nene,,,,
,,,,,,5f884590af7e0e2c123d766c,676192165fb32c2e1fb7aee6,67d17268a69b11269cf4429c,2025-03-12_11h39.39.112,Tarea de decisión léxica,2024.2.5,MacIntel,60.60606061,,,,,,,,,,,,,,,,,,,,,,,150.2457,151.7261,a,1,0.7998,1,151.7262,152.2269,,,,,,424,MAS,NOWORD,AGR,150,quigo,,el,,0.7998,,152.2269,152.2271,-0.092990542,0.067351436,0,0,0,,0,12,12,423,1,queso,,,,
,,,,,,5f884590af7e0e2c123d766c,676192165fb32c2e1fb7aee6,67d17268a69b11269cf4429c,2025-03-12_11h39.39.112,Tarea de decisión léxica,2024.2.5,MacIntel,60.60606061,,,,,,,,,,,,,,,,,,,,,,,152.2283,153.4768,a,1,0.5667,1,153.4769,153.977,,,,,,410,MAS,NOWORD,DIS,150,pafro,,la,,0.5667,,153.9771,153.9772,-0.092990542,0.067351436,0,0,0,,0,13,13,409,1,carro,,,,
,,,,,,5f884590af7e0e2c123d766c,676192165fb32c2e1fb7aee6,67d17268a69b11269cf4429c,2025-03-12_11h39.39.112,Tarea de decisión léxica,2024.2.5,MacIntel,60.60606061,,,,,,,,,,,,,,,,,,,,,,,153.9785,155.3088,a,1,0.6447,1,155.3089,155.8092,,,,,,100,MAS,NOWORD,AGR,150,soro,,el,,0.6447,,155.8092,155.8092,-0.092990542,0.067351436,0,0,0,,0,14,14,99,1,lobo,,,,
,,,,,,5f884590af7e0e2c123d766c,676192165fb32c2e1fb7aee6,67d17268a69b11269cf4429c,2025-03-12_11h39.39.112,Tarea de decisión léxica,2024.2.5,MacIntel,60.60606061,,,,,,,,,,,,,,,,,,,,,,,155.8101,156.9592,l,1,0.4663,1,156.9593,157.4596,,,,,,25,FEM,WORD,DIS,150,cama,,el,,0.4663,,157.4596,157.4597,-0.092990542,0.067351436,0,0,0,,0,15,15,24,1,paza,,,,
,,,,,,5f884590af7e0e2c123d766c,676192165fb32c2e1fb7aee6,67d17268a69b11269cf4429c,2025-03-12_11h39.39.112,Tarea de decisión léxica,2024.2.5,MacIntel,60.60606061,,,,,,,,,,,,,,,,,,,,,,,157.4609,158.6756,l,1,0.5328,1,158.6757,159.1757,,,,,,275,MAS,WORD,DIS,150,punto,,la,,0.5328,,159.177,159.1779,-0.092990542,0.067351436,0,0,0,,0,16,16,274,1,musto,,,,
,,,,,,5f884590af7e0e2c123d766c,676192165fb32c2e1fb7aee6,67d17268a69b11269cf4429c,2025-03-12_11h39.39.112,Tarea de decisión léxica,2024.2.5,MacIntel,60.60606061,,,,,,,,,,,,,,,,,,,,,,,159.1786,160.2591,l,1,0.4002,1,160.2591,160.759,,,,,,389,MAS,WORD,AGR,150,cerdo,,el,,0.4002,,160.759,160.7592,-0.092990542,0.067351436,0,0,0,,0,17,17,388,1,cenco,,,,
,,,,,,5f884590af7e0e2c123d766c,676192165fb32c2e1fb7aee6,67d17268a69b11269cf4429c,2025-03-12_11h39.39.112,Tarea de decisión léxica,2024.2.5,MacIntel,60.60606061,,,,,,,,,,,,,,,,,,,,,,,160.7604,162.0265,a,1,0.5835,1,162.0266,162.5266,,,,,,404,FEM,NOWORD,AGR,150,grisa,,la,,0.5835,,162.5267,162.5269,-0.092990542,0.067351436,0,0,0,,0,18,18,403,1,prima,,,,
,,,,,,5f884590af7e0e2c123d766c,676192165fb32c2e1fb7aee6,67d17268a69b11269cf4429c,2025-03-12_11h39.39.112,Tarea de decisión léxica,2024.2.5,MacIntel,60.60606061,,,,,,,,,,,,,,,,,,,,,,,162.5278,163.7262,l,1,0.5168,1,163.7263,164.2268,,,,,,229,MAS,WORD,DIS,150,amor,,la,,0.5168,,164.2268,164.227,-0.092990542,0.067351436,0,0,0,,0,19,19,228,1,ador,,,,
,,,,,,5f884590af7e0e2c123d766c,676192165fb32c2e1fb7aee6,67d17268a69b11269cf4429c,2025-03-12_11h39.39.112,Tarea de decisión léxica,2024.2.5,MacIntel,60.60606061,,,,,,,,,,,,,,,,,,,,,,,164.2282,165.3428,a,1,0.4328,1,165.3428,165.8423,,,,,,72,FEM,NOWORD,AGR,150,urla,,la,,0.4328,,165.8424,165.8425,-0.092990542,0.067351436,0,0,0,,0,20,20,71,1,isla,,,,
,,,,,,5f884590af7e0e2c123d766c,676192165fb32c2e1fb7aee6,67d17268a69b11269cf4429c,2025-03-12_11h39.39.112,Tarea de decisión léxica,2024.2.5,MacIntel,60.60606061,,,,,,,,,,,,,,,,,,,,,,,165.8434,167.0428,l,1,0.5338,1,167.0429,167.5433,,,,,,353,FEM,WORD,AGR,150,celda,,la,,0.5338,,167.5448,167.546,-0.092990542,0.067351436,0,0,0,,0,21,21,352,1,cezca,,,,
,,,,,,5f884590af7e0e2c123d766c,676192165fb32c2e1fb7aee6,67d17268a69b11269cf4429c,2025-03-12_11h39.39.112,Tarea de decisión léxica,2024.2.5,MacIntel,60.60606061,,,,,,,,,,,,,,,,,,,,,,,167.5471,168.6754,l,1,0.4499,1,168.6755,169.1764,,,,,,135,MAS,WORD,AGR,150,tubo,,el,,0.4499,,169.1764,169.1764,-0.092990542,0.067351436,0,0,0,,0,22,22,134,1,geso,,,,
,,,,,,5f884590af7e0e2c123d766c,676192165fb32c2e1fb7aee6,67d17268a69b11269cf4429c,2025-03-12_11h39.39.112,Tarea de decisión léxica,2024.2.5,MacIntel,60.60606061,,,,,,,,,,,,,,,,,,,,,,,169.177,170.292,l,1,0.4335,1,170.2921,170.7928,,,,,,157,MAS,WORD,AGR,150,nido,,el,,0.4335,,170.7928,170.7929,-0.092990542,0.067351436,0,0,0,,0,23,23,156,1,hico,,,,
,,,,,,5f884590af7e0e2c123d766c,676192165fb32c2e1fb7aee6,67d17268a69b11269cf4429c,2025-03-12_11h39.39.112,Tarea de decisión léxica,2024.2.5,MacIntel,60.60606061,,,,,,,,,,,,,,,,,,,,,,,170.7938,171.8592,l,1,0.3834,1,171.8593,172.3589,,,,,,87,MAS,WORD,AGR,150,vaso,,el,,0.3834,,172.359,172.3591,-0.092990542,0.067351436,0,0,0,,0,24,24,86,1,damo,,,,
,,,,,,5f884590af7e0e2c123d766c,676192165fb32c2e1fb7aee6,67d17268a69b11269cf4429c,2025-03-12_11h39.39.112,Tarea de decisión léxica,2024.2.5,MacIntel,60.60606061,,,,,,,,,,,,,,,,,,,,,,,172.3602,173.6092,a,1,0.5657,1,173.6093,174.1092,,,,,,94,FEM,NOWORD,DIS,150,rona,,el,,0.5657,,174.1092,174.1093,-0.092990542,0.067351436,0,0,0,,0,25,25,93,1,bola,,,,
,,,,,,5f884590af7e0e2c123d766c,676192165fb32c2e1fb7aee6,67d17268a69b11269cf4429c,2025-03-12_11h39.39.112,Tarea de decisión léxica,2024.2.5,MacIntel,60.60606061,,,,,,,,,,,,,,,,,,,,,,,174.1104,175.2594,l,1,0.4677,1,175.2595,175.7598,,,,,,287,FEM,WORD,DIS,150,lista,,el,,0.4677,,175.7612,175.7619,-0.092990542,0.067351436,0,0,0,,0,26,26,286,1,fosta,,,,
,,,,,,5f884590af7e0e2c123d766c,676192165fb32c2e1fb7aee6,67d17268a69b11269cf4429c,2025-03-12_11h39.39.112,Tarea de decisión léxica,2024.2.5,MacIntel,60.60606061,,,,,,,,,,,,,,,,,,,,,,,175.7626,177.0091,a,1,0.5667,1,177.0092,177.509,,,,,,452,FEM,NOWORD,AGR,150,clita,,la,,0.5667,,177.5091,177.5092,-0.092990542,0.067351436,0,0,0,,0,27,27,451,1,fruta,,,,
,,,,,,5f884590af7e0e2c123d766c,676192165fb32c2e1fb7aee6,67d17268a69b11269cf4429c,2025-03-12_11h39.39.112,Tarea de decisión léxica,2024.2.5,MacIntel,60.60606061,,,,,,,,,,,,,,,,,,,,,,,177.5105,178.6927,a,1,0.4995,1,178.6928,179.192,,,,,,136,MAS,NOWORD,AGR,150,geso,,el,,0.4995,,179.192,179.1921,-0.092990542,0.067351436,0,0,0,,0,28,28,135,1,tubo,,,,
,,,,,,5f884590af7e0e2c123d766c,676192165fb32c2e1fb7aee6,67d17268a69b11269cf4429c,2025-03-12_11h39.39.112,Tarea de decisión léxica,2024.2.5,MacIntel,60.60606061,,,,,,,,,,,,,,,,,,,,,,,179.1926,180.342,a,1,0.4677,1,180.3421,180.8421,,,,,,166,FEM,NOWORD,DIS,150,dera,,el,,0.4677,,180.8423,180.8424,-0.092990542,0.067351436,0,0,0,,0,29,29,165,1,vela,,,,
,,,,,,5f884590af7e0e2c123d766c,676192165fb32c2e1fb7aee6,67d17268a69b11269cf4429c,2025-03-12_11h39.39.112,Tarea de decisión léxica,2024.2.5,MacIntel,60.60606061,,,,,,,,,,,,,,,,,,,,,,,180.8435,182.0756,a,1,0.5514,1,182.0757,182.5756,,,,,,16,FEM,NOWORD,AGR,150,odea,,la,,0.5514,,182.5756,182.5757,-0.092990542,0.067351436,0,0,0,,0,30,30,15,1,idea,,,,
,,,,,,5f884590af7e0e2c123d766c,676192165fb32c2e1fb7aee6,67d17268a69b11269cf4429c,2025-03-12_11h39.39.112,Tarea de decisión léxica,2024.2.5,MacIntel,60.60606061,,,,,,,,,,,,,,,,,,,,,,,182.5762,183.7429,a,1,0.4996,1,183.7429,184.2422,,,,,,218,MAS,NOWORD,DIS,150,budo,,la,,0.4996,,184.2435,184.2443,-0.092990542,0.067351436,0,0,0,,0,31,31,217,1,luto,,,,
,,,,,,5f884590af7e0e2c123d766c,676192165fb32c2e1fb7aee6,67d17268a69b11269cf4429c,2025-03-12_11h39.39.112,Tarea de decisión léxica,2024.2.5,MacIntel,60.60606061,,,,,,,,,,,,,,,,,,,,,,,184.245,185.2929,l,1,0.3664,1,185.2929,185.7929,,,,,,461,FEM,WORD,AGR,150,tabla,,la,,0.3664,,185.793,185.7931,-0.092990542,0.067351436,0,0,0,,0,32,32,460,1,pagra,,,,
,,,,,,5f884590af7e0e2c123d766c,676192165fb32c2e1fb7aee6,67d17268a69b11269cf4429c,2025-03-12_11h39.39.112,Tarea de decisión léxica,2024.2.5,MacIntel,60.60606061,,,,,,,,,,,,,,,,,,,,,,,185.794,186.9252,l,1,0.4501,1,186.9253,187.4253,,,,,,453,FEM,WORD,DIS,150,mafia,,el,,0.4501,,187.4253,187.4255,-0.092990542,0.067351436,0,0,0,,0,33,33,452,1,pafia,,,,
,,,,,,5f884590af7e0e2c123d766c,676192165fb32c2e1fb7aee6,67d17268a69b11269cf4429c,2025-03-12_11h39.39.112,Tarea de decisión léxica,2024.2.5,MacIntel,60.60606061,,,,,,,,,,,,,,,,,,,,,,,187.4266,188.9423,a,1,0.85,1,188.9423,189.4423,,,,,,18,FEM,NOWORD,DIS,150,paba,,el,,0.85,,189.4424,189.4425,-0.092990542,0.067351436,0,0,0,,0,34,34,17,1,mamá,,,,
,,,,,,5f884590af7e0e2c123d766c,676192165fb32c2e1fb7aee6,67d17268a69b11269cf4429c,2025-03-12_11h39.39.112,Tarea de decisión léxica,2024.2.5,MacIntel,60.60606061,,,,,,,,,,,,,,,,,,,,,,,189.4436,191.126,a,1,0.9994,1,191.1261,191.6259,,,,,,278,MAS,NOWORD,DIS,150,vuemo,,la,,0.9994,,191.6271,191.6279,-0.092990542,0.067351436,0,0,0,,0,35,35,277,1,fuego,,,,
,,,,,,5f884590af7e0e2c123d766c,676192165fb32c2e1fb7aee6,67d17268a69b11269cf4429c,2025-03-12_11h39.39.112,Tarea de decisión léxica,2024.2.5,MacIntel,60.60606061,,,,,,,,,,,,,,,,,,,,,,,191.6285,193.2923,a,1,0.9828,1,193.2924,193.7921,,,,,,382,MAS,NOWORD,DIS,150,nusor,,la,,0.9828,,193.7923,193.7923,-0.092990542,0.067351436,0,0,0,,0,36,36,381,1,humor,,,,
,,,,,,5f884590af7e0e2c123d766c,676192165fb32c2e1fb7aee6,67d17268a69b11269cf4429c,2025-03-12_11h39.39.112,Tarea de decisión léxica,2024.2.5,MacIntel,60.60606061,,,,,,,,,,,,,,,,,,,,,,,193.7935,194.942,l,1,0.4733,1,194.9421,195.4416,,,,,,103,FEM,WORD,AGR,150,ruta,,la,,0.4733,,195.4418,195.4418,-0.092990542,0.067351436,0,0,0,,0,37,37,102,1,rova,,,,
,,,,,,5f884590af7e0e2c123d766c,676192165fb32c2e1fb7aee6,67d17268a69b11269cf4429c,2025-03-12_11h39.39.112,Tarea de decisión léxica,2024.2.5,MacIntel,60.60606061,,,,,,,,,,,,,,,,,,,,,,,195.4427,196.5416,l,1,0.416,1,196.5417,197.043,,,,,,337,MAS,WORD,DIS,150,huevo,,la,,0.416,,197.043,197.0432,-0.092990542,0.067351436,0,0,0,,0,38,38,336,1,nuejo,,,,
,,,,,,5f884590af7e0e2c123d766c,676192165fb32c2e1fb7aee6,67d17268a69b11269cf4429c,2025-03-12_11h39.39.112,Tarea de decisión léxica,2024.2.5,MacIntel,60.60606061,,,,,,,,,,,,,,,,,,,,,,,197.0443,198.2252,l,1,0.4998,1,198.2253,198.7255,,,,,,5,FEM,WORD,AGR,150,cosa,,la,,0.4998,,198.7255,198.7256,-0.092990542,0.067351436,0,0,0,,0,39,39,4,1,poga,,,,
,,,,,,5f884590af7e0e2c123d766c,676192165fb32c2e1fb7aee6,67d17268a69b11269cf4429c,2025-03-12_11h39.39.112,Tarea de decisión léxica,2024.2.5,MacIntel,60.60606061,,,,,,,,,,,,,,,,,,,,,,,198.7265,199.8255,l,1,0.4335,1,199.8256,200.3256,,,,,,445,MAS,WORD,DIS,150,actor,,la,,0.4335,,200.3263,200.3267,-0.092990542,0.067351436,0,0,0,,0,40,40,444,1,ascor,,,,
,,,,,,5f884590af7e0e2c123d766c,676192165fb32c2e1fb7aee6,67d17268a69b11269cf4429c,2025-03-12_11h39.39.112,Tarea de decisión léxica,2024.2.5,MacIntel,60.60606061,,,,,,,,,,,,,,,,,,,,,,,200.3272,201.4755,l,1,0.4663,1,201.4755,201.9752,,,,,,407,FEM,WORD,DIS,150,cueva,,el,,0.4663,,201.9752,201.9753,-0.092990542,0.067351436,0,0,0,,0,41,41,406,1,cauba,,,,
,,,,,,5f884590af7e0e2c123d766c,676192165fb32c2e1fb7aee6,67d17268a69b11269cf4429c,2025-03-12_11h39.39.112,Tarea de decisión léxica,2024.2.5,MacIntel,60.60606061,,,,,,,,,,,,,,,,,,,,,,,201.9765,203.076,l,1,0.4164,1,203.0761,203.5756,,,,,,129,MAS,WORD,DIS,150,oído,,la,,0.4164,,203.5756,203.5757,-0.092990542,0.067351436,0,0,0,,0,42,42,128,1,pima,,,,
,,,,,,5f884590af7e0e2c123d766c,676192165fb32c2e1fb7aee6,67d17268a69b11269cf4429c,2025-03-12_11h39.39.112,Tarea de decisión léxica,2024.2.5,MacIntel,60.60606061,,,,,,,,,,,,,,,,,,,,,,,203.5769,204.7255,a,1,0.4659,1,204.7256,205.226,,,,,,388,FEM,NOWORD,AGR,150,bresa,,la,,0.4659,,205.2261,205.2262,-0.092990542,0.067351436,0,0,0,,0,43,43,387,1,crema,,,,
,,,,,,5f884590af7e0e2c123d766c,676192165fb32c2e1fb7aee6,67d17268a69b11269cf4429c,2025-03-12_11h39.39.112,Tarea de decisión léxica,2024.2.5,MacIntel,60.60606061,,,,,,,,,,,,,,,,,,,,,,,205.2273,206.2921,a,1,0.3831,1,206.2921,206.7924,,,,,,186,MAS,NOWORD,DIS,150,raol,,la,,0.3831,,206.7925,206.7926,-0.092990542,0.067351436,0,0,0,,0,44,44,185,1,baúl,,,,
,,,,,,5f884590af7e0e2c123d766c,676192165fb32c2e1fb7aee6,67d17268a69b11269cf4429c,2025-03-12_11h39.39.112,Tarea de decisión léxica,2024.2.5,MacIntel,60.60606061,,,,,,,,,,,,,,,,,,,,,,,206.7938,208.1925,a,1,0.7165,1,208.1926,208.6915,,,,,,70,FEM,NOWORD,DIS,150,ñola,,el,,0.7165,,208.6923,208.693,-0.092990542,0.067351436,0,0,0,,0,45,45,69,1,zona,,,,
,,,,,,5f884590af7e0e2c123d766c,676192165fb32c2e1fb7aee6,67d17268a69b11269cf4429c,2025-03-12_11h39.39.112,Tarea de decisión léxica,2024.2.5,MacIntel,60.60606061,,,,,,,,,,,,,,,,,,,,,,,208.6935,209.8586,l,1,0.4849,1,209.8586,210.3584,,,,,,13,FEM,WORD,DIS,150,hora,,el,,0.4849,,210.3584,210.3586,-0.092990542,0.067351436,0,0,0,,0,46,46,12,1,nola,,,,
,,,,,,5f884590af7e0e2c123d766c,676192165fb32c2e1fb7aee6,67d17268a69b11269cf4429c,2025-03-12_11h39.39.112,Tarea de decisión léxica,2024.2.5,MacIntel,60.60606061,,,,,,,,,,,,,,,,,,,,,,,210.3599,211.4917,a,1,0.4497,1,211.4917,211.992,,,,,,414,FEM,NOWORD,DIS,150,bieda,,el,,0.4497,,211.9922,211.9922,-0.092990542,0.067351436,0,0,0,,0,47,47,413,1,rueda,,,,
,,,,,,5f884590af7e0e2c123d766c,676192165fb32c2e1fb7aee6,67d17268a69b11269cf4429c,2025-03-12_11h39.39.112,Tarea de decisión léxica,2024.2.5,MacIntel,60.60606061,,,,,,,,,,,,,,,,,,,,,,,211.9933,213.075,l,1,0.4004,1,213.075,213.5749,,,,,,201,FEM,WORD,AGR,150,cuna,,la,,0.4004,,213.575,213.5751,-0.092990542,0.067351436,0,0,0,,0,48,48,200,1,cusa,,,,
,,,,,,5f884590af7e0e2c123d766c,676192165fb32c2e1fb7aee6,67d17268a69b11269cf4429c,2025-03-12_11h39.39.112,Tarea de decisión léxica,2024.2.5,MacIntel,60.60606061,,,,,,,,,,,,,,,,,,,,,,,213.5763,214.6248,a,1,0.3666,1,214.6249,215.1254,,,,,,212,FEM,NOWORD,AGR,150,joad,,la,,0.3666,,215.1254,215.1256,-0.092990542,0.067351436,0,0,0,,0,49,49,211,1,joya,,,,
,,,,,,5f884590af7e0e2c123d766c,676192165fb32c2e1fb7aee6,67d17268a69b11269cf4429c,2025-03-12_11h39.39.112,Tarea de decisión léxica,2024.2.5,MacIntel,60.60606061,,,,,,,,,,,,,,,,,,,,,,,215.1267,216.3588,a,1,0.5499,1,216.3589,216.8593,,,,,,354,FEM,NOWORD,DIS,150,cezca,,el,,0.5499,,216.8607,216.8618,-0.092990542,0.067351436,0,0,0,,0,50,50,353,1,celda,,,,
,,,,,,5f884590af7e0e2c123d766c,676192165fb32c2e1fb7aee6,67d17268a69b11269cf4429c,2025-03-12_11h39.39.112,Tarea de decisión léxica,2024.2.5,MacIntel,60.60606061,,,,,,,,,,,,,,,,,,,,,,,216.8626,218.0915,a,1,0.5485,1,218.0916,218.5917,,,,,,472,FEM,NOWORD,AGR,150,prana,,la,,0.5485,,218.5917,218.5919,-0.092990542,0.067351436,0,0,0,,0,51,51,471,1,grasa,,,,
,,,,,,5f884590af7e0e2c123d766c,676192165fb32c2e1fb7aee6,67d17268a69b11269cf4429c,2025-03-12_11h39.39.112,Tarea de decisión léxica,2024.2.5,MacIntel,60.60606061,,,,,,,,,,,,,,,,,,,,,,,218.5929,219.6749,a,1,0.4163,1,219.6749,220.1751,,,,,,462,FEM,NOWORD,DIS,150,pagra,,el,,0.4163,,220.1752,220.1752,-0.092990542,0.067351436,0,0,0,,0,52,52,461,1,tabla,,,,
,,,,,,5f884590af7e0e2c123d766c,676192165fb32c2e1fb7aee6,67d17268a69b11269cf4429c,2025-03-12_11h39.39.112,Tarea de decisión léxica,2024.2.5,MacIntel,60.60606061,,,,,,,,,,,,,,,,,,,,,,,220.1761,221.4589,a,1,0.5999,1,221.459,221.9584,,,,,,250,FEM,NOWORD,DIS,150,plane,,el,,0.5999,,221.9585,221.9587,-0.092990542,0.067351436,0,0,0,,0,53,53,249,1,clase,,,,
,,,,,,5f884590af7e0e2c123d766c,676192165fb32c2e1fb7aee6,67d17268a69b11269cf4429c,2025-03-12_11h39.39.112,Tarea de decisión léxica,2024.2.5,MacIntel,60.60606061,,,,,,,,,,,,,,,,,,,,,,,221.9597,222.9918,a,1,0.3509,1,222.9918,223.4915,,,,,,208,MAS,NOWORD,AGR,150,kedo,,el,,0.3509,,223.4916,223.4917,-0.092990542,0.067351436,0,0,0,,0,54,54,207,1,kilo,,,,
,,,,,,5f884590af7e0e2c123d766c,676192165fb32c2e1fb7aee6,67d17268a69b11269cf4429c,2025-03-12_11h39.39.112,Tarea de decisión léxica,2024.2.5,MacIntel,60.60606061,,,,,,,,,,,,,,,,,,,,,,,223.493,224.7413,a,1,0.5673,1,224.7413,225.2419,,,,,,372,FEM,NOWORD,AGR,150,mosta,,la,,0.5673,,225.2428,225.2436,-0.092990542,0.067351436,0,0,0,,0,55,55,371,1,pasta,,,,
,,,,,,5f884590af7e0e2c123d766c,676192165fb32c2e1fb7aee6,67d17268a69b11269cf4429c,2025-03-12_11h39.39.112,Tarea de decisión léxica,2024.2.5,MacIntel,60.60606061,,,,,,,,,,,,,,,,,,,,,,,225.2444,226.4081,l,1,0.4832,1,226.4081,226.9086,,,,,,15,FEM,WORD,AGR,150,idea,,la,,0.4832,,226.9087,226.9089,-0.092990542,0.067351436,0,0,0,,0,56,56,14,1,odea,,,,
,,,,,,5f884590af7e0e2c123d766c,676192165fb32c2e1fb7aee6,67d17268a69b11269cf4429c,2025-03-12_11h39.39.112,Tarea de decisión léxica,2024.2.5,MacIntel,60.60606061,,,,,,,,,,,,,,,,,,,,,,,226.91,228.4746,l,0,0.8848,0,228.4752,228.975,,,,,,362,FEM,NOWORD,DIS,150,solle,,el,,0.8848,,228.9751,228.9751,-0.092990542,0.067351436,0,0,0,,0,57,57,361,1,torre,,,,
,,,,,,5f884590af7e0e2c123d766c,676192165fb32c2e1fb7aee6,67d17268a69b11269cf4429c,2025-03-12_11h39.39.112,Tarea de decisión léxica,2024.2.5,MacIntel,60.60606061,,,,,,,,,,,,,,,,,,,,,,,228.9762,230.1754,l,1,0.5158,1,230.1761,230.6752,,,,,,199,MAS,WORD,DIS,150,lazo,,la,,0.5158,,230.6753,230.6753,-0.092990542,0.067351436,0,0,0,,0,58,58,198,1,fano,,,,
,,,,,,5f884590af7e0e2c123d766c,676192165fb32c2e1fb7aee6,67d17268a69b11269cf4429c,2025-03-12_11h39.39.112,Tarea de decisión léxica,2024.2.5,MacIntel,60.60606061,,,,,,,,,,,,,,,,,,,,,,,230.6759,231.808,l,1,0.449,1,231.8081,232.3089,,,,,,391,MAS,WORD,DIS,150,dueño,,la,,0.449,,232.3103,232.3114,-0.092990542,0.067351436,0,0,0,,0,59,59,390,1,dievo,,,,
,,,,,,5f884590af7e0e2c123d766c,676192165fb32c2e1fb7aee6,67d17268a69b11269cf4429c,2025-03-12_11h39.39.112,Tarea de decisión léxica,2024.2.5,MacIntel,60.60606061,,,,,,,,,,,,,,,,,,,,,,,232.3121,233.4754,a,1,0.4833,1,233.4756,233.9754,,,,,,168,FEM,NOWORD,AGR,150,zifa,,la,,0.4833,,233.9754,233.9756,-0.092990542,0.067351436,0,0,0,,0,60,60,167,1,jefa,,,,
,,,,,,5f884590af7e0e2c123d766c,676192165fb32c2e1fb7aee6,67d17268a69b11269cf4429c,2025-03-12_11h39.39.112,Tarea de decisión léxica,2024.2.5,MacIntel,60.60606061,,,,,,,,,,,,,,,,,,,,,,,233.9769,235.0754,a,1,0.4168,1,235.0755,235.5753,,,,,,46,FEM,NOWORD,DIS,150,pema,,el,,0.4168,,235.5754,235.5756,-0.092990542,0.067351436,0,0,0,,0,61,61,45,1,mesa,,,,
,,,,,,5f884590af7e0e2c123d766c,676192165fb32c2e1fb7aee6,67d17268a69b11269cf4429c,2025-03-12_11h39.39.112,Tarea de decisión léxica,2024.2.5,MacIntel,60.60606061,,,,,,,,,,,,,,,,,,,,,,,235.5767,236.6424,a,1,0.3755,1,236.6425,237.1419,,,,,,84,FEM,NOWORD,AGR,150,taga,,la,,0.3755,,237.1419,237.1421,-0.092990542,0.067351436,0,0,0,,0,62,62,83,1,bala,,,,
,,,,,,5f884590af7e0e2c123d766c,676192165fb32c2e1fb7aee6,67d17268a69b11269cf4429c,2025-03-12_11h39.39.112,Tarea de decisión léxica,2024.2.5,MacIntel,60.60606061,,,,,,,,,,,,,,,,,,,,,,,237.1433,238.2584,a,1,0.4337,1,238.2585,238.759,,,,,,236,FEM,NOWORD,AGR,150,tria,,la,,0.4337,,238.759,238.7592,-0.092990542,0.067351436,0,0,0,,0,63,63,235,1,grúa,,,,
,,,,,,5f884590af7e0e2c123d766c,676192165fb32c2e1fb7aee6,67d17268a69b11269cf4429c,2025-03-12_11h39.39.112,Tarea de decisión léxica,2024.2.5,MacIntel,60.60606061,,,,,,,,,,,,,,,,,,,,,,,238.7604,239.8251,a,1,0.3828,1,239.8252,240.3246,,,,,,198,MAS,NOWORD,DIS,150,dade,,la,,0.3828,,240.3259,240.3268,-0.092990542,0.067351436,0,0,0,,0,64,64,197,1,bate,,,,
,,,,,,5f884590af7e0e2c123d766c,676192165fb32c2e1fb7aee6,67d17268a69b11269cf4429c,2025-03-12_11h39.39.112,Tarea de decisión léxica,2024.2.5,MacIntel,60.60606061,,,,,,,,,,,,,,,,,,,,,,,240.3275,241.5246,l,1,0.5177,1,241.5246,242.0257,,,,,,365,FEM,WORD,DIS,150,ducha,,el,,0.5177,,242.0258,242.0259,-0.092990542,0.067351436,0,0,0,,0,65,65,364,1,gulla,,,,
,,,,,,5f884590af7e0e2c123d766c,676192165fb32c2e1fb7aee6,67d17268a69b11269cf4429c,2025-03-12_11h39.39.112,Tarea de decisión léxica,2024.2.5,MacIntel,60.60606061,,,,,,,,,,,,,,,,,,,,,,,242.0269,243.0918,l,1,0.3835,1,243.0919,243.5912,,,,,,299,FEM,WORD,AGR,150,bolsa,,la,,0.3835,,243.5912,243.5914,-0.092990542,0.067351436,0,0,0,,0,66,66,298,1,bosga,,,,
,,,,,,5f884590af7e0e2c123d766c,676192165fb32c2e1fb7aee6,67d17268a69b11269cf4429c,2025-03-12_11h39.39.112,Tarea de decisión léxica,2024.2.5,MacIntel,60.60606061,,,,,,,,,,,,,,,,,,,,,,,243.5924,244.841,a,1,0.5836,1,244.8411,245.3413,,,,,,132,FEM,NOWORD,AGR,150,fada,,la,,0.5836,,245.3413,245.3414,-0.092990542,0.067351436,0,0,0,,0,67,67,131,1,mina,,,,
,,,,,,5f884590af7e0e2c123d766c,676192165fb32c2e1fb7aee6,67d17268a69b11269cf4429c,2025-03-12_11h39.39.112,Tarea de decisión léxica,2024.2.5,MacIntel,60.60606061,,,,,,,,,,,,,,,,,,,,,,,245.3424,246.3584,a,1,0.3329,1,246.3584,246.8587,,,,,,6,FEM,NOWORD,DIS,150,poga,,el,,0.3329,,246.8588,246.8589,-0.092990542,0.067351436,0,0,0,,0,68,68,5,1,cosa,,,,
,,,,,,5f884590af7e0e2c123d766c,676192165fb32c2e1fb7aee6,67d17268a69b11269cf4429c,2025-03-12_11h39.39.112,Tarea de decisión léxica,2024.2.5,MacIntel,60.60606061,,,,,,,,,,,,,,,,,,,,,,,246.86,248.2247,a,1,0.6837,1,248.2248,248.7246,,,,,,2,FEM,NOWORD,DIS,150,mada,,el,,0.6837,,248.7256,248.7263,-0.092990542,0.067351436,0,0,0,,0,69,69,1,1,casa,,,,
,,,,,,5f884590af7e0e2c123d766c,676192165fb32c2e1fb7aee6,67d17268a69b11269cf4429c,2025-03-12_11h39.39.112,Tarea de decisión léxica,2024.2.5,MacIntel,60.60606061,,,,,,,,,,,,,,,,,,,,,,,248.7268,249.8423,a,1,0.4346,1,249.8425,250.3414,,,,,,346,FEM,NOWORD,DIS,150,anera,,el,,0.4346,,250.3415,250.3416,-0.092990542,0.067351436,0,0,0,,0,70,70,345,1,arena,,,,
,,,,,,5f884590af7e0e2c123d766c,676192165fb32c2e1fb7aee6,67d17268a69b11269cf4429c,2025-03-12_11h39.39.112,Tarea de decisión léxica,2024.2.5,MacIntel,60.60606061,,,,,,,,,,,,,,,,,,,,,,,250.3427,251.442,a,1,0.416,1,251.442,251.9419,,,,,,334,FEM,NOWORD,DIS,150,dalea,,el,,0.416,,251.942,251.942,-0.092990542,0.067351436,0,0,0,,0,71,71,333,1,tarea,,,,
,,,,,,5f884590af7e0e2c123d766c,676192165fb32c2e1fb7aee6,67d17268a69b11269cf4429c,2025-03-12_11h39.39.112,Tarea de decisión léxica,2024.2.5,MacIntel,60.60606061,,,,,,,,,,,,,,,,,,,,,,,251.9433,253.0081,a,1,0.3836,1,253.0082,253.5081,,,,,,254,MAS,NOWORD,DIS,150,trido,,la,,0.3836,,253.5082,253.5083,-0.092990542,0.067351436,0,0,0,,0,72,72,253,1,chico,,,,
,,,,,,5f884590af7e0e2c123d766c,676192165fb32c2e1fb7aee6,67d17268a69b11269cf4429c,2025-03-12_11h39.39.112,Tarea de decisión léxica,2024.2.5,MacIntel,60.60606061,,,,,,,,,,,,,,,,,,,,,,,253.5091,254.7748,l,1,0.5825,1,254.7748,255.2752,,,,,,43,FEM,WORD,DIS,150,pena,,el,,0.5825,,255.2753,255.2753,-0.092990542,0.067351436,0,0,0,,0,73,73,42,1,meda,,,,
,,,,,,5f884590af7e0e2c123d766c,676192165fb32c2e1fb7aee6,67d17268a69b11269cf4429c,2025-03-12_11h39.39.112,Tarea de decisión léxica,2024.2.5,MacIntel,60.60606061,,,,,,,,,,,,,,,,,,,,,,,255.2759,256.3909,l,1,0.4346,1,256.3909,256.8922,,,,,,277,MAS,WORD,AGR,150,fuego,,el,,0.4346,,256.8935,256.8946,-0.092990542,0.067351436,0,0,0,,0,74,74,276,1,vuemo,,,,
,,,,,,5f884590af7e0e2c123d766c,676192165fb32c2e1fb7aee6,67d17268a69b11269cf4429c,2025-03-12_11h39.39.112,Tarea de decisión léxica,2024.2.5,MacIntel,60.60606061,,,,,,,,,,,,,,,,,,,,,,,256.8953,258.0418,l,1,0.4672,1,258.0418,258.5409,,,,,,387,FEM,WORD,DIS,150,crema,,el,,0.4672,,258.541,258.5411,-0.092990542,0.067351436,0,0,0,,0,75,75,386,1,bresa,,,,
,,,,,,5f884590af7e0e2c123d766c,676192165fb32c2e1fb7aee6,67d17268a69b11269cf4429c,2025-03-12_11h39.39.112,Tarea de decisión léxica,2024.2.5,MacIntel,60.60606061,,,,,,,,,,,,,,,,,,,,,,,258.5419,259.7587,l,1,0.5416,1,259.7587,260.2584,,,,,,215,FEM,WORD,DIS,150,raíz,,el,,0.5416,,260.2584,260.2585,-0.092990542,0.067351436,0,0,0,,0,76,76,214,1,raua,,,,
,,,,,,5f884590af7e0e2c123d766c,676192165fb32c2e1fb7aee6,67d17268a69b11269cf4429c,2025-03-12_11h39.39.112,Tarea de decisión léxica,2024.2.5,MacIntel,60.60606061,,,,,,,,,,,,,,,,,,,,,,,260.2591,261.5244,a,1,0.5832,1,261.5244,262.0245,,,,,,422,MAS,NOWORD,DIS,150,griso,,la,,0.5832,,262.0246,262.0247,-0.092990542,0.067351436,0,0,0,,0,77,77,421,1,primo,,,,
,,,,,,5f884590af7e0e2c123d766c,676192165fb32c2e1fb7aee6,67d17268a69b11269cf4429c,2025-03-12_11h39.39.112,Tarea de decisión léxica,2024.2.5,MacIntel,60.60606061,,,,,,,,,,,,,,,,,,,,,,,262.0258,263.2584,l,1,0.5414,1,263.2585,263.758,,,,,,115,FEM,WORD,DIS,150,pata,,el,,0.5414,,263.758,263.7582,-0.092990542,0.067351436,0,0,0,,0,78,78,114,1,haca,,,,
,,,,,,5f884590af7e0e2c123d766c,676192165fb32c2e1fb7aee6,67d17268a69b11269cf4429c,2025-03-12_11h39.39.112,Tarea de decisión léxica,2024.2.5,MacIntel,60.60606061,,,,,,,,,,,,,,,,,,,,,,,263.7591,264.924,l,1,0.4836,1,264.924,265.4253,,,,,,175,FEM,WORD,AGR,150,goma,,la,,0.4836,,265.4262,265.4271,-0.092990542,0.067351436,0,0,0,,0,79,79,174,1,hosa,,,,
,,,,,,5f884590af7e0e2c123d766c,676192165fb32c2e1fb7aee6,67d17268a69b11269cf4429c,2025-03-12_11h39.39.112,Tarea de decisión léxica,2024.2.5,MacIntel,60.60606061,,,,,,,,,,,,,,,,,,,,,,,265.4276,266.5081,a,1,0.4004,1,266.5081,267.0083,,,,,,104,FEM,NOWORD,AGR,150,rova,,la,,0.4004,,267.0084,267.0085,-0.092990542,0.067351436,0,0,0,,0,80,80,103,1,ruta,,,,
,,,,,,5f884590af7e0e2c123d766c,676192165fb32c2e1fb7aee6,67d17268a69b11269cf4429c,2025-03-12_11h39.39.112,Tarea de decisión léxica,2024.2.5,MacIntel,60.60606061,,,,,,,,,,,,,,,,,,,,,,,267.0097,268.2914,l,1,0.5994,1,268.2916,268.7912,,,,,,345,FEM,WORD,AGR,150,arena,,la,,0.5994,,268.7913,268.7913,-0.092990542,0.067351436,0,0,0,,0,81,81,344,1,anera,,,,
,,,,,,5f884590af7e0e2c123d766c,676192165fb32c2e1fb7aee6,67d17268a69b11269cf4429c,2025-03-12_11h39.39.112,Tarea de decisión léxica,2024.2.5,MacIntel,60.60606061,,,,,,,,,,,,,,,,,,,,,,,268.7928,269.9082,l,1,0.44,1,269.9082,270.4072,,,,,,1,FEM,WORD,AGR,150,casa,,la,,0.44,,270.4073,270.4073,-0.092990542,0.067351436,0,0,0,,0,82,82,0,1,mada,,,,
,,,,,,5f884590af7e0e2c123d766c,676192165fb32c2e1fb7aee6,67d17268a69b11269cf4429c,2025-03-12_11h39.39.112,Tarea de decisión léxica,2024.2.5,MacIntel,60.60606061,,,,,,,,,,,,,,,,,,,,,,,270.4078,271.5416,a,1,0.4672,1,271.5417,272.0408,,,,,,476,FEM,NOWORD,AGR,150,mucta,,la,,0.4672,,272.0421,272.0431,-0.092990542,0.067351436,0,0,0,,0,83,83,475,1,manta,,,,
,,,,,,5f884590af7e0e2c123d766c,676192165fb32c2e1fb7aee6,67d17268a69b11269cf4429c,2025-03-12_11h39.39.112,Tarea de decisión léxica,2024.2.5,MacIntel,60.60606061,,,,,,,,,,,,,,,,,,,,,,,272.0438,273.1906,a,1,0.4669,1,273.1907,273.6908,,,,,,210,MAS,NOWORD,DIS,150,dero,,la,,0.4669,,273.6909,273.691,-0.092990542,0.067351436,0,0,0,,0,84,84,209,1,velo,,,,
,,,,,,5f884590af7e0e2c123d766c,676192165fb32c2e1fb7aee6,67d17268a69b11269cf4429c,2025-03-12_11h39.39.112,Tarea de decisión léxica,2024.2.5,MacIntel,60.60606061,,,,,,,,,,,,,,,,,,,,,,,273.692,274.9578,l,1,0.5833,1,274.9579,275.4576,,,,,,259,MAS,WORD,DIS,150,juego,,la,,0.5833,,275.4576,275.4578,-0.092990542,0.067351436,0,0,0,,0,85,85,258,1,jaumo,,,,
,,,,,,5f884590af7e0e2c123d766c,676192165fb32c2e1fb7aee6,67d17268a69b11269cf4429c,2025-03-12_11h39.39.112,Tarea de decisión léxica,2024.2.5,MacIntel,60.60606061,,,,,,,,,,,,,,,,,,,,,,,275.459,276.5413,l,1,0.4009,1,276.5413,277.0409,,,,,,69,FEM,WORD,AGR,150,zona,,la,,0.4009,,277.041,277.0411,-0.092990542,0.067351436,0,0,0,,0,86,86,68,1,ñola,,,,
,,,,,,5f884590af7e0e2c123d766c,676192165fb32c2e1fb7aee6,67d17268a69b11269cf4429c,2025-03-12_11h39.39.112,Tarea de decisión léxica,2024.2.5,MacIntel,60.60606061,,,,,,,,,,,,,,,,,,,,,,,277.0422,278.2071,l,1,0.4831,1,278.2071,278.7079,,,,,,417,FEM,WORD,AGR,150,barba,,la,,0.4831,,278.7079,278.708,-0.092990542,0.067351436,0,0,0,,0,87,87,416,1,banja,,,,
,,,,,,5f884590af7e0e2c123d766c,676192165fb32c2e1fb7aee6,67d17268a69b11269cf4429c,2025-03-12_11h39.39.112,Tarea de decisión léxica,2024.2.5,MacIntel,60.60606061,,,,,,,,,,,,,,,,,,,,,,,278.7088,280.0407,l,1,0.6513,1,280.0408,280.5408,,,,,,209,MAS,WORD,DIS,150,velo,,la,,0.6513,,280.5413,280.5417,-0.092990542,0.067351436,0,0,0,,0,88,88,208,1,dero,,,,
,,,,,,5f884590af7e0e2c123d766c,676192165fb32c2e1fb7aee6,67d17268a69b11269cf4429c,2025-03-12_11h39.39.112,Tarea de decisión léxica,2024.2.5,MacIntel,60.60606061,,,,,,,,,,,,,,,,,,,,,,,280.5422,281.6746,l,1,0.451,1,281.6747,282.1749,,,,,,189,MAS,WORD,DIS,150,puño,,la,,0.451,,282.1749,282.175,-0.092990542,0.067351436,0,0,0,,0,89,89,188,1,muvo,,,,
,,,,,,5f884590af7e0e2c123d766c,676192165fb32c2e1fb7aee6,67d17268a69b11269cf4429c,2025-03-12_11h39.39.112,Tarea de decisión léxica,2024.2.5,MacIntel,60.60606061,,,,,,,,,,,,,,,,,,,,,,,282.1758,283.2079,l,1,0.3493,1,283.2079,283.7076,,,,,,279,FEM,WORD,AGR,150,prisa,,la,,0.3493,,283.7077,283.7078,-0.092990542,0.067351436,0,0,0,,0,90,90,278,1,grina,,,,
,,,,,,5f884590af7e0e2c123d766c,676192165fb32c2e1fb7aee6,67d17268a69b11269cf4429c,2025-03-12_11h39.39.112,Tarea de decisión léxica,2024.2.5,MacIntel,60.60606061,,,,,,,,,,,,,,,,,,,,,,,283.7087,284.7247,l,1,0.3331,1,284.7247,285.2241,,,,,,51,FEM,WORD,AGR,150,caja,,la,,0.3331,,285.2241,285.2242,-0.092990542,0.067351436,0,0,0,,0,91,91,50,1,mava,,,,
,,,,,,5f884590af7e0e2c123d766c,676192165fb32c2e1fb7aee6,67d17268a69b11269cf4429c,2025-03-12_11h39.39.112,Tarea de decisión léxica,2024.2.5,MacIntel,60.60606061,,,,,,,,,,,,,,,,,,,,,,,285.2254,286.2406,l,1,0.3327,1,286.2406,286.7417,,,,,,295,MAS,WORD,DIS,150,dolor,,la,,0.3327,,286.7418,286.742,-0.092990542,0.067351436,0,0,0,,0,92,92,294,1,goler,,,,
,,,,,,5f884590af7e0e2c123d766c,676192165fb32c2e1fb7aee6,67d17268a69b11269cf4429c,2025-03-12_11h39.39.112,Tarea de decisión léxica,2024.2.5,MacIntel,60.60606061,,,,,,,,,,,,,,,,,,,,,,,286.7431,287.8574,l,1,0.4331,1,287.8575,288.3582,,,,,,101,MAS,WORD,AGR,150,tono,,el,,0.4331,,288.3595,288.3606,-0.092990542,0.067351436,0,0,0,,0,93,93,100,1,gito,,,,
,,,,,,5f884590af7e0e2c123d766c,676192165fb32c2e1fb7aee6,67d17268a69b11269cf4429c,2025-03-12_11h39.39.112,Tarea de decisión léxica,2024.2.5,MacIntel,60.60606061,,,,,,,,,,,,,,,,,,,,,,,288.3613,289.4581,a,1,0.4083,1,289.4582,289.9577,,,,,,108,MAS,NOWORD,AGR,150,raot,,el,,0.4083,,289.9578,289.9579,-0.092990542,0.067351436,0,0,0,,0,94,94,107,1,saco,,,,
,,,,,,5f884590af7e0e2c123d766c,676192165fb32c2e1fb7aee6,67d17268a69b11269cf4429c,2025-03-12_11h39.39.112,Tarea de decisión léxica,2024.2.5,MacIntel,60.60606061,,,,,,,,,,,,,,,,,,,,,,,289.959,291.3571,a,1,0.7157,1,291.3571,291.8581,,,,,,330,MAS,NOWORD,DIS,150,nueno,,la,,0.7157,,291.8582,291.8583,-0.092990542,0.067351436,0,0,0,,0,95,95,329,1,hueso,,,,
,,,,,,5f884590af7e0e2c123d766c,676192165fb32c2e1fb7aee6,67d17268a69b11269cf4429c,2025-03-12_11h39.39.112,Tarea de decisión léxica,2024.2.5,MacIntel,60.60606061,,,,,,,,,,,,,,,,,,,,,,,291.8595,293.3403,a,1,0.7988,1,293.3404,293.8405,,,,,,130,MAS,NOWORD,DIS,150,pima,,la,,0.7988,,293.8406,293.8407,-0.092990542,0.067351436,0,0,0,,0,96,96,129,1,oído,,,,
,,,,,,5f884590af7e0e2c123d766c,676192165fb32c2e1fb7aee6,67d17268a69b11269cf4429c,2025-03-12_11h39.39.112,Tarea de decisión léxica,2024.2.5,MacIntel,60.60606061,,,,,,,,,,,,,,,,,,,,,,,293.8417,295.4737,l,0,0.9502,0,295.4743,295.9739,,,,,,360,MAS,NOWORD,AGR,150,cacer,,el,,0.9502,,295.9739,295.9741,-0.092990542,0.067351436,0,0,0,,0,97,97,359,1,calor,,,,
,,,,,,5f884590af7e0e2c123d766c,676192165fb32c2e1fb7aee6,67d17268a69b11269cf4429c,2025-03-12_11h39.39.112,Tarea de decisión léxica,2024.2.5,MacIntel,60.60606061,,,,,,,,,,,,,,,,,,,,,,,295.9751,297.0581,l,1,0.3973,1,297.059,297.5578,,,,,,249,FEM,WORD,AGR,150,clase,,la,,0.3973,,297.5588,297.5597,-0.092990542,0.067351436,0,0,0,,0,98,98,248,1,plane,,,,
,,,,,,5f884590af7e0e2c123d766c,676192165fb32c2e1fb7aee6,67d17268a69b11269cf4429c,2025-03-12_11h39.39.112,Tarea de decisión léxica,2024.2.5,MacIntel,60.60606061,,,,,,,,,,,,,,,,,,,,,,,297.5604,298.6909,a,1,0.4515,1,298.6909,299.1908,,,,,,120,MAS,NOWORD,AGR,150,hooy,,el,,0.4515,,299.1908,299.1909,-0.092990542,0.067351436,0,0,0,,0,99,99,119,1,pozo,,,,
,,,,,,5f884590af7e0e2c123d766c,676192165fb32c2e1fb7aee6,67d17268a69b11269cf4429c,2025-03-12_11h39.39.112,Tarea de decisión léxica,2024.2.5,MacIntel,60.60606061,,,,,,,,,,,,,,,,,,,,,,,299.1921,300.2403,a,1,0.3656,1,300.2404,300.7408,,,,,,308,MAS,NOWORD,AGR,150,holol,,el,,0.3656,,300.7409,300.7409,-0.092990542,0.067351436,0,0,0,,0,100,100,307,1,hotel,,,,
,,,,,,5f884590af7e0e2c123d766c,676192165fb32c2e1fb7aee6,67d17268a69b11269cf4429c,2025-03-12_11h39.39.112,Tarea de decisión léxica,2024.2.5,MacIntel,60.60606061,,,,,,,,,,,,,,,,,,,,,,,300.7415,301.8403,a,1,0.4247,1,301.8404,302.3402,,,,,,270,MAS,NOWORD,DIS,150,mello,,la,,0.4247,,302.3402,302.3403,-0.092990542,0.067351436,0,0,0,,0,101,101,269,1,perro,,,,
,,,,,,5f884590af7e0e2c123d766c,676192165fb32c2e1fb7aee6,67d17268a69b11269cf4429c,2025-03-12_11h39.39.112,Tarea de decisión léxica,2024.2.5,MacIntel,60.60606061,,,,,,,,,,,,,,,,,,,,,,,302.3411,303.4243,a,1,0.3994,1,303.4244,303.9243,,,,,,190,MAS,NOWORD,DIS,150,muvo,,la,,0.3994,,303.9244,303.9245,-0.092990542,0.067351436,0,0,0,,0,102,102,189,1,puño,,,,
,,,,,,5f884590af7e0e2c123d766c,676192165fb32c2e1fb7aee6,67d17268a69b11269cf4429c,2025-03-12_11h39.39.112,Tarea de decisión léxica,2024.2.5,MacIntel,60.60606061,,,,,,,,,,,,,,,,,,,,,,,303.9257,305.0237,l,1,0.4157,1,305.0238,305.524,,,,,,267,MAS,WORD,DIS,150,libro,,la,,0.4157,,305.5253,305.5263,-0.092990542,0.067351436,0,0,0,,0,103,103,266,1,figro,,,,
,,,,,,5f884590af7e0e2c123d766c,676192165fb32c2e1fb7aee6,67d17268a69b11269cf4429c,2025-03-12_11h39.39.112,Tarea de decisión léxica,2024.2.5,MacIntel,60.60606061,,,,,,,,,,,,,,,,,,,,,,,305.527,306.7069,l,1,0.4997,1,306.7069,307.2074,,,,,,257,FEM,WORD,DIS,150,amiga,,el,,0.4997,,307.2075,307.2076,-0.092990542,0.067351436,0,0,0,,0,104,104,256,1,asama,,,,
,,,,,,5f884590af7e0e2c123d766c,676192165fb32c2e1fb7aee6,67d17268a69b11269cf4429c,2025-03-12_11h39.39.112,Tarea de decisión léxica,2024.2.5,MacIntel,60.60606061,,,,,,,,,,,,,,,,,,,,,,,307.2087,308.2572,l,1,0.3666,1,308.2573,308.7577,,,,,,193,FEM,WORD,AGR,150,loca,,la,,0.3666,,308.7578,308.7578,-0.092990542,0.067351436,0,0,0,,0,105,105,192,1,foda,,,,
,,,,,,5f884590af7e0e2c123d766c,676192165fb32c2e1fb7aee6,67d17268a69b11269cf4429c,2025-03-12_11h39.39.112,Tarea de decisión léxica,2024.2.5,MacIntel,60.60606061,,,,,,,,,,,,,,,,,,,,,,,308.7586,310.0076,a,1,0.5668,1,310.0077,310.5079,,,,,,300,FEM,NOWORD,AGR,150,bosga,,la,,0.5668,,310.5079,310.5081,-0.092990542,0.067351436,0,0,0,,0,106,106,299,1,bolsa,,,,
,,,,,,5f884590af7e0e2c123d766c,676192165fb32c2e1fb7aee6,67d17268a69b11269cf4429c,2025-03-12_11h39.39.112,Tarea de decisión léxica,2024.2.5,MacIntel,60.60606061,,,,,,,,,,,,,,,,,,,,,,,310.5091,311.9745,a,1,0.7825,1,311.9746,312.4746,,,,,,10,MAS,NOWORD,DIS,150,sibo,,la,,0.7825,,312.4765,312.4773,-0.092990542,0.067351436,0,0,0,,0,107,107,9,1,tipo,,,,
,,,,,,5f884590af7e0e2c123d766c,676192165fb32c2e1fb7aee6,67d17268a69b11269cf4429c,2025-03-12_11h39.39.112,Tarea de decisión léxica,2024.2.5,MacIntel,60.60606061,,,,,,,,,,,,,,,,,,,,,,,312.4779,313.5247,a,1,0.3661,1,313.5247,314.0238,,,,,,204,FEM,NOWORD,AGR,150,beja,,la,,0.3661,,314.0238,314.0239,-0.092990542,0.067351436,0,0,0,,0,108,108,203,1,leña,,,,
,,,,,,5f884590af7e0e2c123d766c,676192165fb32c2e1fb7aee6,67d17268a69b11269cf4429c,2025-03-12_11h39.39.112,Tarea de decisión léxica,2024.2.5,MacIntel,60.60606061,,,,,,,,,,,,,,,,,,,,,,,314.025,315.1738,l,0,0.4666,0,315.1744,315.674,,,,,,174,FEM,NOWORD,DIS,150,boma,,el,,0.4666,,315.674,315.6742,-0.092990542,0.067351436,0,0,0,,0,109,109,173,1,rosa,,,,
,,,,,,5f884590af7e0e2c123d766c,676192165fb32c2e1fb7aee6,67d17268a69b11269cf4429c,2025-03-12_11h39.39.112,Tarea de decisión léxica,2024.2.5,MacIntel,60.60606061,,,,,,,,,,,,,,,,,,,,,,,315.6749,316.874,l,1,0.5159,1,316.8745,317.3736,,,,,,77,MAS,WORD,AGR,150,loco,,el,,0.5159,,317.3737,317.3739,-0.092990542,0.067351436,0,0,0,,0,110,110,76,1,fodo,,,,
,,,,,,5f884590af7e0e2c123d766c,676192165fb32c2e1fb7aee6,67d17268a69b11269cf4429c,2025-03-12_11h39.39.112,Tarea de decisión léxica,2024.2.5,MacIntel,60.60606061,,,,,,,,,,,,,,,,,,,,,,,317.3749,318.5409,l,1,0.4829,1,318.541,319.0405,,,,,,109,MAS,WORD,AGR,150,rayo,,el,,0.4829,,319.0405,319.0407,-0.092990542,0.067351436,0,0,0,,0,111,111,108,1,suno,,,,
,,,,,,5f884590af7e0e2c123d766c,676192165fb32c2e1fb7aee6,67d17268a69b11269cf4429c,2025-03-12_11h39.39.112,Tarea de decisión léxica,2024.2.5,MacIntel,60.60606061,,,,,,,,,,,,,,,,,,,,,,,319.0418,320.1901,a,1,0.4661,1,320.1901,320.6908,,,,,,350,MAS,NOWORD,DIS,150,cosir,,la,,0.4661,,320.692,320.6929,-0.092990542,0.067351436,0,0,0,,0,112,112,349,1,color,,,,
,,,,,,5f884590af7e0e2c123d766c,676192165fb32c2e1fb7aee6,67d17268a69b11269cf4429c,2025-03-12_11h39.39.112,Tarea de decisión léxica,2024.2.5,MacIntel,60.60606061,,,,,,,,,,,,,,,,,,,,,,,320.6936,321.7576,a,0,0.3832,0,321.7584,322.257,,,,,,269,MAS,WORD,AGR,150,perro,,el,,0.3832,,322.2571,322.2571,-0.092990542,0.067351436,0,0,0,,0,113,113,268,1,mello,,,,
,,,,,,5f884590af7e0e2c123d766c,676192165fb32c2e1fb7aee6,67d17268a69b11269cf4429c,2025-03-12_11h39.39.112,Tarea de decisión léxica,2024.2.5,MacIntel,60.60606061,,,,,,,,,,,,,,,,,,,,,,,322.2582,323.4398,l,1,0.5001,1,323.4404,323.9408,,,,,,427,FEM,WORD,AGR,150,oreja,,la,,0.5001,,323.9408,323.941,-0.092990542,0.067351436,0,0,0,,0,114,114,426,1,oseva,,,,
,,,,,,5f884590af7e0e2c123d766c,676192165fb32c2e1fb7aee6,67d17268a69b11269cf4429c,2025-03-12_11h39.39.112,Tarea de decisión léxica,2024.2.5,MacIntel,60.60606061,,,,,,,,,,,,,,,,,,,,,,,323.9422,325.1076,l,1,0.4834,1,325.1076,325.6075,,,,,,233,FEM,WORD,AGR,150,lana,,la,,0.4834,,325.6076,325.6077,-0.092990542,0.067351436,0,0,0,,0,115,115,232,1,fasa,,,,
,,,,,,5f884590af7e0e2c123d766c,676192165fb32c2e1fb7aee6,67d17268a69b11269cf4429c,2025-03-12_11h39.39.112,Tarea de decisión léxica,2024.2.5,MacIntel,60.60606061,,,,,,,,,,,,,,,,,,,,,,,325.6086,326.807,a,1,0.5157,1,326.8071,327.3079,,,,,,110,MAS,NOWORD,DIS,150,suno,,la,,0.5157,,327.3079,327.3081,-0.092990542,0.067351436,0,0,0,,0,116,116,109,1,rayo,,,,
,,,,,,5f884590af7e0e2c123d766c,676192165fb32c2e1fb7aee6,67d17268a69b11269cf4429c,2025-03-12_11h39.39.112,Tarea de decisión léxica,2024.2.5,MacIntel,60.60606061,,,,,,,,,,,,,,,,,,,,,,,327.3093,328.5571,a,1,0.5663,1,328.5573,329.0573,,,,,,364,FEM,NOWORD,AGR,150,veida,,la,,0.5663,,329.0586,329.0597,-0.092990542,0.067351436,0,0,0,,0,117,117,363,1,deuda,,,,
,,,,,,5f884590af7e0e2c123d766c,676192165fb32c2e1fb7aee6,67d17268a69b11269cf4429c,2025-03-12_11h39.39.112,Tarea de decisión léxica,2024.2.5,MacIntel,60.60606061,,,,,,,,,,,,,,,,,,,,,,,329.0605,330.3574,a,1,0.6167,1,330.3575,330.8568,,,,,,342,MAS,NOWORD,DIS,150,daror,,la,,0.6167,,330.8569,330.857,-0.092990542,0.067351436,0,0,0,,0,118,118,341,1,valor,,,,
,,,,,,5f884590af7e0e2c123d766c,676192165fb32c2e1fb7aee6,67d17268a69b11269cf4429c,2025-03-12_11h39.39.112,Tarea de decisión léxica,2024.2.5,MacIntel,60.60606061,,,,,,,,,,,,,,,,,,,,,,,330.858,331.9403,a,1,0.4004,1,331.9403,332.4411,,,,,,66,MAS,NOWORD,DIS,150,nios,,la,,0.4004,,332.4411,332.4412,-0.092990542,0.067351436,0,0,0,,0,119,119,65,1,dios,,,,
,,,,,,5f884590af7e0e2c123d766c,676192165fb32c2e1fb7aee6,67d17268a69b11269cf4429c,2025-03-12_11h39.39.112,Tarea de decisión léxica,2024.2.5,MacIntel,60.60606061,,,,,,,,,,,,,,,,,,,,,,,332.4424,333.5398,a,1,0.4167,1,333.5399,334.0399,,,,,,288,FEM,NOWORD,AGR,150,fosta,,la,,0.4167,,334.04,334.0401,-0.092990542,0.067351436,0,0,0,,0,120,120,287,1,lista,,,,
,,,,,,5f884590af7e0e2c123d766c,676192165fb32c2e1fb7aee6,67d17268a69b11269cf4429c,2025-03-12_11h39.39.112,Tarea de decisión léxica,2024.2.5,MacIntel,60.60606061,,,,,,,,,,,,,,,,,,,,,,,334.0411,335.2736,l,1,0.5501,1,335.2737,335.7734,,,,,,107,MAS,WORD,DIS,150,saco,,la,,0.5501,,335.7735,335.7736,-0.092990542,0.067351436,0,0,0,,0,121,121,106,1,raot,,,,
,,,,,,5f884590af7e0e2c123d766c,676192165fb32c2e1fb7aee6,67d17268a69b11269cf4429c,2025-03-12_11h39.39.112,Tarea de decisión léxica,2024.2.5,MacIntel,60.60606061,,,,,,,,,,,,,,,,,,,,,,,335.7747,336.9403,a,1,0.4834,1,336.9404,337.4399,,,,,,128,MAS,NOWORD,AGR,150,itio,,el,,0.4834,,337.4411,337.4421,-0.092990542,0.067351436,0,0,0,,0,122,122,127,1,pico,,,,
,,,,,,5f884590af7e0e2c123d766c,676192165fb32c2e1fb7aee6,67d17268a69b11269cf4429c,2025-03-12_11h39.39.112,Tarea de decisión léxica,2024.2.5,MacIntel,60.60606061,,,,,,,,,,,,,,,,,,,,,,,337.4429,338.6569,l,1,0.5324,1,338.657,339.1567,,,,,,21,MAS,WORD,AGR,150,plan,,el,,0.5324,,339.1567,339.1569,-0.092990542,0.067351436,0,0,0,,0,123,123,20,1,blan,,,,
,,,,,,5f884590af7e0e2c123d766c,676192165fb32c2e1fb7aee6,67d17268a69b11269cf4429c,2025-03-12_11h39.39.112,Tarea de decisión léxica,2024.2.5,MacIntel,60.60606061,,,,,,,,,,,,,,,,,,,,,,,339.1581,340.3071,a,1,0.467,1,340.3071,340.8066,,,,,,280,FEM,NOWORD,AGR,150,grina,,la,,0.467,,340.8067,340.8068,-0.092990542,0.067351436,0,0,0,,0,124,124,279,1,prisa,,,,
,,,,,,5f884590af7e0e2c123d766c,676192165fb32c2e1fb7aee6,67d17268a69b11269cf4429c,2025-03-12_11h39.39.112,Tarea de decisión léxica,2024.2.5,MacIntel,60.60606061,,,,,,,,,,,,,,,,,,,,,,,340.8079,341.9399,l,1,0.4515,1,341.94,342.4402,,,,,,169,MAS,WORD,DIS,150,cubo,,la,,0.4515,,342.4403,342.4404,-0.092990542,0.067351436,0,0,0,,0,125,125,168,1,mibo,,,,
,,,,,,5f884590af7e0e2c123d766c,676192165fb32c2e1fb7aee6,67d17268a69b11269cf4429c,2025-03-12_11h39.39.112,Tarea de decisión léxica,2024.2.5,MacIntel,60.60606061,,,,,,,,,,,,,,,,,,,,,,,342.4414,343.5731,l,1,0.4498,1,343.5732,344.0732,,,,,,205,FEM,WORD,AGR,150,rana,,la,,0.4498,,344.0732,344.0734,-0.092990542,0.067351436,0,0,0,,0,126,126,204,1,bara,,,,
,,,,,,5f884590af7e0e2c123d766c,676192165fb32c2e1fb7aee6,67d17268a69b11269cf4429c,2025-03-12_11h39.39.112,Tarea de decisión léxica,2024.2.5,MacIntel,60.60606061,,,,,,,,,,,,,,,,,,,,,,,344.0745,345.2566,a,1,0.5174,1,345.2567,345.7568,,,,,,86,MAS,NOWORD,DIS,150,babo,,la,,0.5174,,345.7574,345.7578,-0.092990542,0.067351436,0,0,0,,0,127,127,85,1,lago,,,,
,,,,,,5f884590af7e0e2c123d766c,676192165fb32c2e1fb7aee6,67d17268a69b11269cf4429c,2025-03-12_11h39.39.112,Tarea de decisión léxica,2024.2.5,MacIntel,60.60606061,,,,,,,,,,,,,,,,,,,,,,,345.7583,346.8402,l,1,0.4003,1,346.8403,347.3408,,,,,,147,FEM,WORD,AGR,150,hoja,,la,,0.4003,,347.3409,347.341,-0.092990542,0.067351436,0,0,0,,0,128,128,146,1,pama,,,,
,,,,,,5f884590af7e0e2c123d766c,676192165fb32c2e1fb7aee6,67d17268a69b11269cf4429c,2025-03-12_11h39.39.112,Tarea de decisión léxica,2024.2.5,MacIntel,60.60606061,,,,,,,,,,,,,,,,,,,,,,,347.3418,348.5234,l,1,0.4993,1,348.5234,349.0243,,,,,,479,MAS,WORD,DIS,150,rumbo,,la,,0.4993,,349.0243,349.0245,-0.092990542,0.067351436,0,0,0,,0,129,129,478,1,rimpo,,,,
,,,,,,5f884590af7e0e2c123d766c,676192165fb32c2e1fb7aee6,67d17268a69b11269cf4429c,2025-03-12_11h39.39.112,Tarea de decisión léxica,2024.2.5,MacIntel,60.60606061,,,,,,,,,,,,,,,,,,,,,,,349.0256,350.3732,l,1,0.6667,1,350.3733,350.874,,,,,,471,FEM,WORD,DIS,150,grasa,,el,,0.6667,,350.874,350.8742,-0.092990542,0.067351436,0,0,0,,0,130,130,470,1,prana,,,,
,,,,,,5f884590af7e0e2c123d766c,676192165fb32c2e1fb7aee6,67d17268a69b11269cf4429c,2025-03-12_11h39.39.112,Tarea de decisión léxica,2024.2.5,MacIntel,60.60606061,,,,,,,,,,,,,,,,,,,,,,,350.8752,352.0063,a,1,0.4596,1,352.0064,352.5075,,,,,,116,FEM,NOWORD,AGR,150,haca,,la,,0.4596,,352.5087,352.5098,-0.092990542,0.067351436,0,0,0,,0,131,131,115,1,pata,,,,
,,,,,,5f884590af7e0e2c123d766c,676192165fb32c2e1fb7aee6,67d17268a69b11269cf4429c,2025-03-12_11h39.39.112,Tarea de decisión léxica,2024.2.5,MacIntel,60.60606061,,,,,,,,,,,,,,,,,,,,,,,352.5107,353.5897,l,1,0.3987,1,353.5898,354.0909,,,,,,47,MAS,WORD,AGR,150,club,,el,,0.3987,,354.0909,354.0911,-0.092990542,0.067351436,0,0,0,,0,132,132,46,1,chub,,,,
,,,,,,5f884590af7e0e2c123d766c,676192165fb32c2e1fb7aee6,67d17268a69b11269cf4429c,2025-03-12_11h39.39.112,Tarea de decisión léxica,2024.2.5,MacIntel,60.60606061,,,,,,,,,,,,,,,,,,,,,,,354.0923,355.1895,l,1,0.4161,1,355.1896,355.6895,,,,,,419,MAS,WORD,AGR,150,truco,,el,,0.4161,,355.6895,355.6896,-0.092990542,0.067351436,0,0,0,,0,133,133,418,1,chudo,,,,
,,,,,,5f884590af7e0e2c123d766c,676192165fb32c2e1fb7aee6,67d17268a69b11269cf4429c,2025-03-12_11h39.39.112,Tarea de decisión léxica,2024.2.5,MacIntel,60.60606061,,,,,,,,,,,,,,,,,,,,,,,355.6904,356.7402,l,1,0.3842,1,356.7402,357.2398,,,,,,281,MAS,WORD,DIS,150,cielo,,la,,0.3842,,357.2399,357.24,-0.092990542,0.067351436,0,0,0,,0,134,134,280,1,cauro,,,,
,,,,,,5f884590af7e0e2c123d766c,676192165fb32c2e1fb7aee6,67d17268a69b11269cf4429c,2025-03-12_11h39.39.112,Tarea de decisión léxica,2024.2.5,MacIntel,60.60606061,,,,,,,,,,,,,,,,,,,,,,,357.2409,358.34,l,1,0.4254,1,358.34,358.8405,,,,,,465,FEM,WORD,AGR,150,aguja,,la,,0.4254,,358.8407,358.8407,-0.092990542,0.067351436,0,0,0,,0,135,135,464,1,asuba,,,,
,,,,,,5f884590af7e0e2c123d766c,676192165fb32c2e1fb7aee6,67d17268a69b11269cf4429c,2025-03-12_11h39.39.112,Tarea de decisión léxica,2024.2.5,MacIntel,60.60606061,,,,,,,,,,,,,,,,,,,,,,,358.8416,359.9228,a,1,0.4008,1,359.9229,360.4229,,,,,,158,MAS,NOWORD,DIS,150,hico,,la,,0.4008,,360.4242,360.4252,-0.092990542,0.067351436,0,0,0,,0,136,136,157,1,nido,,,,
,,,,,,5f884590af7e0e2c123d766c,676192165fb32c2e1fb7aee6,67d17268a69b11269cf4429c,2025-03-12_11h39.39.112,Tarea de decisión léxica,2024.2.5,MacIntel,60.60606061,,,,,,,,,,,,,,,,,,,,,,,360.4259,361.5902,a,1,0.4831,1,361.5902,362.0907,,,,,,32,FEM,NOWORD,AGR,150,bova,,la,,0.4831,,362.0908,362.091,-0.092990542,0.067351436,0,0,0,,0,137,137,31,1,ropa,,,,
,,,,,,5f884590af7e0e2c123d766c,676192165fb32c2e1fb7aee6,67d17268a69b11269cf4429c,2025-03-12_11h39.39.112,Tarea de decisión léxica,2024.2.5,MacIntel,60.60606061,,,,,,,,,,,,,,,,,,,,,,,362.092,363.3896,l,1,0.624,1,363.3896,363.8906,,,,,,83,FEM,WORD,AGR,150,bala,,la,,0.624,,363.8907,363.8909,-0.092990542,0.067351436,0,0,0,,0,138,138,82,1,taga,,,,
,,,,,,5f884590af7e0e2c123d766c,676192165fb32c2e1fb7aee6,67d17268a69b11269cf4429c,2025-03-12_11h39.39.112,Tarea de decisión léxica,2024.2.5,MacIntel,60.60606061,,,,,,,,,,,,,,,,,,,,,,,363.8921,365.1732,a,1,0.5993,1,365.1732,365.6729,,,,,,216,FEM,NOWORD,AGR,150,raua,,la,,0.5993,,365.673,365.673,-0.092990542,0.067351436,0,0,0,,0,139,139,215,1,raíz,,,,
,,,,,,5f884590af7e0e2c123d766c,676192165fb32c2e1fb7aee6,67d17268a69b11269cf4429c,2025-03-12_11h39.39.112,Tarea de decisión léxica,2024.2.5,MacIntel,60.60606061,,,,,,,,,,,,,,,,,,,,,,,365.6741,366.8559,l,1,0.4999,1,366.856,367.3565,,,,,,435,MAS,WORD,DIS,150,ritmo,,la,,0.4999,,367.3567,367.3568,-0.092990542,0.067351436,0,0,0,,0,140,140,434,1,ricno,,,,
,,,,,,5f884590af7e0e2c123d766c,676192165fb32c2e1fb7aee6,67d17268a69b11269cf4429c,2025-03-12_11h39.39.112,Tarea de decisión léxica,2024.2.5,MacIntel,60.60606061,,,,,,,,,,,,,,,,,,,,,,,367.3579,368.4393,l,0,0.3999,0,368.4399,368.9404,,,,,,180,MAS,NOWORD,AGR,150,sono,,el,,0.3999,,368.9416,368.9424,-0.092990542,0.067351436,0,0,0,,0,141,141,179,1,toro,,,,
,,,,,,5f884590af7e0e2c123d766c,676192165fb32c2e1fb7aee6,67d17268a69b11269cf4429c,2025-03-12_11h39.39.112,Tarea de decisión léxica,2024.2.5,MacIntel,60.60606061,,,,,,,,,,,,,,,,,,,,,,,368.9431,370.0569,a,0,0.4331,0,370.057,370.5567,,,,,,23,FEM,WORD,AGR,150,hija,,la,,0.4331,,370.5568,370.5569,-0.092990542,0.067351436,0,0,0,,0,142,142,22,1,giva,,,,
,,,,,,5f884590af7e0e2c123d766c,676192165fb32c2e1fb7aee6,67d17268a69b11269cf4429c,2025-03-12_11h39.39.112,Tarea de decisión léxica,2024.2.5,MacIntel,60.60606061,,,,,,,,,,,,,,,,,,,,,,,370.5578,371.7893,a,1,0.5429,1,371.7898,372.2896,,,,,,74,MAS,NOWORD,DIS,150,omio,,la,,0.5429,,372.2898,372.2899,-0.092990542,0.067351436,0,0,0,,0,143,143,73,1,odio,,,,
,,,,,,5f884590af7e0e2c123d766c,676192165fb32c2e1fb7aee6,67d17268a69b11269cf4429c,2025-03-12_11h39.39.112,Tarea de decisión léxica,2024.2.5,MacIntel,60.60606061,,,,,,,,,,,,,,,,,,,,,,,372.2909,373.3568,l,1,0.3834,1,373.3568,373.8561,,,,,,315,FEM,WORD,DIS,150,reina,,el,,0.3834,,373.8562,373.8563,-0.092990542,0.067351436,0,0,0,,0,144,144,314,1,riosa,,,,
,,,,,,5f884590af7e0e2c123d766c,676192165fb32c2e1fb7aee6,67d17268a69b11269cf4429c,2025-03-12_11h39.39.112,Tarea de decisión léxica,2024.2.5,MacIntel,60.60606061,,,,,,,,,,,,,,,,,,,,,,,373.8574,375.2063,a,1,0.666,1,375.2064,375.7068,,,,,,164,FEM,NOWORD,AGR,150,laga,,la,,0.666,,375.7068,375.707,-0.092990542,0.067351436,0,0,0,,0,145,145,163,1,fama,,,,
,,,,,,5f884590af7e0e2c123d766c,676192165fb32c2e1fb7aee6,67d17268a69b11269cf4429c,2025-03-12_11h39.39.112,Tarea de decisión léxica,2024.2.5,MacIntel,60.60606061,,,,,,,,,,,,,,,,,,,,,,,375.7082,377.1227,a,1,0.7329,1,377.1227,377.623,,,,,,358,FEM,NOWORD,DIS,150,gruba,,el,,0.7329,,377.6243,377.625,-0.092990542,0.067351436,0,0,0,,0,146,146,357,1,bruja,,,,
,,,,,,5f884590af7e0e2c123d766c,676192165fb32c2e1fb7aee6,67d17268a69b11269cf4429c,2025-03-12_11h39.39.112,Tarea de decisión léxica,2024.2.5,MacIntel,60.60606061,,,,,,,,,,,,,,,,,,,,,,,377.6257,378.8068,l,1,0.4997,1,378.8068,379.3071,,,,,,343,FEM,WORD,DIS,150,plata,,el,,0.4997,,379.3072,379.3073,-0.092990542,0.067351436,0,0,0,,0,147,147,342,1,trada,,,,
,,,,,,5f884590af7e0e2c123d766c,676192165fb32c2e1fb7aee6,67d17268a69b11269cf4429c,2025-03-12_11h39.39.112,Tarea de decisión léxica,2024.2.5,MacIntel,60.60606061,,,,,,,,,,,,,,,,,,,,,,,379.3086,380.6903,a,1,0.6998,1,380.6903,381.1895,,,,,,460,MAS,NOWORD,AGR,150,fraco,,el,,0.6998,,381.1896,381.1897,-0.092990542,0.067351436,0,0,0,,0,148,148,459,1,grado,,,,
,,,,,,5f884590af7e0e2c123d766c,676192165fb32c2e1fb7aee6,67d17268a69b11269cf4429c,2025-03-12_11h39.39.112,Tarea de decisión léxica,2024.2.5,MacIntel,60.60606061,,,,,,,,,,,,,,,,,,,,,,,381.1908,382.3395,l,1,0.4829,1,382.3396,382.8395,,,,,,219,FEM,WORD,AGR,150,pipa,,la,,0.4829,,382.8395,382.8396,-0.092990542,0.067351436,0,0,0,,0,149,149,218,1,miva,,,,
,,,,,,5f884590af7e0e2c123d766c,676192165fb32c2e1fb7aee6,67d17268a69b11269cf4429c,2025-03-12_11h39.39.112,Tarea de decisión léxica,2024.2.5,MacIntel,60.60606061,,,,,,,,,,,,,,,,,,,,,,,382.8405,383.9733,a,1,0.4498,1,383.9734,384.4727,,,,,,374,FEM,NOWORD,DIS,150,pogza,,el,,0.4498,,384.4728,384.4728,-0.092990542,0.067351436,0,0,0,,0,150,150,373,1,pizza,,,,
,,,,,,5f884590af7e0e2c123d766c,676192165fb32c2e1fb7aee6,67d17268a69b11269cf4429c,2025-03-12_11h39.39.112,Tarea de decisión léxica,2024.2.5,MacIntel,60.60606061,,,,,,,,,,,,,,,,,,,,,,,384.4737,385.6227,a,1,0.4678,1,385.6228,386.1225,,,,,,22,MAS,NOWORD,DIS,150,blan,,la,,0.4678,,386.1233,386.1241,-0.092990542,0.067351436,0,0,0,,0,151,151,21,1,plan,,,,
,,,,,,5f884590af7e0e2c123d766c,676192165fb32c2e1fb7aee6,67d17268a69b11269cf4429c,2025-03-12_11h39.39.112,Tarea de decisión léxica,2024.2.5,MacIntel,60.60606061,,,,,,,,,,,,,,,,,,,,,,,386.1247,387.2227,a,1,0.4168,1,387.2228,387.7228,,,,,,418,FEM,NOWORD,DIS,150,banja,,el,,0.4168,,387.7229,387.7231,-0.092990542,0.067351436,0,0,0,,0,152,152,417,1,barba,,,,
,,,,,,5f884590af7e0e2c123d766c,676192165fb32c2e1fb7aee6,67d17268a69b11269cf4429c,2025-03-12_11h39.39.112,Tarea de decisión léxica,2024.2.5,MacIntel,60.60606061,,,,,,,,,,,,,,,,,,,,,,,387.7242,388.8063,a,1,0.4003,1,388.8064,389.307,,,,,,146,MAS,NOWORD,DIS,150,nobo,,la,,0.4003,,389.3071,389.3073,-0.092990542,0.067351436,0,0,0,,0,153,153,145,1,león,,,,
,,,,,,5f884590af7e0e2c123d766c,676192165fb32c2e1fb7aee6,67d17268a69b11269cf4429c,2025-03-12_11h39.39.112,Tarea de decisión léxica,2024.2.5,MacIntel,60.60606061,,,,,,,,,,,,,,,,,,,,,,,389.3084,390.4393,l,0,0.4502,0,390.4402,390.9403,,,,,,400,MAS,NOWORD,AGR,150,serro,,el,,0.4502,,390.9404,390.9405,-0.092990542,0.067351436,0,0,0,,0,154,154,399,1,techo,,,,
,,,,,,5f884590af7e0e2c123d766c,676192165fb32c2e1fb7aee6,67d17268a69b11269cf4429c,2025-03-12_11h39.39.112,Tarea de decisión léxica,2024.2.5,MacIntel,60.60606061,,,,,,,,,,,,,,,,,,,,,,,390.9417,392.1889,l,1,0.5668,1,392.1894,392.6893,,,,,,79,FEM,WORD,AGR,150,piel,,la,,0.5668,,392.6906,392.6916,-0.092990542,0.067351436,0,0,0,,0,155,155,78,1,ciel,,,,
,,,,,,5f884590af7e0e2c123d766c,676192165fb32c2e1fb7aee6,67d17268a69b11269cf4429c,2025-03-12_11h39.39.112,Tarea de decisión léxica,2024.2.5,MacIntel,60.60606061,,,,,,,,,,,,,,,,,,,,,,,392.6922,393.9735,a,1,0.5974,1,393.9735,394.4726,,,,,,188,MAS,NOWORD,AGR,150,suto,,el,,0.5974,,394.4727,394.4728,-0.092990542,0.067351436,0,0,0,,0,156,156,187,1,mito,,,,
,,,,,,5f884590af7e0e2c123d766c,676192165fb32c2e1fb7aee6,67d17268a69b11269cf4429c,2025-03-12_11h39.39.112,Tarea de decisión léxica,2024.2.5,MacIntel,60.60606061,,,,,,,,,,,,,,,,,,,,,,,394.474,395.6723,l,1,0.5167,1,395.6723,396.1728,,,,,,373,FEM,WORD,DIS,150,pizza,,el,,0.5167,,396.173,396.173,-0.092990542,0.067351436,0,0,0,,0,157,157,372,1,pogza,,,,
,,,,,,5f884590af7e0e2c123d766c,676192165fb32c2e1fb7aee6,67d17268a69b11269cf4429c,2025-03-12_11h39.39.112,Tarea de decisión léxica,2024.2.5,MacIntel,60.60606061,,,,,,,,,,,,,,,,,,,,,,,396.1739,397.3894,l,1,0.5336,1,397.3895,397.8892,,,,,,155,FEM,WORD,DIS,150,fuga,,el,,0.5336,,397.8893,397.8893,-0.092990542,0.067351436,0,0,0,,0,158,158,154,1,luma,,,,
,,,,,,5f884590af7e0e2c123d766c,676192165fb32c2e1fb7aee6,67d17268a69b11269cf4429c,2025-03-12_11h39.39.112,Tarea de decisión léxica,2024.2.5,MacIntel,60.60606061,,,,,,,,,,,,,,,,,,,,,,,397.8904,399.0895,a,1,0.5171,1,399.0896,399.589,,,,,,54,FEM,NOWORD,DIS,150,rora,,el,,0.5171,,399.5891,399.5892,-0.092990542,0.067351436,0,0,0,,0,159,159,53,1,boda,,,,
,,,,,,5f884590af7e0e2c123d766c,676192165fb32c2e1fb7aee6,67d17268a69b11269cf4429c,2025-03-12_11h39.39.112,Tarea de decisión léxica,2024.2.5,MacIntel,60.60606061,,,,,,,,,,,,,,,,,,,,,,,399.5903,400.6391,l,1,0.3667,1,400.6392,401.1391,,,,,,457,MAS,WORD,AGR,150,plato,,el,,0.3667,,401.1403,488.3721,-0.092990542,0.067351436,0,0,0,space,0,160,160,456,1,glaco,87.209,,,
,,,,,,5f884590af7e0e2c123d766c,676192165fb32c2e1fb7aee6,67d17268a69b11269cf4429c,2025-03-12_11h39.39.112,Tarea de decisión léxica,2024.2.5,MacIntel,60.60606061,,,,,,,,,,,,,,,,,,,,,,,488.3728,489.7217,a,0,0.6667,0,489.7222,490.2213,,,,,,349,MAS,WORD,AGR,150,color,,el,,0.6667,,490.2213,490.2215,-0.092990542,0.067351436,0,0,0,,0,161,161,348,1,cosir,,,,
,,,,,,5f884590af7e0e2c123d766c,676192165fb32c2e1fb7aee6,67d17268a69b11269cf4429c,2025-03-12_11h39.39.112,Tarea de decisión léxica,2024.2.5,MacIntel,60.60606061,,,,,,,,,,,,,,,,,,,,,,,490.2224,491.2542,l,1,0.3508,1,491.2547,491.7547,,,,,,243,MAS,WORD,DIS,150,amigo,,la,,0.3508,,491.7548,491.755,-0.092990542,0.067351436,0,0,0,,0,162,162,242,1,asamo,,,,
,,,,,,5f884590af7e0e2c123d766c,676192165fb32c2e1fb7aee6,67d17268a69b11269cf4429c,2025-03-12_11h39.39.112,Tarea de decisión léxica,2024.2.5,MacIntel,60.60606061,,,,,,,,,,,,,,,,,,,,,,,491.7561,492.7544,l,0,0.3166,0,492.755,493.2553,,,,,,36,MAS,NOWORD,AGR,150,meno,,el,,0.3166,,493.2554,493.2555,-0.092990542,0.067351436,0,0,0,,0,163,163,35,1,pelo,,,,
,,,,,,5f884590af7e0e2c123d766c,676192165fb32c2e1fb7aee6,67d17268a69b11269cf4429c,2025-03-12_11h39.39.112,Tarea de decisión léxica,2024.2.5,MacIntel,60.60606061,,,,,,,,,,,,,,,,,,,,,,,493.2564,494.4379,a,1,0.5095,1,494.4385,494.9377,,,,,,322,MAS,NOWORD,DIS,150,rarco,,la,,0.5095,,494.9377,494.9378,-0.092990542,0.067351436,0,0,0,,0,164,164,321,1,banco,,,,
,,,,,,5f884590af7e0e2c123d766c,676192165fb32c2e1fb7aee6,67d17268a69b11269cf4429c,2025-03-12_11h39.39.112,Tarea de decisión léxica,2024.2.5,MacIntel,60.60606061,,,,,,,,,,,,,,,,,,,,,,,494.939,495.9714,l,1,0.3669,1,495.9716,496.4723,,,,,,85,MAS,WORD,DIS,150,lago,,la,,0.3669,,496.4736,496.4747,-0.092990542,0.067351436,0,0,0,,0,165,165,84,1,babo,,,,
,,,,,,5f884590af7e0e2c123d766c,676192165fb32c2e1fb7aee6,67d17268a69b11269cf4429c,2025-03-12_11h39.39.112,Tarea de decisión léxica,2024.2.5,MacIntel,60.60606061,,,,,,,,,,,,,,,,,,,,,,,496.4755,497.7545,l,1,0.5993,1,497.7545,498.2549,,,,,,223,FEM,WORD,AGR,150,cera,,la,,0.5993,,498.255,498.2551,-0.092990542,0.067351436,0,0,0,,0,166,166,222,1,cira,,,,
,,,,,,5f884590af7e0e2c123d766c,676192165fb32c2e1fb7aee6,67d17268a69b11269cf4429c,2025-03-12_11h39.39.112,Tarea de decisión léxica,2024.2.5,MacIntel,60.60606061,,,,,,,,,,,,,,,,,,,,,,,498.256,499.2708,l,1,0.3341,1,499.2709,499.771,,,,,,401,MAS,WORD,DIS,150,polvo,,la,,0.3341,,499.7711,499.7712,-0.092990542,0.067351436,0,0,0,,0,167,167,400,1,pirvo,,,,
,,,,,,5f884590af7e0e2c123d766c,676192165fb32c2e1fb7aee6,67d17268a69b11269cf4429c,2025-03-12_11h39.39.112,Tarea de decisión léxica,2024.2.5,MacIntel,60.60606061,,,,,,,,,,,,,,,,,,,,,,,499.7722,500.888,a,1,0.4328,1,500.8881,501.3877,,,,,,318,FEM,NOWORD,DIS,150,plaad,,el,,0.4328,,501.3877,501.3878,-0.092990542,0.067351436,0,0,0,,0,168,168,317,1,playa,,,,
,,,,,,5f884590af7e0e2c123d766c,676192165fb32c2e1fb7aee6,67d17268a69b11269cf4429c,2025-03-12_11h39.39.112,Tarea de decisión léxica,2024.2.5,MacIntel,60.60606061,,,,,,,,,,,,,,,,,,,,,,,501.3886,502.438,l,1,0.3821,1,502.4382,502.9377,,,,,,351,MAS,WORD,DIS,150,vuelo,,la,,0.3821,,502.9377,502.9379,-0.092990542,0.067351436,0,0,0,,0,169,169,350,1,duepo,,,,
,,,,,,5f884590af7e0e2c123d766c,676192165fb32c2e1fb7aee6,67d17268a69b11269cf4429c,2025-03-12_11h39.39.112,Tarea de decisión léxica,2024.2.5,MacIntel,60.60606061,,,,,,,,,,,,,,,,,,,,,,,502.939,504.1221,a,1,0.4903,1,504.1223,504.6211,,,,,,88,MAS,NOWORD,AGR,150,damo,,el,,0.4903,,504.6224,504.6233,-0.092990542,0.067351436,0,0,0,,0,170,170,87,1,vaso,,,,
,,,,,,5f884590af7e0e2c123d766c,676192165fb32c2e1fb7aee6,67d17268a69b11269cf4429c,2025-03-12_11h39.39.112,Tarea de decisión léxica,2024.2.5,MacIntel,60.60606061,,,,,,,,,,,,,,,,,,,,,,,504.6239,505.6377,l,1,0.334,1,505.6378,506.1377,,,,,,409,MAS,WORD,AGR,150,carro,,el,,0.334,,506.1377,506.1378,-0.092990542,0.067351436,0,0,0,,0,171,171,408,1,pafro,,,,
,,,,,,5f884590af7e0e2c123d766c,676192165fb32c2e1fb7aee6,67d17268a69b11269cf4429c,2025-03-12_11h39.39.112,Tarea de decisión léxica,2024.2.5,MacIntel,60.60606061,,,,,,,,,,,,,,,,,,,,,,,506.1389,507.2382,a,1,0.4169,1,507.2383,507.7379,,,,,,348,FEM,NOWORD,AGR,150,mueza,,la,,0.4169,,507.7379,507.738,-0.092990542,0.067351436,0,0,0,,0,172,172,347,1,pieza,,,,
,,,,,,5f884590af7e0e2c123d766c,676192165fb32c2e1fb7aee6,67d17268a69b11269cf4429c,2025-03-12_11h39.39.112,Tarea de decisión léxica,2024.2.5,MacIntel,60.60606061,,,,,,,,,,,,,,,,,,,,,,,507.7389,508.8048,l,1,0.384,1,508.8048,509.3043,,,,,,57,MAS,WORD,AGR,150,dedo,,el,,0.384,,509.3043,509.3044,-0.092990542,0.067351436,0,0,0,,0,173,173,56,1,heco,,,,
,,,,,,5f884590af7e0e2c123d766c,676192165fb32c2e1fb7aee6,67d17268a69b11269cf4429c,2025-03-12_11h39.39.112,Tarea de decisión léxica,2024.2.5,MacIntel,60.60606061,,,,,,,,,,,,,,,,,,,,,,,509.3055,510.4879,a,1,0.5002,1,510.4881,510.9884,,,,,,420,MAS,NOWORD,AGR,150,chudo,,el,,0.5002,,510.9884,510.9886,-0.092990542,0.067351436,0,0,0,,0,174,174,419,1,truco,,,,
,,,,,,5f884590af7e0e2c123d766c,676192165fb32c2e1fb7aee6,67d17268a69b11269cf4429c,2025-03-12_11h39.39.112,Tarea de decisión léxica,2024.2.5,MacIntel,60.60606061,,,,,,,,,,,,,,,,,,,,,,,510.9897,512.2713,l,0,0.5999,0,512.272,512.7708,,,,,,206,FEM,NOWORD,DIS,150,bara,,el,,0.5999,,512.7716,512.7723,-0.092990542,0.067351436,0,0,0,,0,175,175,205,1,rana,,,,
,,,,,,5f884590af7e0e2c123d766c,676192165fb32c2e1fb7aee6,67d17268a69b11269cf4429c,2025-03-12_11h39.39.112,Tarea de decisión léxica,2024.2.5,MacIntel,60.60606061,,,,,,,,,,,,,,,,,,,,,,,512.7729,513.9206,l,1,0.4658,1,513.9211,514.4212,,,,,,443,MAS,WORD,AGR,150,salón,,el,,0.4658,,514.4213,514.4216,-0.092990542,0.067351436,0,0,0,,0,176,176,442,1,taron,,,,
,,,,,,5f884590af7e0e2c123d766c,676192165fb32c2e1fb7aee6,67d17268a69b11269cf4429c,2025-03-12_11h39.39.112,Tarea de decisión léxica,2024.2.5,MacIntel,60.60606061,,,,,,,,,,,,,,,,,,,,,,,514.4226,515.6878,a,1,0.5903,1,515.6878,516.1875,,,,,,76,MAS,NOWORD,AGR,150,ocer,,el,,0.5903,,516.1876,516.1876,-0.092990542,0.067351436,0,0,0,,0,177,177,75,1,olor,,,,
,,,,,,5f884590af7e0e2c123d766c,676192165fb32c2e1fb7aee6,67d17268a69b11269cf4429c,2025-03-12_11h39.39.112,Tarea de decisión léxica,2024.2.5,MacIntel,60.60606061,,,,,,,,,,,,,,,,,,,,,,,516.1887,517.4711,a,1,0.6002,1,517.4712,517.9707,,,,,,56,MAS,NOWORD,AGR,150,jado,,el,,0.6002,,517.9708,517.9709,-0.092990542,0.067351436,0,0,0,,0,178,178,55,1,gato,,,,
,,,,,,5f884590af7e0e2c123d766c,676192165fb32c2e1fb7aee6,67d17268a69b11269cf4429c,2025-03-12_11h39.39.112,Tarea de decisión léxica,2024.2.5,MacIntel,60.60606061,,,,,,,,,,,,,,,,,,,,,,,517.9716,519.1207,a,0,0.4664,0,519.1211,519.6208,,,,,,3,FEM,WORD,DIS,150,vida,,el,,0.4664,,519.6219,519.6229,-0.092990542,0.067351436,0,0,0,,0,179,179,2,1,dica,,,,
,,,,,,5f884590af7e0e2c123d766c,676192165fb32c2e1fb7aee6,67d17268a69b11269cf4429c,2025-03-12_11h39.39.112,Tarea de decisión léxica,2024.2.5,MacIntel,60.60606061,,,,,,,,,,,,,,,,,,,,,,,519.6235,520.7041,l,1,0.4003,1,520.7049,521.2064,,,,,,367,MAS,WORD,DIS,150,reloj,,la,,0.4003,,521.2065,521.2067,-0.092990542,0.067351436,0,0,0,,0,180,180,366,1,rerob,,,,
,,,,,,5f884590af7e0e2c123d766c,676192165fb32c2e1fb7aee6,67d17268a69b11269cf4429c,2025-03-12_11h39.39.112,Tarea de decisión léxica,2024.2.5,MacIntel,60.60606061,,,,,,,,,,,,,,,,,,,,,,,521.2075,522.3874,a,1,0.5074,1,522.3875,522.8879,,,,,,68,FEM,NOWORD,AGR,150,gesa,,la,,0.5074,,522.888,522.8882,-0.092990542,0.067351436,0,0,0,,0,181,181,67,1,nena,,,,
,,,,,,5f884590af7e0e2c123d766c,676192165fb32c2e1fb7aee6,67d17268a69b11269cf4429c,2025-03-12_11h39.39.112,Tarea de decisión léxica,2024.2.5,MacIntel,60.60606061,,,,,,,,,,,,,,,,,,,,,,,522.8892,523.9542,l,1,0.3902,1,523.9543,524.4543,,,,,,357,FEM,WORD,AGR,150,bruja,,la,,0.3902,,524.4544,524.4545,-0.092990542,0.067351436,0,0,0,,0,182,182,356,1,gruba,,,,
,,,,,,5f884590af7e0e2c123d766c,676192165fb32c2e1fb7aee6,67d17268a69b11269cf4429c,2025-03-12_11h39.39.112,Tarea de decisión léxica,2024.2.5,MacIntel,60.60606061,,,,,,,,,,,,,,,,,,,,,,,524.4556,525.5375,a,1,0.3997,1,525.5376,526.0374,,,,,,304,MAS,NOWORD,AGR,150,lanco,,el,,0.3997,,526.0374,526.0376,-0.092990542,0.067351436,0,0,0,,0,183,183,303,1,barco,,,,
,,,,,,5f884590af7e0e2c123d766c,676192165fb32c2e1fb7aee6,67d17268a69b11269cf4429c,2025-03-12_11h39.39.112,Tarea de decisión léxica,2024.2.5,MacIntel,60.60606061,,,,,,,,,,,,,,,,,,,,,,,526.0386,527.3207,a,1,0.6076,1,527.3207,527.8211,,,,,,370,MAS,NOWORD,DIS,150,rioco,,la,,0.6076,,527.8223,527.8232,-0.092990542,0.067351436,0,0,0,,0,184,184,369,1,ruido,,,,
,,,,,,5f884590af7e0e2c123d766c,676192165fb32c2e1fb7aee6,67d17268a69b11269cf4429c,2025-03-12_11h39.39.112,Tarea de decisión léxica,2024.2.5,MacIntel,60.60606061,,,,,,,,,,,,,,,,,,,,,,,527.8239,528.9543,l,1,0.4501,1,528.9544,529.4544,,,,,,327,MAS,WORD,AGR,150,fondo,,el,,0.4501,,529.4546,529.4546,-0.092990542,0.067351436,0,0,0,,0,185,185,326,1,lendo,,,,
,,,,,,5f884590af7e0e2c123d766c,676192165fb32c2e1fb7aee6,67d17268a69b11269cf4429c,2025-03-12_11h39.39.112,Tarea de decisión léxica,2024.2.5,MacIntel,60.60606061,,,,,,,,,,,,,,,,,,,,,,,529.4555,530.5037,l,1,0.367,1,530.5038,531.0039,,,,,,17,FEM,WORD,DIS,150,mamá,,el,,0.367,,531.004,531.0042,-0.092990542,0.067351436,0,0,0,,0,186,186,16,1,paba,,,,
,,,,,,5f884590af7e0e2c123d766c,676192165fb32c2e1fb7aee6,67d17268a69b11269cf4429c,2025-03-12_11h39.39.112,Tarea de decisión léxica,2024.2.5,MacIntel,60.60606061,,,,,,,,,,,,,,,,,,,,,,,531.0051,532.1881,l,1,0.5,1,532.1881,532.6872,,,,,,131,FEM,WORD,DIS,150,mina,,el,,0.5,,532.6872,532.6874,-0.092990542,0.067351436,0,0,0,,0,187,187,130,1,fada,,,,
,,,,,,5f884590af7e0e2c123d766c,676192165fb32c2e1fb7aee6,67d17268a69b11269cf4429c,2025-03-12_11h39.39.112,Tarea de decisión léxica,2024.2.5,MacIntel,60.60606061,,,,,,,,,,,,,,,,,,,,,,,532.6884,533.9368,a,1,0.5658,1,533.9368,534.4373,,,,,,474,FEM,NOWORD,DIS,150,felia,,el,,0.5658,,534.4375,534.4375,-0.092990542,0.067351436,0,0,0,,0,188,188,473,1,feria,,,,
,,,,,,5f884590af7e0e2c123d766c,676192165fb32c2e1fb7aee6,67d17268a69b11269cf4429c,2025-03-12_11h39.39.112,Tarea de decisión léxica,2024.2.5,MacIntel,60.60606061,,,,,,,,,,,,,,,,,,,,,,,534.4386,535.6039,a,1,0.4826,1,535.6039,536.1047,,,,,,464,FEM,NOWORD,AGR,150,matla,,la,,0.4826,,536.1059,536.1066,-0.092990542,0.067351436,0,0,0,,0,189,189,463,1,cabra,,,,
,,,,,,5f884590af7e0e2c123d766c,676192165fb32c2e1fb7aee6,67d17268a69b11269cf4429c,2025-03-12_11h39.39.112,Tarea de decisión léxica,2024.2.5,MacIntel,60.60606061,,,,,,,,,,,,,,,,,,,,,,,536.1074,537.3036,l,1,0.5172,1,537.3037,537.8037,,,,,,473,FEM,WORD,AGR,150,feria,,la,,0.5172,,537.8037,537.8038,-0.092990542,0.067351436,0,0,0,,0,190,190,472,1,felia,,,,
,,,,,,5f884590af7e0e2c123d766c,676192165fb32c2e1fb7aee6,67d17268a69b11269cf4429c,2025-03-12_11h39.39.112,Tarea de decisión léxica,2024.2.5,MacIntel,60.60606061,,,,,,,,,,,,,,,,,,,,,,,537.8047,538.9372,a,1,0.4501,1,538.9372,539.4379,,,,,,338,MAS,NOWORD,DIS,150,nuejo,,la,,0.4501,,539.438,539.4381,-0.092990542,0.067351436,0,0,0,,0,191,191,337,1,huevo,,,,
,,,,,,5f884590af7e0e2c123d766c,676192165fb32c2e1fb7aee6,67d17268a69b11269cf4429c,2025-03-12_11h39.39.112,Tarea de decisión léxica,2024.2.5,MacIntel,60.60606061,,,,,,,,,,,,,,,,,,,,,,,539.439,540.5881,l,1,0.4662,1,540.5881,541.0879,,,,,,433,MAS,WORD,AGR,150,disco,,el,,0.4662,,541.088,541.0882,-0.092990542,0.067351436,0,0,0,,0,192,192,432,1,durco,,,,
,,,,,,5f884590af7e0e2c123d766c,676192165fb32c2e1fb7aee6,67d17268a69b11269cf4429c,2025-03-12_11h39.39.112,Tarea de decisión léxica,2024.2.5,MacIntel,60.60606061,,,,,,,,,,,,,,,,,,,,,,,541.089,542.1706,l,1,0.3994,1,542.1707,542.6705,,,,,,141,FEM,WORD,DIS,150,cruz,,el,,0.3994,,542.6706,542.6707,-0.092990542,0.067351436,0,0,0,,0,193,193,140,1,sina,,,,
,,,,,,5f884590af7e0e2c123d766c,676192165fb32c2e1fb7aee6,67d17268a69b11269cf4429c,2025-03-12_11h39.39.112,Tarea de decisión léxica,2024.2.5,MacIntel,60.60606061,,,,,,,,,,,,,,,,,,,,,,,542.6716,543.821,a,1,0.4749,1,543.821,544.3204,,,,,,294,MAS,NOWORD,DIS,150,cacso,,la,,0.4749,,544.3214,544.3222,-0.092990542,0.067351436,0,0,0,,0,194,194,293,1,campo,,,,
,,,,,,5f884590af7e0e2c123d766c,676192165fb32c2e1fb7aee6,67d17268a69b11269cf4429c,2025-03-12_11h39.39.112,Tarea de decisión léxica,2024.2.5,MacIntel,60.60606061,,,,,,,,,,,,,,,,,,,,,,,544.3229,545.5038,a,1,0.5004,1,545.5038,546.0036,,,,,,274,FEM,NOWORD,DIS,150,frosa,,el,,0.5004,,546.0036,546.0037,-0.092990542,0.067351436,0,0,0,,0,195,195,273,1,broma,,,,
,,,,,,5f884590af7e0e2c123d766c,676192165fb32c2e1fb7aee6,67d17268a69b11269cf4429c,2025-03-12_11h39.39.112,Tarea de decisión léxica,2024.2.5,MacIntel,60.60606061,,,,,,,,,,,,,,,,,,,,,,,546.0043,547.1534,a,1,0.4665,1,547.1534,547.6545,,,,,,384,FEM,NOWORD,AGR,150,brame,,la,,0.4665,,547.6545,547.6547,-0.092990542,0.067351436,0,0,0,,0,196,196,383,1,frase,,,,
,,,,,,5f884590af7e0e2c123d766c,676192165fb32c2e1fb7aee6,67d17268a69b11269cf4429c,2025-03-12_11h39.39.112,Tarea de decisión léxica,2024.2.5,MacIntel,60.60606061,,,,,,,,,,,,,,,,,,,,,,,547.6556,548.9038,a,1,0.567,1,548.9039,549.4047,,,,,,58,MAS,NOWORD,DIS,150,heco,,la,,0.567,,549.4048,549.405,-0.092990542,0.067351436,0,0,0,,0,197,197,57,1,dedo,,,,
,,,,,,5f884590af7e0e2c123d766c,676192165fb32c2e1fb7aee6,67d17268a69b11269cf4429c,2025-03-12_11h39.39.112,Tarea de decisión léxica,2024.2.5,MacIntel,60.60606061,,,,,,,,,,,,,,,,,,,,,,,549.406,550.4878,a,1,0.4065,1,550.4878,550.9871,,,,,,170,MAS,NOWORD,DIS,150,mibo,,la,,0.4065,,550.9872,550.9873,-0.092990542,0.067351436,0,0,0,,0,198,198,169,1,cubo,,,,
,,,,,,5f884590af7e0e2c123d766c,676192165fb32c2e1fb7aee6,67d17268a69b11269cf4429c,2025-03-12_11h39.39.112,Tarea de decisión léxica,2024.2.5,MacIntel,60.60606061,,,,,,,,,,,,,,,,,,,,,,,550.988,552.1706,a,1,0.5004,1,552.1707,552.6707,,,,,,470,MAS,NOWORD,DIS,150,matia,,la,,0.5004,,552.6717,552.6725,-0.092990542,0.067351436,0,0,0,,0,199,199,469,1,patio,,,,
,,,,,,5f884590af7e0e2c123d766c,676192165fb32c2e1fb7aee6,67d17268a69b11269cf4429c,2025-03-12_11h39.39.112,Tarea de decisión léxica,2024.2.5,MacIntel,60.60606061,,,,,,,,,,,,,,,,,,,,,,,552.6732,554.0037,l,1,0.6493,1,554.0038,554.5037,,,,,,41,FEM,WORD,AGR,150,nave,,la,,0.6493,,554.5038,554.504,-0.092990542,0.067351436,0,0,0,,0,200,200,40,1,haje,,,,
,,,,,,5f884590af7e0e2c123d766c,676192165fb32c2e1fb7aee6,67d17268a69b11269cf4429c,2025-03-12_11h39.39.112,Tarea de decisión léxica,2024.2.5,MacIntel,60.60606061,,,,,,,,,,,,,,,,,,,,,,,554.5048,555.5709,l,1,0.4006,1,555.571,556.07,,,,,,35,MAS,WORD,DIS,150,pelo,,la,,0.4006,,556.07,556.07,-0.092990542,0.067351436,0,0,0,,0,201,201,34,1,meno,,,,
,,,,,,5f884590af7e0e2c123d766c,676192165fb32c2e1fb7aee6,67d17268a69b11269cf4429c,2025-03-12_11h39.39.112,Tarea de decisión léxica,2024.2.5,MacIntel,60.60606061,,,,,,,,,,,,,,,,,,,,,,,556.0706,557.121,a,1,0.3681,1,557.121,557.6201,,,,,,24,FEM,NOWORD,AGR,150,giva,,la,,0.3681,,557.6202,557.6203,-0.092990542,0.067351436,0,0,0,,0,202,202,23,1,hija,,,,
,,,,,,5f884590af7e0e2c123d766c,676192165fb32c2e1fb7aee6,67d17268a69b11269cf4429c,2025-03-12_11h39.39.112,Tarea de decisión léxica,2024.2.5,MacIntel,60.60606061,,,,,,,,,,,,,,,,,,,,,,,557.6211,558.8537,l,1,0.5666,1,558.8537,559.3539,,,,,,93,FEM,WORD,AGR,150,bola,,la,,0.5666,,559.3545,559.355,-0.092990542,0.067351436,0,0,0,,0,203,203,92,1,rona,,,,
,,,,,,5f884590af7e0e2c123d766c,676192165fb32c2e1fb7aee6,67d17268a69b11269cf4429c,2025-03-12_11h39.39.112,Tarea de decisión léxica,2024.2.5,MacIntel,60.60606061,,,,,,,,,,,,,,,,,,,,,,,559.3554,560.47,a,1,0.4327,1,560.47,560.9702,,,,,,290,FEM,NOWORD,DIS,150,bumpa,,el,,0.4327,,560.9702,560.9703,-0.092990542,0.067351436,0,0,0,,0,204,204,289,1,bomba,,,,
,,,,,,5f884590af7e0e2c123d766c,676192165fb32c2e1fb7aee6,67d17268a69b11269cf4429c,2025-03-12_11h39.39.112,Tarea de decisión léxica,2024.2.5,MacIntel,60.60606061,,,,,,,,,,,,,,,,,,,,,,,560.9711,562.2198,l,1,0.5837,1,562.2198,562.7213,,,,,,65,MAS,WORD,DIS,150,dios,,la,,0.5837,,562.7213,562.7215,-0.092990542,0.067351436,0,0,0,,0,205,205,64,1,nios,,,,
,,,,,,5f884590af7e0e2c123d766c,676192165fb32c2e1fb7aee6,67d17268a69b11269cf4429c,2025-03-12_11h39.39.112,Tarea de decisión léxica,2024.2.5,MacIntel,60.60606061,,,,,,,,,,,,,,,,,,,,,,,562.7227,563.8709,a,1,0.4666,1,563.8709,564.3698,,,,,,4,FEM,NOWORD,AGR,150,dica,,la,,0.4666,,564.3699,564.37,-0.092990542,0.067351436,0,0,0,,0,206,206,3,1,vida,,,,
,,,,,,5f884590af7e0e2c123d766c,676192165fb32c2e1fb7aee6,67d17268a69b11269cf4429c,2025-03-12_11h39.39.112,Tarea de decisión léxica,2024.2.5,MacIntel,60.60606061,,,,,,,,,,,,,,,,,,,,,,,564.3705,565.5877,l,1,0.5333,1,565.5879,566.0873,,,,,,329,MAS,WORD,DIS,150,hueso,,la,,0.5333,,566.0873,566.0874,-0.092990542,0.067351436,0,0,0,,0,207,207,328,1,nueno,,,,
,,,,,,5f884590af7e0e2c123d766c,676192165fb32c2e1fb7aee6,67d17268a69b11269cf4429c,2025-03-12_11h39.39.112,Tarea de decisión léxica,2024.2.5,MacIntel,60.60606061,,,,,,,,,,,,,,,,,,,,,,,566.0884,567.1202,l,1,0.3495,1,567.1203,567.6206,,,,,,7,MAS,WORD,AGR,150,hijo,,el,,0.3495,,567.6218,567.6225,-0.092990542,0.067351436,0,0,0,,0,208,208,6,1,nivo,,,,
,,,,,,5f884590af7e0e2c123d766c,676192165fb32c2e1fb7aee6,67d17268a69b11269cf4429c,2025-03-12_11h39.39.112,Tarea de decisión léxica,2024.2.5,MacIntel,60.60606061,,,,,,,,,,,,,,,,,,,,,,,567.6233,568.7701,a,1,0.466,1,568.7702,569.271,,,,,,178,MAS,NOWORD,DIS,150,bito,,la,,0.466,,569.271,569.2711,-0.092990542,0.067351436,0,0,0,,0,209,209,177,1,reto,,,,
,,,,,,5f884590af7e0e2c123d766c,676192165fb32c2e1fb7aee6,67d17268a69b11269cf4429c,2025-03-12_11h39.39.112,Tarea de decisión léxica,2024.2.5,MacIntel,60.60606061,,,,,,,,,,,,,,,,,,,,,,,569.2719,570.4698,a,1,0.5164,1,570.4699,570.9702,,,,,,192,FEM,NOWORD,AGR,150,bila,,la,,0.5164,,570.9702,570.9704,-0.092990542,0.067351436,0,0,0,,0,210,210,191,1,pila,,,,
,,,,,,5f884590af7e0e2c123d766c,676192165fb32c2e1fb7aee6,67d17268a69b11269cf4429c,2025-03-12_11h39.39.112,Tarea de decisión léxica,2024.2.5,MacIntel,60.60606061,,,,,,,,,,,,,,,,,,,,,,,570.9714,572.2199,a,1,0.567,1,572.2199,572.72,,,,,,284,MAS,NOWORD,AGR,150,tuevo,,el,,0.567,,572.7201,572.7202,-0.092990542,0.067351436,0,0,0,,0,211,211,283,1,sueño,,,,
,,,,,,5f884590af7e0e2c123d766c,676192165fb32c2e1fb7aee6,67d17268a69b11269cf4429c,2025-03-12_11h39.39.112,Tarea de decisión léxica,2024.2.5,MacIntel,60.60606061,,,,,,,,,,,,,,,,,,,,,,,572.7209,573.9704,l,1,0.5662,1,573.9705,574.4716,,,,,,301,FEM,WORD,DIS,150,banda,,el,,0.5662,,574.4716,574.4716,-0.092990542,0.067351436,0,0,0,,0,212,212,300,1,ranga,,,,
,,,,,,5f884590af7e0e2c123d766c,676192165fb32c2e1fb7aee6,67d17268a69b11269cf4429c,2025-03-12_11h39.39.112,Tarea de decisión léxica,2024.2.5,MacIntel,60.60606061,,,,,,,,,,,,,,,,,,,,,,,574.4722,575.5702,a,1,0.4154,1,575.5703,576.0699,,,,,,78,MAS,NOWORD,DIS,150,fodo,,la,,0.4154,,576.0711,576.0719,-0.092990542,0.067351436,0,0,0,,0,213,213,77,1,loco,,,,
,,,,,,5f884590af7e0e2c123d766c,676192165fb32c2e1fb7aee6,67d17268a69b11269cf4429c,2025-03-12_11h39.39.112,Tarea de decisión léxica,2024.2.5,MacIntel,60.60606061,,,,,,,,,,,,,,,,,,,,,,,576.0726,577.4863,l,1,0.7417,1,577.4864,577.9867,,,,,,463,FEM,WORD,DIS,150,cabra,,el,,0.7417,,577.9867,577.9868,-0.092990542,0.067351436,0,0,0,,0,214,214,462,1,matla,,,,
,,,,,,5f884590af7e0e2c123d766c,676192165fb32c2e1fb7aee6,67d17268a69b11269cf4429c,2025-03-12_11h39.39.112,Tarea de decisión léxica,2024.2.5,MacIntel,60.60606061,,,,,,,,,,,,,,,,,,,,,,,577.9879,579.0698,a,1,0.4002,1,579.0698,579.5706,,,,,,268,MAS,NOWORD,AGR,150,figro,,el,,0.4002,,579.5707,579.5709,-0.092990542,0.067351436,0,0,0,,0,215,215,267,1,libro,,,,
,,,,,,5f884590af7e0e2c123d766c,676192165fb32c2e1fb7aee6,67d17268a69b11269cf4429c,2025-03-12_11h39.39.112,Tarea de decisión léxica,2024.2.5,MacIntel,60.60606061,,,,,,,,,,,,,,,,,,,,,,,579.572,580.6702,a,1,0.4174,1,580.6702,581.1701,,,,,,214,FEM,NOWORD,DIS,150,bana,,el,,0.4174,,581.1701,581.1703,-0.092990542,0.067351436,0,0,0,,0,216,216,213,1,rama,,,,
,,,,,,5f884590af7e0e2c123d766c,676192165fb32c2e1fb7aee6,67d17268a69b11269cf4429c,2025-03-12_11h39.39.112,Tarea de decisión léxica,2024.2.5,MacIntel,60.60606061,,,,,,,,,,,,,,,,,,,,,,,581.171,582.2374,l,1,0.3804,1,582.2375,582.7376,,,,,,245,FEM,WORD,AGR,150,madre,,la,,0.3804,,582.7377,582.7379,-0.092990542,0.067351436,0,0,0,,0,217,217,244,1,pafle,,,,
,,,,,,5f884590af7e0e2c123d766c,676192165fb32c2e1fb7aee6,67d17268a69b11269cf4429c,2025-03-12_11h39.39.112,Tarea de decisión léxica,2024.2.5,MacIntel,60.60606061,,,,,,,,,,,,,,,,,,,,,,,582.739,583.8201,l,1,0.4005,1,583.8202,584.3201,,,,,,437,FEM,WORD,AGR,150,plaza,,la,,0.4005,,584.3206,584.321,-0.092990542,0.067351436,0,0,0,,0,218,218,436,1,glava,,,,
,,,,,,5f884590af7e0e2c123d766c,676192165fb32c2e1fb7aee6,67d17268a69b11269cf4429c,2025-03-12_11h39.39.112,Tarea de decisión léxica,2024.2.5,MacIntel,60.60606061,,,,,,,,,,,,,,,,,,,,,,,584.3214,585.3697,l,1,0.3665,1,585.3698,585.87,,,,,,53,FEM,WORD,DIS,150,boda,,el,,0.3665,,585.8701,585.8702,-0.092990542,0.067351436,0,0,0,,0,219,219,52,1,rora,,,,
,,,,,,5f884590af7e0e2c123d766c,676192165fb32c2e1fb7aee6,67d17268a69b11269cf4429c,2025-03-12_11h39.39.112,Tarea de decisión léxica,2024.2.5,MacIntel,60.60606061,,,,,,,,,,,,,,,,,,,,,,,585.871,586.9696,l,1,0.417,1,586.9697,587.4709,,,,,,149,MAS,WORD,DIS,150,cabo,,la,,0.417,,587.4711,587.4712,-0.092990542,0.067351436,0,0,0,,0,220,220,148,1,pafo,,,,
,,,,,,5f884590af7e0e2c123d766c,676192165fb32c2e1fb7aee6,67d17268a69b11269cf4429c,2025-03-12_11h39.39.112,Tarea de decisión léxica,2024.2.5,MacIntel,60.60606061,,,,,,,,,,,,,,,,,,,,,,,587.4723,588.4863,l,1,0.3332,1,588.4863,588.9865,,,,,,385,FEM,WORD,AGR,150,letra,,la,,0.3332,,588.9866,588.9867,-0.092990542,0.067351436,0,0,0,,0,221,221,384,1,febra,,,,
,,,,,,5f884590af7e0e2c123d766c,676192165fb32c2e1fb7aee6,67d17268a69b11269cf4429c,2025-03-12_11h39.39.112,Tarea de decisión léxica,2024.2.5,MacIntel,60.60606061,,,,,,,,,,,,,,,,,,,,,,,588.9879,590.0365,l,1,0.3657,1,590.0366,590.5369,,,,,,247,FEM,WORD,DIS,150,chica,,el,,0.3657,,590.537,590.5371,-0.092990542,0.067351436,0,0,0,,0,222,222,246,1,trida,,,,
,,,,,,5f884590af7e0e2c123d766c,676192165fb32c2e1fb7aee6,67d17268a69b11269cf4429c,2025-03-12_11h39.39.112,Tarea de decisión léxica,2024.2.5,MacIntel,60.60606061,,,,,,,,,,,,,,,,,,,,,,,590.5381,591.653,a,1,0.4252,1,591.653,592.1543,,,,,,458,MAS,NOWORD,DIS,150,glaco,,la,,0.4252,,592.1555,592.1565,-0.092990542,0.067351436,0,0,0,,0,223,223,457,1,plato,,,,
,,,,,,5f884590af7e0e2c123d766c,676192165fb32c2e1fb7aee6,67d17268a69b11269cf4429c,2025-03-12_11h39.39.112,Tarea de decisión léxica,2024.2.5,MacIntel,60.60606061,,,,,,,,,,,,,,,,,,,,,,,592.1572,593.2198,a,1,0.3832,1,593.2199,593.7198,,,,,,34,FEM,NOWORD,DIS,150,loda,,el,,0.3832,,593.7199,593.72,-0.092990542,0.067351436,0,0,0,,0,224,224,33,1,boca,,,,
,,,,,,5f884590af7e0e2c123d766c,676192165fb32c2e1fb7aee6,67d17268a69b11269cf4429c,2025-03-12_11h39.39.112,Tarea de decisión léxica,2024.2.5,MacIntel,60.60606061,,,,,,,,,,,,,,,,,,,,,,,593.7212,595.1029,a,1,0.7003,1,595.1029,595.6039,,,,,,336,FEM,NOWORD,AGR,150,pesta,,la,,0.7003,,595.6039,595.604,-0.092990542,0.067351436,0,0,0,,0,225,225,335,1,costa,,,,
,,,,,,5f884590af7e0e2c123d766c,676192165fb32c2e1fb7aee6,67d17268a69b11269cf4429c,2025-03-12_11h39.39.112,Tarea de decisión léxica,2024.2.5,MacIntel,60.60606061,,,,,,,,,,,,,,,,,,,,,,,595.6045,596.7031,l,1,0.4128,1,596.7031,597.2038,,,,,,289,FEM,WORD,AGR,150,bomba,,la,,0.4128,,597.2038,597.204,-0.092990542,0.067351436,0,0,0,,0,226,226,288,1,bumpa,,,,
,,,,,,5f884590af7e0e2c123d766c,676192165fb32c2e1fb7aee6,67d17268a69b11269cf4429c,2025-03-12_11h39.39.112,Tarea de decisión léxica,2024.2.5,MacIntel,60.60606061,,,,,,,,,,,,,,,,,,,,,,,597.2049,598.303,a,1,0.416,1,598.3032,598.8034,,,,,,196,FEM,NOWORD,AGR,150,sira,,la,,0.416,,598.8044,598.8053,-0.092990542,0.067351436,0,0,0,,0,227,227,195,1,tela,,,,
,,,,,,5f884590af7e0e2c123d766c,676192165fb32c2e1fb7aee6,67d17268a69b11269cf4429c,2025-03-12_11h39.39.112,Tarea de decisión léxica,2024.2.5,MacIntel,60.60606061,,,,,,,,,,,,,,,,,,,,,,,598.8061,600.1537,l,1,0.6668,1,600.1538,600.6531,,,,,,171,MAS,WORD,AGR,150,hilo,,el,,0.6668,,600.6531,600.6533,-0.092990542,0.067351436,0,0,0,,0,228,228,170,1,niro,,,,
,,,,,,5f884590af7e0e2c123d766c,676192165fb32c2e1fb7aee6,67d17268a69b11269cf4429c,2025-03-12_11h39.39.112,Tarea de decisión léxica,2024.2.5,MacIntel,60.60606061,,,,,,,,,,,,,,,,,,,,,,,600.6542,601.7859,a,1,0.4503,1,601.786,602.2864,,,,,,430,FEM,NOWORD,DIS,150,tenta,,el,,0.4503,,602.2865,602.2866,-0.092990542,0.067351436,0,0,0,,0,229,229,429,1,tarta,,,,
,,,,,,5f884590af7e0e2c123d766c,676192165fb32c2e1fb7aee6,67d17268a69b11269cf4429c,2025-03-12_11h39.39.112,Tarea de decisión léxica,2024.2.5,MacIntel,60.60606061,,,,,,,,,,,,,,,,,,,,,,,602.2876,603.5036,a,1,0.5336,1,603.5037,604.003,,,,,,306,MAS,NOWORD,DIS,150,adiol,,la,,0.5336,,604.0031,604.0032,-0.092990542,0.067351436,0,0,0,,0,230,230,305,1,avión,,,,
,,,,,,5f884590af7e0e2c123d766c,676192165fb32c2e1fb7aee6,67d17268a69b11269cf4429c,2025-03-12_11h39.39.112,Tarea de decisión léxica,2024.2.5,MacIntel,60.60606061,,,,,,,,,,,,,,,,,,,,,,,604.0041,605.0198,l,1,0.3343,1,605.0198,605.5208,,,,,,305,MAS,WORD,AGR,150,avión,,el,,0.3343,,605.5209,605.521,-0.092990542,0.067351436,0,0,0,,0,231,231,304,1,adiol,,,,
,,,,,,5f884590af7e0e2c123d766c,676192165fb32c2e1fb7aee6,67d17268a69b11269cf4429c,2025-03-12_11h39.39.112,Tarea de decisión léxica,2024.2.5,MacIntel,60.60606061,,,,,,,,,,,,,,,,,,,,,,,605.5222,606.686,l,1,0.4929,1,606.6861,607.1873,,,,,,285,MAS,WORD,DIS,150,error,,la,,0.4929,,607.1886,607.1894,-0.092990542,0.067351436,0,0,0,,0,232,232,284,1,echor,,,,
,,,,,,5f884590af7e0e2c123d766c,676192165fb32c2e1fb7aee6,67d17268a69b11269cf4429c,2025-03-12_11h39.39.112,Tarea de decisión léxica,2024.2.5,MacIntel,60.60606061,,,,,,,,,,,,,,,,,,,,,,,607.19,608.4028,a,1,0.5338,1,608.4029,608.9032,,,,,,258,FEM,NOWORD,DIS,150,asama,,el,,0.5338,,608.9033,608.9034,-0.092990542,0.067351436,0,0,0,,0,233,233,257,1,amiga,,,,
,,,,,,5f884590af7e0e2c123d766c,676192165fb32c2e1fb7aee6,67d17268a69b11269cf4429c,2025-03-12_11h39.39.112,Tarea de decisión léxica,2024.2.5,MacIntel,60.60606061,,,,,,,,,,,,,,,,,,,,,,,608.9046,610.2698,a,1,0.6827,1,610.2699,610.77,,,,,,60,FEM,NOWORD,AGR,150,tafa,,la,,0.6827,,610.7701,610.7701,-0.092990542,0.067351436,0,0,0,,0,234,234,59,1,sala,,,,
,,,,,,5f884590af7e0e2c123d766c,676192165fb32c2e1fb7aee6,67d17268a69b11269cf4429c,2025-03-12_11h39.39.112,Tarea de decisión léxica,2024.2.5,MacIntel,60.60606061,,,,,,,,,,,,,,,,,,,,,,,610.7712,612.4362,l,1,0.9838,1,612.4363,612.9363,,,,,,191,FEM,WORD,DIS,150,pila,,el,,0.9838,,612.9363,612.9365,-0.092990542,0.067351436,0,0,0,,0,235,235,190,1,bila,,,,
,,,,,,5f884590af7e0e2c123d766c,676192165fb32c2e1fb7aee6,67d17268a69b11269cf4429c,2025-03-12_11h39.39.112,Tarea de decisión léxica,2024.2.5,MacIntel,60.60606061,,,,,,,,,,,,,,,,,,,,,,,612.9376,614.0528,a,1,0.4328,1,614.0528,614.5649,,,,,,266,FEM,NOWORD,DIS,150,pitat,,el,,0.4328,,614.5649,614.5649,-0.092990542,0.067351436,0,0,0,,0,236,236,265,1,mitad,,,,
,,,,,,5f884590af7e0e2c123d766c,676192165fb32c2e1fb7aee6,67d17268a69b11269cf4429c,2025-03-12_11h39.39.112,Tarea de decisión léxica,2024.2.5,MacIntel,60.60606061,,,,,,,,,,,,,,,,,,,,,,,614.5655,615.7533,l,1,0.5153,1,615.7533,616.2537,,,,,,393,FEM,WORD,AGR,150,aldea,,la,,0.5153,,616.255,616.2559,-0.092990542,0.067351436,0,0,0,,0,237,237,392,1,ashea,,,,
,,,,,,5f884590af7e0e2c123d766c,676192165fb32c2e1fb7aee6,67d17268a69b11269cf4429c,2025-03-12_11h39.39.112,Tarea de decisión léxica,2024.2.5,MacIntel,60.60606061,,,,,,,,,,,,,,,,,,,,,,,616.2566,617.3532,l,1,0.417,1,617.3533,617.8538,,,,,,333,FEM,WORD,DIS,150,tarea,,el,,0.417,,617.8538,617.854,-0.092990542,0.067351436,0,0,0,,0,238,238,332,1,dalea,,,,
,,,,,,5f884590af7e0e2c123d766c,676192165fb32c2e1fb7aee6,67d17268a69b11269cf4429c,2025-03-12_11h39.39.112,Tarea de decisión léxica,2024.2.5,MacIntel,60.60606061,,,,,,,,,,,,,,,,,,,,,,,617.8551,618.9202,l,1,0.3837,1,618.9204,619.4194,,,,,,331,MAS,WORD,AGR,150,éxito,,el,,0.3837,,619.4194,619.4195,-0.092990542,0.067351436,0,0,0,,0,239,239,330,1,erato,,,,
,,,,,,5f884590af7e0e2c123d766c,676192165fb32c2e1fb7aee6,67d17268a69b11269cf4429c,2025-03-12_11h39.39.112,Tarea de decisión léxica,2024.2.5,MacIntel,60.60606061,,,,,,,,,,,,,,,,,,,,,,,619.4208,620.769,a,1,0.667,1,620.7691,621.2694,,,,,,52,FEM,NOWORD,AGR,150,mava,,la,,0.667,,621.2695,621.2697,-0.092990542,0.067351436,0,0,0,,0,240,240,51,1,caja,,,,
,,,,,,5f884590af7e0e2c123d766c,676192165fb32c2e1fb7aee6,67d17268a69b11269cf4429c,2025-03-12_11h39.39.112,Tarea de decisión léxica,2024.2.5,MacIntel,60.60606061,,,,,,,,,,,,,,,,,,,,,,,621.2706,622.4028,l,1,0.4508,1,622.4028,622.9028,,,,,,55,MAS,WORD,DIS,150,gato,,la,,0.4508,,622.9029,622.903,-0.092990542,0.067351436,0,0,0,,0,241,241,54,1,jado,,,,
,,,,,,5f884590af7e0e2c123d766c,676192165fb32c2e1fb7aee6,67d17268a69b11269cf4429c,2025-03-12_11h39.39.112,Tarea de decisión léxica,2024.2.5,MacIntel,60.60606061,,,,,,,,,,,,,,,,,,,,,,,622.9041,624.0693,a,1,0.4918,1,624.0694,624.5699,,,,,,106,FEM,NOWORD,DIS,150,vina,,el,,0.4918,,624.571,624.5718,-0.092990542,0.067351436,0,0,0,,0,242,242,105,1,sopa,,,,
,,,,,,5f884590af7e0e2c123d766c,676192165fb32c2e1fb7aee6,67d17268a69b11269cf4429c,2025-03-12_11h39.39.112,Tarea de decisión léxica,2024.2.5,MacIntel,60.60606061,,,,,,,,,,,,,,,,,,,,,,,624.5725,625.7192,a,1,0.4671,1,625.7192,626.2199,,,,,,412,MAS,NOWORD,AGR,150,mobro,,el,,0.4671,,626.22,626.2201,-0.092990542,0.067351436,0,0,0,,0,243,243,411,1,pollo,,,,
,,,,,,5f884590af7e0e2c123d766c,676192165fb32c2e1fb7aee6,67d17268a69b11269cf4429c,2025-03-12_11h39.39.112,Tarea de decisión léxica,2024.2.5,MacIntel,60.60606061,,,,,,,,,,,,,,,,,,,,,,,626.2212,627.3359,a,0,0.4337,0,627.3365,627.8368,,,,,,261,MAS,WORD,AGR,150,sitio,,el,,0.4337,,627.8368,627.837,-0.092990542,0.067351436,0,0,0,,0,244,244,260,1,titio,,,,
,,,,,,5f884590af7e0e2c123d766c,676192165fb32c2e1fb7aee6,67d17268a69b11269cf4429c,2025-03-12_11h39.39.112,Tarea de decisión léxica,2024.2.5,MacIntel,60.60606061,,,,,,,,,,,,,,,,,,,,,,,627.8379,628.8863,l,1,0.3669,1,628.8867,629.3871,,,,,,297,MAS,WORD,AGR,150,grupo,,el,,0.3669,,629.3871,629.3873,-0.092990542,0.067351436,0,0,0,,0,245,245,296,1,brubo,,,,
,,,,,,5f884590af7e0e2c123d766c,676192165fb32c2e1fb7aee6,67d17268a69b11269cf4429c,2025-03-12_11h39.39.112,Tarea de decisión léxica,2024.2.5,MacIntel,60.60606061,,,,,,,,,,,,,,,,,,,,,,,629.3884,630.553,a,1,0.484,1,630.553,631.0524,,,,,,442,FEM,NOWORD,DIS,150,telza,,el,,0.484,,631.0524,631.0526,-0.092990542,0.067351436,0,0,0,,0,246,246,441,1,selva,,,,
,,,,,,5f884590af7e0e2c123d766c,676192165fb32c2e1fb7aee6,67d17268a69b11269cf4429c,2025-03-12_11h39.39.112,Tarea de decisión léxica,2024.2.5,MacIntel,60.60606061,,,,,,,,,,,,,,,,,,,,,,,631.0533,632.2694,a,1,0.5496,1,632.2695,632.7701,,,,,,134,FEM,NOWORD,DIS,150,vesa,,el,,0.5496,,632.7711,632.7719,-0.092990542,0.067351436,0,0,0,,0,247,247,133,1,vaca,,,,
,,,,,,5f884590af7e0e2c123d766c,676192165fb32c2e1fb7aee6,67d17268a69b11269cf4429c,2025-03-12_11h39.39.112,Tarea de decisión léxica,2024.2.5,MacIntel,60.60606061,,,,,,,,,,,,,,,,,,,,,,,632.7725,633.9357,l,1,0.4842,1,633.9357,634.4361,,,,,,321,MAS,WORD,DIS,150,banco,,la,,0.4842,,634.4361,634.4362,-0.092990542,0.067351436,0,0,0,,0,248,248,320,1,rarco,,,,
,,,,,,5f884590af7e0e2c123d766c,676192165fb32c2e1fb7aee6,67d17268a69b11269cf4429c,2025-03-12_11h39.39.112,Tarea de decisión léxica,2024.2.5,MacIntel,60.60606061,,,,,,,,,,,,,,,,,,,,,,,634.4372,635.5367,l,1,0.4157,1,635.5367,636.0358,,,,,,37,MAS,WORD,AGR,150,rato,,el,,0.4157,,636.0359,636.036,-0.092990542,0.067351436,0,0,0,,0,249,249,36,1,gaco,,,,
,,,,,,5f884590af7e0e2c123d766c,676192165fb32c2e1fb7aee6,67d17268a69b11269cf4429c,2025-03-12_11h39.39.112,Tarea de decisión léxica,2024.2.5,MacIntel,60.60606061,,,,,,,,,,,,,,,,,,,,,,,636.0371,637.1193,a,1,0.4006,1,637.1193,637.6191,,,,,,444,MAS,NOWORD,AGR,150,taron,,el,,0.4006,,637.6192,637.6193,-0.092990542,0.067351436,0,0,0,,0,250,250,443,1,salón,,,,
,,,,,,5f884590af7e0e2c123d766c,676192165fb32c2e1fb7aee6,67d17268a69b11269cf4429c,2025-03-12_11h39.39.112,Tarea de decisión léxica,2024.2.5,MacIntel,60.60606061,,,,,,,,,,,,,,,,,,,,,,,637.6204,639.0193,l,1,0.7168,1,639.0195,639.5192,,,,,,235,FEM,WORD,DIS,150,grúa,,el,,0.7168,,639.5204,639.5214,-0.092990542,0.067351436,0,0,0,,0,251,251,234,1,tria,,,,
,,,,,,5f884590af7e0e2c123d766c,676192165fb32c2e1fb7aee6,67d17268a69b11269cf4429c,2025-03-12_11h39.39.112,Tarea de decisión léxica,2024.2.5,MacIntel,60.60606061,,,,,,,,,,,,,,,,,,,,,,,639.522,640.5691,l,1,0.3677,1,640.5692,641.0691,,,,,,19,MAS,WORD,DIS,150,niño,,la,,0.3677,,641.0691,641.0692,-0.092990542,0.067351436,0,0,0,,0,252,252,18,1,himo,,,,
,,,,,,5f884590af7e0e2c123d766c,676192165fb32c2e1fb7aee6,67d17268a69b11269cf4429c,2025-03-12_11h39.39.112,Tarea de decisión léxica,2024.2.5,MacIntel,60.60606061,,,,,,,,,,,,,,,,,,,,,,,641.0704,642.1196,l,1,0.3658,1,642.1197,642.6192,,,,,,335,FEM,WORD,AGR,150,costa,,la,,0.3658,,642.6192,642.6193,-0.092990542,0.067351436,0,0,0,,0,253,253,334,1,pesta,,,,
,,,,,,5f884590af7e0e2c123d766c,676192165fb32c2e1fb7aee6,67d17268a69b11269cf4429c,2025-03-12_11h39.39.112,Tarea de decisión léxica,2024.2.5,MacIntel,60.60606061,,,,,,,,,,,,,,,,,,,,,,,642.6204,643.7028,l,1,0.3997,1,643.7029,644.2032,,,,,,159,MAS,WORD,DIS,150,giro,,la,,0.3997,,644.2032,644.2034,-0.092990542,0.067351436,0,0,0,,0,254,254,158,1,bilo,,,,
,,,,,,5f884590af7e0e2c123d766c,676192165fb32c2e1fb7aee6,67d17268a69b11269cf4429c,2025-03-12_11h39.39.112,Tarea de decisión léxica,2024.2.5,MacIntel,60.60606061,,,,,,,,,,,,,,,,,,,,,,,644.2046,645.2524,l,1,0.3759,1,645.2524,645.7524,,,,,,449,FEM,WORD,DIS,150,pluma,,el,,0.3759,,645.7524,645.7525,-0.092990542,0.067351436,0,0,0,,0,255,255,448,1,crusa,,,,
,,,,,,5f884590af7e0e2c123d766c,676192165fb32c2e1fb7aee6,67d17268a69b11269cf4429c,2025-03-12_11h39.39.112,Tarea de decisión léxica,2024.2.5,MacIntel,60.60606061,,,,,,,,,,,,,,,,,,,,,,,645.753,646.8194,l,1,0.3826,1,646.8194,647.3192,,,,,,399,MAS,WORD,AGR,150,techo,,el,,0.3826,,647.3203,647.3211,-0.092990542,0.067351436,0,0,0,,0,256,256,398,1,serro,,,,
,,,,,,5f884590af7e0e2c123d766c,676192165fb32c2e1fb7aee6,67d17268a69b11269cf4429c,2025-03-12_11h39.39.112,Tarea de decisión léxica,2024.2.5,MacIntel,60.60606061,,,,,,,,,,,,,,,,,,,,,,,647.3218,648.4028,a,1,0.4062,1,648.4028,648.9025,,,,,,396,FEM,NOWORD,AGR,150,paeda,,la,,0.4062,,648.9026,648.9027,-0.092990542,0.067351436,0,0,0,,0,257,257,395,1,caída,,,,
,,,,,,5f884590af7e0e2c123d766c,676192165fb32c2e1fb7aee6,67d17268a69b11269cf4429c,2025-03-12_11h39.39.112,Tarea de decisión léxica,2024.2.5,MacIntel,60.60606061,,,,,,,,,,,,,,,,,,,,,,,648.9039,649.9864,l,1,0.4163,1,649.9865,650.4883,,,,,,405,FEM,WORD,AGR,150,barra,,la,,0.4163,,650.4884,650.4885,-0.092990542,0.067351436,0,0,0,,0,258,258,404,1,rarra,,,,
,,,,,,5f884590af7e0e2c123d766c,676192165fb32c2e1fb7aee6,67d17268a69b11269cf4429c,2025-03-12_11h39.39.112,Tarea de decisión léxica,2024.2.5,MacIntel,60.60606061,,,,,,,,,,,,,,,,,,,,,,,650.4893,651.7356,l,1,0.5659,1,651.7358,652.2358,,,,,,415,FEM,WORD,DIS,150,jaula,,el,,0.5659,,652.2358,652.236,-0.092990542,0.067351436,0,0,0,,0,259,259,414,1,juira,,,,
,,,,,,5f884590af7e0e2c123d766c,676192165fb32c2e1fb7aee6,67d17268a69b11269cf4429c,2025-03-12_11h39.39.112,Tarea de decisión léxica,2024.2.5,MacIntel,60.60606061,,,,,,,,,,,,,,,,,,,,,,,652.237,653.3693,l,1,0.4494,1,653.3694,653.8695,,,,,,75,MAS,WORD,DIS,150,olor,,la,,0.4494,,653.8696,653.8697,-0.092990542,0.067351436,0,0,0,,0,260,260,74,1,ocer,,,,
,,,,,,5f884590af7e0e2c123d766c,676192165fb32c2e1fb7aee6,67d17268a69b11269cf4429c,2025-03-12_11h39.39.112,Tarea de decisión léxica,2024.2.5,MacIntel,60.60606061,,,,,,,,,,,,,,,,,,,,,,,653.8709,654.8859,l,1,0.3328,1,654.886,655.3855,,,,,,325,FEM,WORD,AGR,150,magia,,la,,0.3328,,655.3866,655.3874,-0.092990542,0.067351436,0,0,0,,0,261,261,324,1,mabia,,,,
