counterbalancing_condition,consent_prescreening.block_1/declare_consent,consent_prescreening.block_1/age_years,consent_prescreening.block_1/gender,consent_prescreening.block_1/language_disorder,consent_prescreening.block_1/first_language,PROLIFIC_PID,STUDY_ID,SESSION_ID,date,expName,psychopyVersion,OS,frameRate,check_prescreening_answers.started,check_prescreening_answers.stopped,Instructions.started,Instructions.stopped,instr_done_keyboard.keys,instr_done_keyboard.rt,instr_done_keyboard.duration,instr_done_touch.x,instr_done_touch.y,instr_done_touch.leftButton,instr_done_touch.midButton,instr_done_touch.rightButton,instruction_pages.thisRepN,instruction_pages.thisTrialN,instruction_pages.thisN,instruction_pages.thisIndex,instruction_pages.ran,pageN,phase,instruct_text,has_image,instruct_image,presentTrial.started,presentTrial.stopped,response.keys,response.corr,rt,corr,feedback.started,feedback.stopped,practice_trials.thisRepN,practice_trials.thisTrialN,practice_trials.thisN,practice_trials.thisIndex,practice_trials.ran,TrialID,Gender,StimulusType,Condition,PrimeDuration,Prime,len,Flanker,corrAns,response.rt,response.duration,Break.started,Break.stopped,break_done_touch.x,break_done_touch.y,break_done_touch.leftButton,break_done_touch.midButton,break_done_touch.rightButton,break_done_keyboard.keys,experiment_trials.thisRepN,experiment_trials.thisTrialN,experiment_trials.thisN,experiment_trials.thisIndex,experiment_trials.ran,PairedWith,break_done_keyboard.rt,break_done_keyboard.duration,End.started,End.stopped
2,"[""over_18"",""comfortable"",""read_info"",""consent_given""]",26,F,"[""none""]","[""spanish""]",5f92ec3c26384e040f06e2db,676192165fb32c2e1fb7aee6,67d1557c4791717475144be7,2025-03-12_10h36.34.492,Tarea de decisión léxica,2024.2.5,Win32,60.24096386,,,,,,,,,,,,,,,,,,,,,,,,,,,,,,,,,,,,,,,,,,,,,,,,,,,,,,,,,,,,,,,,
,,,,,,5f92ec3c26384e040f06e2db,676192165fb32c2e1fb7aee6,67d1557c4791717475144be7,2025-03-12_10h36.34.492,Tarea de decisión léxica,2024.2.5,Win32,60.24096386,36.8243,36.8244,,,,,,,,,,,,,,,,,,,,,,,,,,,,,,,,,,,,,,,,,,,,,,,,,,,,,,,,,,,,,,
,,,,,,5f92ec3c26384e040f06e2db,676192165fb32c2e1fb7aee6,67d1557c4791717475144be7,2025-03-12_10h36.34.492,Tarea de decisión léxica,2024.2.5,Win32,60.24096386,,,36.8508,47.4093,space,10.5177,,0.510416667,0.046875,0,0,0,0,0,0,0,1,1,instructions,"INSTRUCCIONES
Va a realizar una prueba de decisión léxica. Desde el comienzo de la prueba mire siempre al centro de la pantalla. Se presentará una serie de cadenas de letras, una a la vez, en la pantalla. Su tarea consiste en determinar si cada cadena de letras constituye una palabra real en español o una no-palabra (una secuencia de letras que no constituye una palabra real). 

Pulse la tecla ESPACIO para continuar.",0,keyboardresponseWN.png,,,,,,,,,,,,,,,,,,,,,,,,,,,,,,,,,,,,,,,,,,
,,,,,,5f92ec3c26384e040f06e2db,676192165fb32c2e1fb7aee6,67d1557c4791717475144be7,2025-03-12_10h36.34.492,Tarea de decisión léxica,2024.2.5,Win32,60.24096386,,,47.4161,58.5413,space,11.098,,0.510416667,0.046875,0,0,0,0,1,1,1,1,2,instructions,"El procedimiento es el siguiente: Aparecerán dos barras verticales posicionadas en el centro de la pantalla, separadas por un pequeño espacio.Por favor, enfoque su atención en el espacio entre las barras. Esto preparará sus ojos para la siguiente cadena de letras, que aparecerá entre las dos barras durante un instante.

Pulse la tecla ESPACIO para continuar.",0,keyboardresponseNW.png,,,,,,,,,,,,,,,,,,,,,,,,,,,,,,,,,,,,,,,,,,
,,,,,,5f92ec3c26384e040f06e2db,676192165fb32c2e1fb7aee6,67d1557c4791717475144be7,2025-03-12_10h36.34.492,Tarea de decisión léxica,2024.2.5,Win32,60.24096386,,,58.5489,67.1737,space,8.5157,,0.510416667,0.046875,0,0,0,0,2,2,2,1,3,instructions,"En el teclado de su dispositivo, pulse la tecla ""A"" si la cadena de letras es una palabra real en español (por ejemplo: ""mano"") y la tecla ""L"" si la cadena de letras es una no-palabra (por ejemplo: ""minu"").
Pulse la tecla ESPACIO para continuar.",1,keyboardresponseWN.png,,,,,,,,,,,,,,,,,,,,,,,,,,,,,,,,,,,,,,,,,,
,,,,,,5f92ec3c26384e040f06e2db,676192165fb32c2e1fb7aee6,67d1557c4791717475144be7,2025-03-12_10h36.34.492,Tarea de decisión léxica,2024.2.5,Win32,60.24096386,,,67.1798,80.2551,space,13.0631,,0.510416667,0.046875,0,0,0,0,3,3,3,1,4,instructions,"Es muy importante que responda con la mayor rapidez y precisión posibles. Si no responde dentro de 2 segundos, aparecerá el mensaje ""Muy lento"" y el experimento pasará a la siguiente palabra. Inmediatamente después de su respuesta se indicará si fue correcta o no. Los primeros 15 intentos serán de práctica y habrá dos descansos durante la prueba.

Pulse la tecla ESPACIO  para iniciar la parte de práctica.",0,keyboardresponseWN.png,,,,,,,,,,,,,,,,,,,,,,,,,,,,,,,,,,,,,,,,,,
,,,,,,5f92ec3c26384e040f06e2db,676192165fb32c2e1fb7aee6,67d1557c4791717475144be7,2025-03-12_10h36.34.492,Tarea de decisión léxica,2024.2.5,Win32,60.24096386,,,,,,,,,,,,,,,,,,,,,,,80.2777,82.9226,,0,,-1,82.9232,83.4225,0,0,0,0,1,1001,FEM,NOWORD,AGR,150,croz,4,la,a,,,,,,,,,,,,,,,,,,,,
,,,,,,5f92ec3c26384e040f06e2db,676192165fb32c2e1fb7aee6,67d1557c4791717475144be7,2025-03-12_10h36.34.492,Tarea de decisión léxica,2024.2.5,Win32,60.24096386,,,,,,,,,,,,,,,,,,,,,,,83.426,84.9052,a,1,0.8034,1,84.9195,85.4046,0,1,1,5,1,1006,FEM,WORD,AGR,150,cara,4,la,l,0.8034,,,,,,,,,,,,,,,,,,,
,,,,,,5f92ec3c26384e040f06e2db,676192165fb32c2e1fb7aee6,67d1557c4791717475144be7,2025-03-12_10h36.34.492,Tarea de decisión léxica,2024.2.5,Win32,60.24096386,,,,,,,,,,,,,,,,,,,,,,,85.4068,86.6047,l,1,0.5248,1,86.6048,87.1053,0,2,2,1,1,1002,FEM,NOWORD,DIS,150,mabo,4,el,a,0.5248,,,,,,,,,,,,,,,,,,,
,,,,,,5f92ec3c26384e040f06e2db,676192165fb32c2e1fb7aee6,67d1557c4791717475144be7,2025-03-12_10h36.34.492,Tarea de decisión léxica,2024.2.5,Win32,60.24096386,,,,,,,,,,,,,,,,,,,,,,,87.1097,88.5048,l,0,0.7201,0,88.5075,89.0048,0,3,3,7,1,1008,MAS,WORD,DIS,150,frío,4,la,l,0.7201,,,,,,,,,,,,,,,,,,,
,,,,,,5f92ec3c26384e040f06e2db,676192165fb32c2e1fb7aee6,67d1557c4791717475144be7,2025-03-12_10h36.34.492,Tarea de decisión léxica,2024.2.5,Win32,60.24096386,,,,,,,,,,,,,,,,,,,,,,,89.0063,90.2726,a,0,0.5864,0,90.2731,90.7723,0,4,4,3,1,1004,FEM,NOWORD,AGR,150,bireo,5,la,a,0.5864,,,,,,,,,,,,,,,,,,,
,,,,,,5f92ec3c26384e040f06e2db,676192165fb32c2e1fb7aee6,67d1557c4791717475144be7,2025-03-12_10h36.34.492,Tarea de decisión léxica,2024.2.5,Win32,60.24096386,,,,,,,,,,,,,,,,,,,,,,,90.7786,91.8715,a,1,0.4239,1,91.8735,92.3712,0,5,5,6,1,1007,MAS,WORD,DIS,150,masa,4,la,l,0.4239,,,,,,,,,,,,,,,,,,,
,,,,,,5f92ec3c26384e040f06e2db,676192165fb32c2e1fb7aee6,67d1557c4791717475144be7,2025-03-12_10h36.34.492,Tarea de decisión léxica,2024.2.5,Win32,60.24096386,,,,,,,,,,,,,,,,,,,,,,,92.3753,93.5878,l,0,0.5378,0,93.5896,94.0874,0,6,6,9,1,1010,MAS,WORD,DIS,150,video,5,la,l,0.5378,,,,,,,,,,,,,,,,,,,
,,,,,,5f92ec3c26384e040f06e2db,676192165fb32c2e1fb7aee6,67d1557c4791717475144be7,2025-03-12_10h36.34.492,Tarea de decisión léxica,2024.2.5,Win32,60.24096386,,,,,,,,,,,,,,,,,,,,,,,94.0886,95.3214,l,1,0.5554,1,95.3239,95.8213,0,7,7,4,1,1005,MAS,NOWORD,DIS,150,nobad,5,la,a,0.5554,,,,,,,,,,,,,,,,,,,
,,,,,,5f92ec3c26384e040f06e2db,676192165fb32c2e1fb7aee6,67d1557c4791717475144be7,2025-03-12_10h36.34.492,Tarea de decisión léxica,2024.2.5,Win32,60.24096386,,,,,,,,,,,,,,,,,,,,,,,95.8236,96.9205,l,1,0.4176,1,96.9207,97.4207,0,8,8,2,1,1003,FEM,NOWORD,DIS,150,muvor,5,el,a,0.4176,,,,,,,,,,,,,,,,,,,
,,,,,,5f92ec3c26384e040f06e2db,676192165fb32c2e1fb7aee6,67d1557c4791717475144be7,2025-03-12_10h36.34.492,Tarea de decisión léxica,2024.2.5,Win32,60.24096386,,,,,,,,,,,,,,,,,,,,,,,97.4227,98.3039,a,1,0.205,1,98.3041,98.8048,0,9,9,8,1,1009,FEM,WORD,AGR,150,viejo,5,la,l,0.205,,,,,,,,,,,,,,,,,,,
,,,,,,5f92ec3c26384e040f06e2db,676192165fb32c2e1fb7aee6,67d1557c4791717475144be7,2025-03-12_10h36.34.492,Tarea de decisión léxica,2024.2.5,Win32,60.24096386,,,102.7768,111.3711,space,8.5732,,0.510416667,0.046875,0,0,0,,,,,,,,,,,111.452,112.553,a,1,0.4351,1,112.5533,113.053,,,,,,121,MAS,WORD,DIS,150,hoyo,,la,,0.4351,,113.0536,113.0629,0.510416667,0.046875,0,0,0,,0,0,0,120,1,bomo,,,,
,,,,,,5f92ec3c26384e040f06e2db,676192165fb32c2e1fb7aee6,67d1557c4791717475144be7,2025-03-12_10h36.34.492,Tarea de decisión léxica,2024.2.5,Win32,60.24096386,,,,,,,,,,,,,,,,,,,,,,,113.0644,114.0526,a,1,0.3188,1,114.0528,114.5528,,,,,,255,MAS,WORD,AGR,150,miedo,,el,,0.3188,,114.5531,114.5535,0.510416667,0.046875,0,0,0,,0,1,1,254,1,mauco,,,,
,,,,,,5f92ec3c26384e040f06e2db,676192165fb32c2e1fb7aee6,67d1557c4791717475144be7,2025-03-12_10h36.34.492,Tarea de decisión léxica,2024.2.5,Win32,60.24096386,,,,,,,,,,,,,,,,,,,,,,,114.5573,115.5696,a,1,0.3336,1,115.5697,116.069,,,,,,55,MAS,WORD,AGR,150,gato,,el,,0.3336,,116.0707,116.0715,0.510416667,0.046875,0,0,0,,0,2,2,54,1,jado,,,,
,,,,,,5f92ec3c26384e040f06e2db,676192165fb32c2e1fb7aee6,67d1557c4791717475144be7,2025-03-12_10h36.34.492,Tarea de decisión léxica,2024.2.5,Win32,60.24096386,,,,,,,,,,,,,,,,,,,,,,,116.0722,117.036,l,1,0.2923,1,117.0362,117.5364,,,,,,106,FEM,NOWORD,DIS,150,vina,,el,,0.2923,,117.5365,117.5368,0.510416667,0.046875,0,0,0,,0,3,3,105,1,sopa,,,,
,,,,,,5f92ec3c26384e040f06e2db,676192165fb32c2e1fb7aee6,67d1557c4791717475144be7,2025-03-12_10h36.34.492,Tarea de decisión léxica,2024.2.5,Win32,60.24096386,,,,,,,,,,,,,,,,,,,,,,,117.5392,118.5191,a,1,0.3017,1,118.5191,119.0199,,,,,,11,MAS,WORD,AGR,150,lado,,el,,0.3017,,119.0201,119.0207,0.510416667,0.046875,0,0,0,,0,4,4,10,1,bapo,,,,
,,,,,,5f92ec3c26384e040f06e2db,676192165fb32c2e1fb7aee6,67d1557c4791717475144be7,2025-03-12_10h36.34.492,Tarea de decisión léxica,2024.2.5,Win32,60.24096386,,,,,,,,,,,,,,,,,,,,,,,119.0249,120.2208,l,1,0.5299,1,120.2211,120.7193,,,,,,164,FEM,NOWORD,AGR,150,laga,,la,,0.5299,,120.7194,120.7197,0.510416667,0.046875,0,0,0,,0,5,5,163,1,fama,,,,
,,,,,,5f92ec3c26384e040f06e2db,676192165fb32c2e1fb7aee6,67d1557c4791717475144be7,2025-03-12_10h36.34.492,Tarea de decisión léxica,2024.2.5,Win32,60.24096386,,,,,,,,,,,,,,,,,,,,,,,120.7223,121.7025,a,1,0.3059,1,121.7028,122.2025,,,,,,449,FEM,WORD,DIS,150,pluma,,el,,0.3059,,122.2027,122.203,0.510416667,0.046875,0,0,0,,0,6,6,448,1,crusa,,,,
,,,,,,5f92ec3c26384e040f06e2db,676192165fb32c2e1fb7aee6,67d1557c4791717475144be7,2025-03-12_10h36.34.492,Tarea de decisión léxica,2024.2.5,Win32,60.24096386,,,,,,,,,,,,,,,,,,,,,,,122.2056,123.2189,a,1,0.3331,1,123.219,123.7191,,,,,,199,MAS,WORD,AGR,150,lazo,,el,,0.3331,,123.7219,123.7231,0.510416667,0.046875,0,0,0,,0,7,7,198,1,fano,,,,
,,,,,,5f92ec3c26384e040f06e2db,676192165fb32c2e1fb7aee6,67d1557c4791717475144be7,2025-03-12_10h36.34.492,Tarea de decisión léxica,2024.2.5,Win32,60.24096386,,,,,,,,,,,,,,,,,,,,,,,123.7244,124.7186,l,0,0.3217,0,124.7199,125.2182,,,,,,403,FEM,WORD,AGR,150,prima,,la,,0.3217,,125.2184,125.2184,0.510416667,0.046875,0,0,0,,0,8,8,402,1,grisa,,,,
,,,,,,5f92ec3c26384e040f06e2db,676192165fb32c2e1fb7aee6,67d1557c4791717475144be7,2025-03-12_10h36.34.492,Tarea de decisión léxica,2024.2.5,Win32,60.24096386,,,,,,,,,,,,,,,,,,,,,,,125.2197,126.2019,l,0,0.3049,0,126.2021,126.7019,,,,,,215,FEM,WORD,AGR,150,raíz,,la,,0.3049,,126.7021,126.7025,0.510416667,0.046875,0,0,0,,0,9,9,214,1,raua,,,,
,,,,,,5f92ec3c26384e040f06e2db,676192165fb32c2e1fb7aee6,67d1557c4791717475144be7,2025-03-12_10h36.34.492,Tarea de decisión léxica,2024.2.5,Win32,60.24096386,,,,,,,,,,,,,,,,,,,,,,,126.7054,127.6351,a,1,0.2525,1,127.637,128.135,,,,,,19,MAS,WORD,AGR,150,niño,,el,,0.2525,,128.1353,128.1356,0.510416667,0.046875,0,0,0,,0,10,10,18,1,himo,,,,
,,,,,,5f92ec3c26384e040f06e2db,676192165fb32c2e1fb7aee6,67d1557c4791717475144be7,2025-03-12_10h36.34.492,Tarea de decisión léxica,2024.2.5,Win32,60.24096386,,,,,,,,,,,,,,,,,,,,,,,128.1377,129.1849,l,0,0.3688,0,129.1864,129.6851,,,,,,409,MAS,WORD,DIS,150,carro,,la,,0.3688,,129.6884,129.6897,0.510416667,0.046875,0,0,0,,0,11,11,408,1,pafro,,,,
,,,,,,5f92ec3c26384e040f06e2db,676192165fb32c2e1fb7aee6,67d1557c4791717475144be7,2025-03-12_10h36.34.492,Tarea de decisión léxica,2024.2.5,Win32,60.24096386,,,,,,,,,,,,,,,,,,,,,,,129.6915,130.735,l,1,0.3688,1,130.7372,131.2346,,,,,,400,MAS,NOWORD,AGR,150,serro,,el,,0.3688,,131.2348,131.2351,0.510416667,0.046875,0,0,0,,0,12,12,399,1,techo,,,,
,,,,,,5f92ec3c26384e040f06e2db,676192165fb32c2e1fb7aee6,67d1557c4791717475144be7,2025-03-12_10h36.34.492,Tarea de decisión léxica,2024.2.5,Win32,60.24096386,,,,,,,,,,,,,,,,,,,,,,,131.2365,132.1847,a,1,0.2721,1,132.1848,132.6851,,,,,,347,FEM,WORD,AGR,150,pieza,,la,,0.2721,,132.6853,132.6857,0.510416667,0.046875,0,0,0,,0,13,13,346,1,mueza,,,,
,,,,,,5f92ec3c26384e040f06e2db,676192165fb32c2e1fb7aee6,67d1557c4791717475144be7,2025-03-12_10h36.34.492,Tarea de decisión léxica,2024.2.5,Win32,60.24096386,,,,,,,,,,,,,,,,,,,,,,,132.6889,133.768,l,1,0.4019,1,133.7683,134.2681,,,,,,312,MAS,NOWORD,AGR,150,nosor,,el,,0.4019,,134.2683,134.2686,0.510416667,0.046875,0,0,0,,0,14,14,311,1,honor,,,,
,,,,,,5f92ec3c26384e040f06e2db,676192165fb32c2e1fb7aee6,67d1557c4791717475144be7,2025-03-12_10h36.34.492,Tarea de decisión léxica,2024.2.5,Win32,60.24096386,,,,,,,,,,,,,,,,,,,,,,,134.2709,135.4016,l,1,0.4531,1,135.4017,135.9015,,,,,,336,FEM,NOWORD,AGR,150,pesta,,la,,0.4531,,135.9016,135.902,0.510416667,0.046875,0,0,0,,0,15,15,335,1,costa,,,,
,,,,,,5f92ec3c26384e040f06e2db,676192165fb32c2e1fb7aee6,67d1557c4791717475144be7,2025-03-12_10h36.34.492,Tarea de decisión léxica,2024.2.5,Win32,60.24096386,,,,,,,,,,,,,,,,,,,,,,,135.9045,136.9351,l,1,0.3562,1,136.9353,137.4348,,,,,,166,FEM,NOWORD,DIS,150,dera,,el,,0.3562,,137.4394,137.4417,0.510416667,0.046875,0,0,0,,0,16,16,165,1,vela,,,,
,,,,,,5f92ec3c26384e040f06e2db,676192165fb32c2e1fb7aee6,67d1557c4791717475144be7,2025-03-12_10h36.34.492,Tarea de decisión léxica,2024.2.5,Win32,60.24096386,,,,,,,,,,,,,,,,,,,,,,,137.4439,138.3516,a,1,0.2346,1,138.3518,138.8508,,,,,,249,FEM,WORD,DIS,150,clase,,el,,0.2346,,138.8508,138.8511,0.510416667,0.046875,0,0,0,,0,17,17,248,1,plane,,,,
,,,,,,5f92ec3c26384e040f06e2db,676192165fb32c2e1fb7aee6,67d1557c4791717475144be7,2025-03-12_10h36.34.492,Tarea de decisión léxica,2024.2.5,Win32,60.24096386,,,,,,,,,,,,,,,,,,,,,,,138.8529,140.0508,l,1,0.5171,1,140.051,140.5507,,,,,,180,MAS,NOWORD,AGR,150,sono,,el,,0.5171,,140.5509,140.5512,0.510416667,0.046875,0,0,0,,0,18,18,179,1,toro,,,,
,,,,,,5f92ec3c26384e040f06e2db,676192165fb32c2e1fb7aee6,67d1557c4791717475144be7,2025-03-12_10h36.34.492,Tarea de decisión léxica,2024.2.5,Win32,60.24096386,,,,,,,,,,,,,,,,,,,,,,,140.5527,141.4672,a,1,0.2437,1,141.4674,141.9674,,,,,,297,MAS,WORD,DIS,150,grupo,,la,,0.2437,,141.9675,141.9677,0.510416667,0.046875,0,0,0,,0,19,19,296,1,brubo,,,,
,,,,,,5f92ec3c26384e040f06e2db,676192165fb32c2e1fb7aee6,67d1557c4791717475144be7,2025-03-12_10h36.34.492,Tarea de decisión léxica,2024.2.5,Win32,60.24096386,,,,,,,,,,,,,,,,,,,,,,,141.9695,142.9675,a,1,0.3176,1,142.9677,143.4674,,,,,,275,MAS,WORD,AGR,150,punto,,el,,0.3176,,143.4675,143.4677,0.510416667,0.046875,0,0,0,,0,20,20,274,1,musto,,,,
,,,,,,5f92ec3c26384e040f06e2db,676192165fb32c2e1fb7aee6,67d1557c4791717475144be7,2025-03-12_10h36.34.492,Tarea de decisión léxica,2024.2.5,Win32,60.24096386,,,,,,,,,,,,,,,,,,,,,,,143.4705,144.5336,a,1,0.3907,1,144.5338,145.0344,,,,,,179,MAS,WORD,AGR,150,toro,,el,,0.3907,,145.0395,145.0418,0.510416667,0.046875,0,0,0,,0,21,21,178,1,sono,,,,
,,,,,,5f92ec3c26384e040f06e2db,676192165fb32c2e1fb7aee6,67d1557c4791717475144be7,2025-03-12_10h36.34.492,Tarea de decisión léxica,2024.2.5,Win32,60.24096386,,,,,,,,,,,,,,,,,,,,,,,145.0443,146.0007,a,1,0.2864,1,146.0008,146.5003,,,,,,435,MAS,WORD,AGR,150,ritmo,,el,,0.2864,,146.5003,146.5006,0.510416667,0.046875,0,0,0,,0,22,22,434,1,ricno,,,,
,,,,,,5f92ec3c26384e040f06e2db,676192165fb32c2e1fb7aee6,67d1557c4791717475144be7,2025-03-12_10h36.34.492,Tarea de decisión léxica,2024.2.5,Win32,60.24096386,,,,,,,,,,,,,,,,,,,,,,,146.5022,147.4674,a,1,0.2888,1,147.4676,147.9666,,,,,,123,FEM,WORD,AGR,150,flor,,la,,0.2888,,147.9667,147.9669,0.510416667,0.046875,0,0,0,,0,23,23,122,1,maba,,,,
,,,,,,5f92ec3c26384e040f06e2db,676192165fb32c2e1fb7aee6,67d1557c4791717475144be7,2025-03-12_10h36.34.492,Tarea de decisión léxica,2024.2.5,Win32,60.24096386,,,,,,,,,,,,,,,,,,,,,,,147.9678,148.9333,a,1,0.2836,1,148.9334,149.4337,,,,,,261,MAS,WORD,DIS,150,sitio,,la,,0.2836,,149.4339,149.4341,0.510416667,0.046875,0,0,0,,0,24,24,260,1,titio,,,,
,,,,,,5f92ec3c26384e040f06e2db,676192165fb32c2e1fb7aee6,67d1557c4791717475144be7,2025-03-12_10h36.34.492,Tarea de decisión léxica,2024.2.5,Win32,60.24096386,,,,,,,,,,,,,,,,,,,,,,,149.4363,150.3833,a,1,0.276,1,150.3836,150.8835,,,,,,385,FEM,WORD,DIS,150,letra,,el,,0.276,,150.8836,150.8839,0.510416667,0.046875,0,0,0,,0,25,25,384,1,febra,,,,
,,,,,,5f92ec3c26384e040f06e2db,676192165fb32c2e1fb7aee6,67d1557c4791717475144be7,2025-03-12_10h36.34.492,Tarea de decisión léxica,2024.2.5,Win32,60.24096386,,,,,,,,,,,,,,,,,,,,,,,150.8858,151.8172,a,1,0.2628,1,151.8173,152.3166,,,,,,49,FEM,WORD,DIS,150,edad,,el,,0.2628,,152.3199,152.3212,0.510416667,0.046875,0,0,0,,0,26,26,48,1,ecat,,,,
,,,,,,5f92ec3c26384e040f06e2db,676192165fb32c2e1fb7aee6,67d1557c4791717475144be7,2025-03-12_10h36.34.492,Tarea de decisión léxica,2024.2.5,Win32,60.24096386,,,,,,,,,,,,,,,,,,,,,,,152.3227,153.3,l,1,0.3017,1,153.3002,153.8,,,,,,94,FEM,NOWORD,DIS,150,rona,,el,,0.3017,,153.8001,153.8005,0.510416667,0.046875,0,0,0,,0,27,27,93,1,bola,,,,
,,,,,,5f92ec3c26384e040f06e2db,676192165fb32c2e1fb7aee6,67d1557c4791717475144be7,2025-03-12_10h36.34.492,Tarea de decisión léxica,2024.2.5,Win32,60.24096386,,,,,,,,,,,,,,,,,,,,,,,153.8024,154.7502,a,1,0.2723,1,154.7505,155.2494,,,,,,387,FEM,WORD,AGR,150,crema,,la,,0.2723,,155.2494,155.2496,0.510416667,0.046875,0,0,0,,0,28,28,386,1,bresa,,,,
,,,,,,5f92ec3c26384e040f06e2db,676192165fb32c2e1fb7aee6,67d1557c4791717475144be7,2025-03-12_10h36.34.492,Tarea de decisión léxica,2024.2.5,Win32,60.24096386,,,,,,,,,,,,,,,,,,,,,,,155.2507,156.385,l,0,0.4631,0,156.3874,156.8833,,,,,,187,MAS,WORD,AGR,150,mito,,el,,0.4631,,156.8834,156.8838,0.510416667,0.046875,0,0,0,,0,29,29,186,1,suto,,,,
,,,,,,5f92ec3c26384e040f06e2db,676192165fb32c2e1fb7aee6,67d1557c4791717475144be7,2025-03-12_10h36.34.492,Tarea de decisión léxica,2024.2.5,Win32,60.24096386,,,,,,,,,,,,,,,,,,,,,,,156.8884,157.9163,a,1,0.3537,1,157.9181,158.4159,,,,,,419,MAS,WORD,AGR,150,truco,,el,,0.3537,,158.4159,158.4161,0.510416667,0.046875,0,0,0,,0,30,30,418,1,chudo,,,,
,,,,,,5f92ec3c26384e040f06e2db,676192165fb32c2e1fb7aee6,67d1557c4791717475144be7,2025-03-12_10h36.34.492,Tarea de decisión léxica,2024.2.5,Win32,60.24096386,,,,,,,,,,,,,,,,,,,,,,,158.4173,159.4326,l,1,0.3434,1,159.4327,159.9333,,,,,,300,FEM,NOWORD,AGR,150,bosga,,la,,0.3434,,159.9366,159.9381,0.510416667,0.046875,0,0,0,,0,31,31,299,1,bolsa,,,,
,,,,,,5f92ec3c26384e040f06e2db,676192165fb32c2e1fb7aee6,67d1557c4791717475144be7,2025-03-12_10h36.34.492,Tarea de decisión léxica,2024.2.5,Win32,60.24096386,,,,,,,,,,,,,,,,,,,,,,,159.9398,161.1324,l,1,0.5183,1,161.1325,161.6324,,,,,,294,MAS,NOWORD,DIS,150,cacso,,la,,0.5183,,161.6324,161.6326,0.510416667,0.046875,0,0,0,,0,32,32,293,1,campo,,,,
,,,,,,5f92ec3c26384e040f06e2db,676192165fb32c2e1fb7aee6,67d1557c4791717475144be7,2025-03-12_10h36.34.492,Tarea de decisión léxica,2024.2.5,Win32,60.24096386,,,,,,,,,,,,,,,,,,,,,,,161.6341,162.7156,l,1,0.3997,1,162.7157,163.2157,,,,,,196,FEM,NOWORD,AGR,150,sira,,la,,0.3997,,163.2158,163.2161,0.510416667,0.046875,0,0,0,,0,33,33,195,1,tela,,,,
,,,,,,5f92ec3c26384e040f06e2db,676192165fb32c2e1fb7aee6,67d1557c4791717475144be7,2025-03-12_10h36.34.492,Tarea de decisión léxica,2024.2.5,Win32,60.24096386,,,,,,,,,,,,,,,,,,,,,,,163.2187,164.3156,l,0,0.418,0,164.3171,164.8156,,,,,,197,MAS,WORD,DIS,150,bate,,la,,0.418,,164.8157,164.816,0.510416667,0.046875,0,0,0,,0,34,34,196,1,dade,,,,
,,,,,,5f92ec3c26384e040f06e2db,676192165fb32c2e1fb7aee6,67d1557c4791717475144be7,2025-03-12_10h36.34.492,Tarea de decisión léxica,2024.2.5,Win32,60.24096386,,,,,,,,,,,,,,,,,,,,,,,164.8178,165.8319,a,1,0.3414,1,165.8329,166.3322,,,,,,149,MAS,WORD,DIS,150,cabo,,la,,0.3414,,166.3361,166.3377,0.510416667,0.046875,0,0,0,,0,35,35,148,1,pafo,,,,
,,,,,,5f92ec3c26384e040f06e2db,676192165fb32c2e1fb7aee6,67d1557c4791717475144be7,2025-03-12_10h36.34.492,Tarea de decisión léxica,2024.2.5,Win32,60.24096386,,,,,,,,,,,,,,,,,,,,,,,166.3392,167.2989,a,1,0.283,1,167.2991,167.7989,,,,,,93,FEM,WORD,DIS,150,bola,,el,,0.283,,167.799,167.7993,0.510416667,0.046875,0,0,0,,0,36,36,92,1,rona,,,,
,,,,,,5f92ec3c26384e040f06e2db,676192165fb32c2e1fb7aee6,67d1557c4791717475144be7,2025-03-12_10h36.34.492,Tarea de decisión léxica,2024.2.5,Win32,60.24096386,,,,,,,,,,,,,,,,,,,,,,,167.8018,168.9816,l,0,0.4986,0,168.9824,169.4816,,,,,,29,MAS,WORD,DIS,150,modo,,la,,0.4986,,169.4816,169.4817,0.510416667,0.046875,0,0,0,,0,37,37,28,1,pono,,,,
,,,,,,5f92ec3c26384e040f06e2db,676192165fb32c2e1fb7aee6,67d1557c4791717475144be7,2025-03-12_10h36.34.492,Tarea de decisión léxica,2024.2.5,Win32,60.24096386,,,,,,,,,,,,,,,,,,,,,,,169.4827,170.5985,a,0,0.4333,0,170.5988,171.0982,,,,,,198,MAS,NOWORD,DIS,150,dade,,la,,0.4333,,171.0983,171.0984,0.510416667,0.046875,0,0,0,,0,38,38,197,1,bate,,,,
,,,,,,5f92ec3c26384e040f06e2db,676192165fb32c2e1fb7aee6,67d1557c4791717475144be7,2025-03-12_10h36.34.492,Tarea de decisión léxica,2024.2.5,Win32,60.24096386,,,,,,,,,,,,,,,,,,,,,,,171.0998,172.0985,a,1,0.3203,1,172.1011,172.5981,,,,,,167,FEM,WORD,AGR,150,jefa,,la,,0.3203,,172.5982,172.5984,0.510416667,0.046875,0,0,0,,0,39,39,166,1,zifa,,,,
,,,,,,5f92ec3c26384e040f06e2db,676192165fb32c2e1fb7aee6,67d1557c4791717475144be7,2025-03-12_10h36.34.492,Tarea de decisión léxica,2024.2.5,Win32,60.24096386,,,,,,,,,,,,,,,,,,,,,,,172.5995,173.716,l,1,0.446,1,173.7163,174.215,,,,,,308,MAS,NOWORD,AGR,150,holol,,el,,0.446,,174.2182,174.2198,0.510416667,0.046875,0,0,0,,0,40,40,307,1,hotel,,,,
,,,,,,5f92ec3c26384e040f06e2db,676192165fb32c2e1fb7aee6,67d1557c4791717475144be7,2025-03-12_10h36.34.492,Tarea de decisión léxica,2024.2.5,Win32,60.24096386,,,,,,,,,,,,,,,,,,,,,,,174.2216,175.3813,l,1,0.4956,1,175.3814,175.8818,,,,,,462,FEM,NOWORD,DIS,150,pagra,,el,,0.4956,,175.882,175.8825,0.510416667,0.046875,0,0,0,,0,41,41,461,1,tabla,,,,
,,,,,,5f92ec3c26384e040f06e2db,676192165fb32c2e1fb7aee6,67d1557c4791717475144be7,2025-03-12_10h36.34.492,Tarea de decisión léxica,2024.2.5,Win32,60.24096386,,,,,,,,,,,,,,,,,,,,,,,175.8855,176.832,a,1,0.2704,1,176.8325,177.331,,,,,,327,MAS,WORD,AGR,150,fondo,,el,,0.2704,,177.331,177.3311,0.510416667,0.046875,0,0,0,,0,42,42,326,1,lendo,,,,
,,,,,,5f92ec3c26384e040f06e2db,676192165fb32c2e1fb7aee6,67d1557c4791717475144be7,2025-03-12_10h36.34.492,Tarea de decisión léxica,2024.2.5,Win32,60.24096386,,,,,,,,,,,,,,,,,,,,,,,177.3322,178.4816,l,1,0.4665,1,178.4819,178.9813,,,,,,328,MAS,NOWORD,AGR,150,lendo,,el,,0.4665,,178.9814,178.9817,0.510416667,0.046875,0,0,0,,0,43,43,327,1,fondo,,,,
,,,,,,5f92ec3c26384e040f06e2db,676192165fb32c2e1fb7aee6,67d1557c4791717475144be7,2025-03-12_10h36.34.492,Tarea de decisión léxica,2024.2.5,Win32,60.24096386,,,,,,,,,,,,,,,,,,,,,,,178.9843,180.0973,l,1,0.4347,1,180.0975,180.5975,,,,,,80,FEM,NOWORD,AGR,150,ciel,,la,,0.4347,,180.5976,180.5978,0.510416667,0.046875,0,0,0,,0,44,44,79,1,piel,,,,
,,,,,,5f92ec3c26384e040f06e2db,676192165fb32c2e1fb7aee6,67d1557c4791717475144be7,2025-03-12_10h36.34.492,Tarea de decisión léxica,2024.2.5,Win32,60.24096386,,,,,,,,,,,,,,,,,,,,,,,180.5989,181.7975,l,1,0.5162,1,181.7977,182.2978,,,,,,100,MAS,NOWORD,AGR,150,soro,,el,,0.5162,,182.2998,182.301,0.510416667,0.046875,0,0,0,,0,45,45,99,1,lobo,,,,
,,,,,,5f92ec3c26384e040f06e2db,676192165fb32c2e1fb7aee6,67d1557c4791717475144be7,2025-03-12_10h36.34.492,Tarea de decisión léxica,2024.2.5,Win32,60.24096386,,,,,,,,,,,,,,,,,,,,,,,182.302,183.4816,l,1,0.506,1,183.4818,183.9812,,,,,,64,FEM,NOWORD,AGR,150,funa,,la,,0.506,,183.9813,183.9816,0.510416667,0.046875,0,0,0,,0,46,46,63,1,luna,,,,
,,,,,,5f92ec3c26384e040f06e2db,676192165fb32c2e1fb7aee6,67d1557c4791717475144be7,2025-03-12_10h36.34.492,Tarea de decisión léxica,2024.2.5,Win32,60.24096386,,,,,,,,,,,,,,,,,,,,,,,183.9842,184.9973,a,1,0.3364,1,184.9974,185.498,,,,,,259,MAS,WORD,AGR,150,juego,,el,,0.3364,,185.498,185.4983,0.510416667,0.046875,0,0,0,,0,47,47,258,1,jaumo,,,,
,,,,,,5f92ec3c26384e040f06e2db,676192165fb32c2e1fb7aee6,67d1557c4791717475144be7,2025-03-12_10h36.34.492,Tarea de decisión léxica,2024.2.5,Win32,60.24096386,,,,,,,,,,,,,,,,,,,,,,,185.5005,186.7477,l,1,0.5712,1,186.7479,187.2477,,,,,,182,FEM,NOWORD,DIS,150,teda,,el,,0.5712,,187.2478,187.2482,0.510416667,0.046875,0,0,0,,0,48,48,181,1,seda,,,,
,,,,,,5f92ec3c26384e040f06e2db,676192165fb32c2e1fb7aee6,67d1557c4791717475144be7,2025-03-12_10h36.34.492,Tarea de decisión léxica,2024.2.5,Win32,60.24096386,,,,,,,,,,,,,,,,,,,,,,,187.2508,188.3307,l,1,0.3998,1,188.3308,188.8308,,,,,,14,FEM,NOWORD,DIS,150,nola,,el,,0.3998,,188.831,188.8314,0.510416667,0.046875,0,0,0,,0,49,49,13,1,hora,,,,
,,,,,,5f92ec3c26384e040f06e2db,676192165fb32c2e1fb7aee6,67d1557c4791717475144be7,2025-03-12_10h36.34.492,Tarea de decisión léxica,2024.2.5,Win32,60.24096386,,,,,,,,,,,,,,,,,,,,,,,188.8344,189.9305,l,1,0.4178,1,189.9307,190.4301,,,,,,268,MAS,NOWORD,AGR,150,figro,,el,,0.4178,,190.4325,190.4339,0.510416667,0.046875,0,0,0,,0,50,50,267,1,libro,,,,
,,,,,,5f92ec3c26384e040f06e2db,676192165fb32c2e1fb7aee6,67d1557c4791717475144be7,2025-03-12_10h36.34.492,Tarea de decisión léxica,2024.2.5,Win32,60.24096386,,,,,,,,,,,,,,,,,,,,,,,190.4354,191.6638,l,1,0.5539,1,191.664,192.164,,,,,,244,MAS,NOWORD,AGR,150,asamo,,el,,0.5539,,192.1641,192.1644,0.510416667,0.046875,0,0,0,,0,51,51,243,1,amigo,,,,
,,,,,,5f92ec3c26384e040f06e2db,676192165fb32c2e1fb7aee6,67d1557c4791717475144be7,2025-03-12_10h36.34.492,Tarea de decisión léxica,2024.2.5,Win32,60.24096386,,,,,,,,,,,,,,,,,,,,,,,192.1678,193.0804,a,0,0.2359,0,193.0826,193.58,,,,,,206,FEM,NOWORD,DIS,150,bara,,el,,0.2359,,193.5801,193.5804,0.510416667,0.046875,0,0,0,,0,52,52,205,1,rana,,,,
,,,,,,5f92ec3c26384e040f06e2db,676192165fb32c2e1fb7aee6,67d1557c4791717475144be7,2025-03-12_10h36.34.492,Tarea de decisión léxica,2024.2.5,Win32,60.24096386,,,,,,,,,,,,,,,,,,,,,,,193.5827,194.8297,l,1,0.5769,1,194.8304,195.3301,,,,,,358,FEM,NOWORD,DIS,150,gruba,,el,,0.5769,,195.3302,195.3305,0.510416667,0.046875,0,0,0,,0,53,53,357,1,bruja,,,,
,,,,,,5f92ec3c26384e040f06e2db,676192165fb32c2e1fb7aee6,67d1557c4791717475144be7,2025-03-12_10h36.34.492,Tarea de decisión léxica,2024.2.5,Win32,60.24096386,,,,,,,,,,,,,,,,,,,,,,,195.3325,196.3633,a,1,0.3525,1,196.3636,196.8641,,,,,,109,MAS,WORD,DIS,150,rayo,,la,,0.3525,,196.8644,196.8649,0.510416667,0.046875,0,0,0,,0,54,54,108,1,suno,,,,
,,,,,,5f92ec3c26384e040f06e2db,676192165fb32c2e1fb7aee6,67d1557c4791717475144be7,2025-03-12_10h36.34.492,Tarea de decisión léxica,2024.2.5,Win32,60.24096386,,,,,,,,,,,,,,,,,,,,,,,196.8689,197.8799,a,1,0.3429,1,197.8801,198.3803,,,,,,43,FEM,WORD,AGR,150,pena,,la,,0.3429,,198.3839,198.3856,0.510416667,0.046875,0,0,0,,0,55,55,42,1,meda,,,,
,,,,,,5f92ec3c26384e040f06e2db,676192165fb32c2e1fb7aee6,67d1557c4791717475144be7,2025-03-12_10h36.34.492,Tarea de decisión léxica,2024.2.5,Win32,60.24096386,,,,,,,,,,,,,,,,,,,,,,,198.3871,199.3964,l,1,0.3411,1,199.3967,199.8959,,,,,,410,MAS,NOWORD,DIS,150,pafro,,la,,0.3411,,199.896,199.8962,0.510416667,0.046875,0,0,0,,0,56,56,409,1,carro,,,,
,,,,,,5f92ec3c26384e040f06e2db,676192165fb32c2e1fb7aee6,67d1557c4791717475144be7,2025-03-12_10h36.34.492,Tarea de decisión léxica,2024.2.5,Win32,60.24096386,,,,,,,,,,,,,,,,,,,,,,,199.8971,201.0631,l,1,0.4863,1,201.0633,201.563,,,,,,88,MAS,NOWORD,AGR,150,damo,,el,,0.4863,,201.5632,201.5635,0.510416667,0.046875,0,0,0,,0,57,57,87,1,vaso,,,,
,,,,,,5f92ec3c26384e040f06e2db,676192165fb32c2e1fb7aee6,67d1557c4791717475144be7,2025-03-12_10h36.34.492,Tarea de decisión léxica,2024.2.5,Win32,60.24096386,,,,,,,,,,,,,,,,,,,,,,,201.5661,202.6298,a,1,0.3855,1,202.63,203.1294,,,,,,83,FEM,WORD,AGR,150,bala,,la,,0.3855,,203.1296,203.1299,0.510416667,0.046875,0,0,0,,0,58,58,82,1,taga,,,,
,,,,,,5f92ec3c26384e040f06e2db,676192165fb32c2e1fb7aee6,67d1557c4791717475144be7,2025-03-12_10h36.34.492,Tarea de decisión léxica,2024.2.5,Win32,60.24096386,,,,,,,,,,,,,,,,,,,,,,,203.1316,204.096,a,1,0.2854,1,204.0962,204.596,,,,,,79,FEM,WORD,AGR,150,piel,,la,,0.2854,,204.5984,204.6,0.510416667,0.046875,0,0,0,,0,59,59,78,1,ciel,,,,
,,,,,,5f92ec3c26384e040f06e2db,676192165fb32c2e1fb7aee6,67d1557c4791717475144be7,2025-03-12_10h36.34.492,Tarea de decisión léxica,2024.2.5,Win32,60.24096386,,,,,,,,,,,,,,,,,,,,,,,204.6013,205.6459,l,0,0.3699,0,205.6473,206.1458,,,,,,219,FEM,WORD,AGR,150,pipa,,la,,0.3699,,206.1459,206.1462,0.510416667,0.046875,0,0,0,,0,60,60,218,1,miva,,,,
,,,,,,5f92ec3c26384e040f06e2db,676192165fb32c2e1fb7aee6,67d1557c4791717475144be7,2025-03-12_10h36.34.492,Tarea de decisión léxica,2024.2.5,Win32,60.24096386,,,,,,,,,,,,,,,,,,,,,,,206.1482,207.1794,a,0,0.3625,0,207.18,207.679,,,,,,52,FEM,NOWORD,AGR,150,mava,,la,,0.3625,,207.6791,207.6793,0.510416667,0.046875,0,0,0,,0,61,61,51,1,caja,,,,
,,,,,,5f92ec3c26384e040f06e2db,676192165fb32c2e1fb7aee6,67d1557c4791717475144be7,2025-03-12_10h36.34.492,Tarea de decisión léxica,2024.2.5,Win32,60.24096386,,,,,,,,,,,,,,,,,,,,,,,207.6809,208.7624,a,1,0.4045,1,208.7637,209.2626,,,,,,377,MAS,WORD,DIS,150,hielo,,la,,0.4045,,209.2627,209.263,0.510416667,0.046875,0,0,0,,0,62,62,376,1,gaulo,,,,
,,,,,,5f92ec3c26384e040f06e2db,676192165fb32c2e1fb7aee6,67d1557c4791717475144be7,2025-03-12_10h36.34.492,Tarea de decisión léxica,2024.2.5,Win32,60.24096386,,,,,,,,,,,,,,,,,,,,,,,209.2652,210.3618,l,1,0.4237,1,210.3619,210.8622,,,,,,254,MAS,NOWORD,DIS,150,trido,,la,,0.4237,,210.8624,210.8627,0.510416667,0.046875,0,0,0,,0,63,63,253,1,chico,,,,
,,,,,,5f92ec3c26384e040f06e2db,676192165fb32c2e1fb7aee6,67d1557c4791717475144be7,2025-03-12_10h36.34.492,Tarea de decisión léxica,2024.2.5,Win32,60.24096386,,,,,,,,,,,,,,,,,,,,,,,210.8645,211.7952,a,1,0.2603,1,211.7953,212.2951,,,,,,345,FEM,WORD,DIS,150,arena,,el,,0.2603,,212.2964,212.2973,0.510416667,0.046875,0,0,0,,0,64,64,344,1,anera,,,,
,,,,,,5f92ec3c26384e040f06e2db,676192165fb32c2e1fb7aee6,67d1557c4791717475144be7,2025-03-12_10h36.34.492,Tarea de decisión léxica,2024.2.5,Win32,60.24096386,,,,,,,,,,,,,,,,,,,,,,,212.2981,213.3955,l,1,0.4267,1,213.3958,213.8954,,,,,,58,MAS,NOWORD,DIS,150,heco,,la,,0.4267,,213.8955,213.8959,0.510416667,0.046875,0,0,0,,0,65,65,57,1,dedo,,,,
,,,,,,5f92ec3c26384e040f06e2db,676192165fb32c2e1fb7aee6,67d1557c4791717475144be7,2025-03-12_10h36.34.492,Tarea de decisión léxica,2024.2.5,Win32,60.24096386,,,,,,,,,,,,,,,,,,,,,,,213.8989,214.8788,a,1,0.302,1,214.879,215.3788,,,,,,53,FEM,WORD,DIS,150,boda,,el,,0.302,,215.3789,215.3793,0.510416667,0.046875,0,0,0,,0,66,66,52,1,rora,,,,
,,,,,,5f92ec3c26384e040f06e2db,676192165fb32c2e1fb7aee6,67d1557c4791717475144be7,2025-03-12_10h36.34.492,Tarea de decisión léxica,2024.2.5,Win32,60.24096386,,,,,,,,,,,,,,,,,,,,,,,215.382,216.378,l,1,0.3256,1,216.3782,216.8787,,,,,,398,FEM,NOWORD,DIS,150,trigi,,el,,0.3256,,216.8788,216.8791,0.510416667,0.046875,0,0,0,,0,67,67,397,1,tribu,,,,
,,,,,,5f92ec3c26384e040f06e2db,676192165fb32c2e1fb7aee6,67d1557c4791717475144be7,2025-03-12_10h36.34.492,Tarea de decisión léxica,2024.2.5,Win32,60.24096386,,,,,,,,,,,,,,,,,,,,,,,216.8817,217.8784,l,1,0.3187,1,217.8785,218.3786,,,,,,396,FEM,NOWORD,AGR,150,paeda,,la,,0.3187,,218.3787,218.3791,0.510416667,0.046875,0,0,0,,0,68,68,395,1,caída,,,,
,,,,,,5f92ec3c26384e040f06e2db,676192165fb32c2e1fb7aee6,67d1557c4791717475144be7,2025-03-12_10h36.34.492,Tarea de decisión léxica,2024.2.5,Win32,60.24096386,,,,,,,,,,,,,,,,,,,,,,,218.3827,219.4284,l,1,0.3728,1,219.4286,219.9287,,,,,,208,MAS,NOWORD,AGR,150,kedo,,el,,0.3728,,219.9317,219.9338,0.510416667,0.046875,0,0,0,,0,69,69,207,1,kilo,,,,
,,,,,,5f92ec3c26384e040f06e2db,676192165fb32c2e1fb7aee6,67d1557c4791717475144be7,2025-03-12_10h36.34.492,Tarea de decisión léxica,2024.2.5,Win32,60.24096386,,,,,,,,,,,,,,,,,,,,,,,219.9356,221.0113,l,1,0.4097,1,221.0115,221.5118,,,,,,78,MAS,NOWORD,DIS,150,fodo,,la,,0.4097,,221.5119,221.5122,0.510416667,0.046875,0,0,0,,0,70,70,77,1,loco,,,,
,,,,,,5f92ec3c26384e040f06e2db,676192165fb32c2e1fb7aee6,67d1557c4791717475144be7,2025-03-12_10h36.34.492,Tarea de decisión léxica,2024.2.5,Win32,60.24096386,,,,,,,,,,,,,,,,,,,,,,,221.5151,222.5947,l,1,0.4045,1,222.5949,223.0947,,,,,,372,FEM,NOWORD,AGR,150,mosta,,la,,0.4045,,223.0948,223.0951,0.510416667,0.046875,0,0,0,,0,71,71,371,1,pasta,,,,
,,,,,,5f92ec3c26384e040f06e2db,676192165fb32c2e1fb7aee6,67d1557c4791717475144be7,2025-03-12_10h36.34.492,Tarea de decisión léxica,2024.2.5,Win32,60.24096386,,,,,,,,,,,,,,,,,,,,,,,223.0975,224.0452,a,1,0.2776,1,224.0456,224.5451,,,,,,13,FEM,WORD,DIS,150,hora,,el,,0.2776,,224.5453,224.5458,0.510416667,0.046875,0,0,0,,0,72,72,12,1,nola,,,,
,,,,,,5f92ec3c26384e040f06e2db,676192165fb32c2e1fb7aee6,67d1557c4791717475144be7,2025-03-12_10h36.34.492,Tarea de decisión léxica,2024.2.5,Win32,60.24096386,,,,,,,,,,,,,,,,,,,,,,,224.5495,225.4775,a,1,0.2496,1,225.4777,225.9775,,,,,,465,FEM,WORD,DIS,150,aguja,,el,,0.2496,,225.9776,225.9778,0.510416667,0.046875,0,0,0,,0,73,73,464,1,asuba,,,,
,,,,,,5f92ec3c26384e040f06e2db,676192165fb32c2e1fb7aee6,67d1557c4791717475144be7,2025-03-12_10h36.34.492,Tarea de decisión léxica,2024.2.5,Win32,60.24096386,,,,,,,,,,,,,,,,,,,,,,,225.9791,226.9614,l,1,0.3095,1,226.9615,227.4609,,,,,,266,FEM,NOWORD,DIS,150,pitat,,el,,0.3095,,227.4628,227.4641,0.510416667,0.046875,0,0,0,,0,74,74,265,1,mitad,,,,
,,,,,,5f92ec3c26384e040f06e2db,676192165fb32c2e1fb7aee6,67d1557c4791717475144be7,2025-03-12_10h36.34.492,Tarea de decisión léxica,2024.2.5,Win32,60.24096386,,,,,,,,,,,,,,,,,,,,,,,227.4651,228.4945,l,1,0.359,1,228.4947,228.9945,,,,,,92,FEM,NOWORD,AGR,150,sava,,la,,0.359,,228.9946,228.995,0.510416667,0.046875,0,0,0,,0,75,75,91,1,taza,,,,
,,,,,,5f92ec3c26384e040f06e2db,676192165fb32c2e1fb7aee6,67d1557c4791717475144be7,2025-03-12_10h36.34.492,Tarea de decisión léxica,2024.2.5,Win32,60.24096386,,,,,,,,,,,,,,,,,,,,,,,228.9972,230.0438,a,1,0.3674,1,230.0439,230.5444,,,,,,85,MAS,WORD,DIS,150,lago,,la,,0.3674,,230.5445,230.5449,0.510416667,0.046875,0,0,0,,0,76,76,84,1,babo,,,,
,,,,,,5f92ec3c26384e040f06e2db,676192165fb32c2e1fb7aee6,67d1557c4791717475144be7,2025-03-12_10h36.34.492,Tarea de decisión léxica,2024.2.5,Win32,60.24096386,,,,,,,,,,,,,,,,,,,,,,,230.5478,231.5778,a,1,0.3596,1,231.5781,232.0774,,,,,,105,FEM,WORD,DIS,150,sopa,,el,,0.3596,,232.0775,232.0777,0.510416667,0.046875,0,0,0,,0,77,77,104,1,vina,,,,
,,,,,,5f92ec3c26384e040f06e2db,676192165fb32c2e1fb7aee6,67d1557c4791717475144be7,2025-03-12_10h36.34.492,Tarea de decisión léxica,2024.2.5,Win32,60.24096386,,,,,,,,,,,,,,,,,,,,,,,232.0797,233.0941,a,1,0.3434,1,233.0943,233.5939,,,,,,389,MAS,WORD,DIS,150,cerdo,,la,,0.3434,,233.594,233.5942,0.510416667,0.046875,0,0,0,,0,78,78,388,1,cenco,,,,
,,,,,,5f92ec3c26384e040f06e2db,676192165fb32c2e1fb7aee6,67d1557c4791717475144be7,2025-03-12_10h36.34.492,Tarea de decisión léxica,2024.2.5,Win32,60.24096386,,,,,,,,,,,,,,,,,,,,,,,233.5964,234.6272,a,1,0.3516,1,234.6274,235.1268,,,,,,479,MAS,WORD,AGR,150,rumbo,,el,,0.3516,,235.1284,235.1296,0.510416667,0.046875,0,0,0,,0,79,79,478,1,rimpo,,,,
,,,,,,5f92ec3c26384e040f06e2db,676192165fb32c2e1fb7aee6,67d1557c4791717475144be7,2025-03-12_10h36.34.492,Tarea de decisión léxica,2024.2.5,Win32,60.24096386,,,,,,,,,,,,,,,,,,,,,,,235.1306,236.2437,a,1,0.4386,1,236.2438,236.7444,,,,,,431,MAS,WORD,AGR,150,motor,,el,,0.4386,,236.7446,236.7451,0.510416667,0.046875,0,0,0,,0,80,80,430,1,tetor,,,,
,,,,,,5f92ec3c26384e040f06e2db,676192165fb32c2e1fb7aee6,67d1557c4791717475144be7,2025-03-12_10h36.34.492,Tarea de decisión léxica,2024.2.5,Win32,60.24096386,,,,,,,,,,,,,,,,,,,,,,,236.7485,237.7104,a,1,0.2856,1,237.7106,238.2104,,,,,,473,FEM,WORD,DIS,150,feria,,el,,0.2856,,238.2104,238.2108,0.510416667,0.046875,0,0,0,,0,81,81,472,1,felia,,,,
,,,,,,5f92ec3c26384e040f06e2db,676192165fb32c2e1fb7aee6,67d1557c4791717475144be7,2025-03-12_10h36.34.492,Tarea de decisión léxica,2024.2.5,Win32,60.24096386,,,,,,,,,,,,,,,,,,,,,,,238.2129,239.2101,l,0,0.32,0,239.2117,239.7101,,,,,,363,FEM,WORD,AGR,150,deuda,,la,,0.32,,239.7102,239.7105,0.510416667,0.046875,0,0,0,,0,82,82,362,1,veida,,,,
,,,,,,5f92ec3c26384e040f06e2db,676192165fb32c2e1fb7aee6,67d1557c4791717475144be7,2025-03-12_10h36.34.492,Tarea de decisión léxica,2024.2.5,Win32,60.24096386,,,,,,,,,,,,,,,,,,,,,,,239.7126,240.7767,l,1,0.3848,1,240.7785,241.2764,,,,,,66,MAS,NOWORD,DIS,150,nios,,la,,0.3848,,241.2785,241.2796,0.510416667,0.046875,0,0,0,,0,83,83,65,1,dios,,,,
,,,,,,5f92ec3c26384e040f06e2db,676192165fb32c2e1fb7aee6,67d1557c4791717475144be7,2025-03-12_10h36.34.492,Tarea de decisión léxica,2024.2.5,Win32,60.24096386,,,,,,,,,,,,,,,,,,,,,,,241.2806,242.2936,l,1,0.3384,1,242.2941,242.7933,,,,,,246,FEM,NOWORD,DIS,150,pafle,,el,,0.3384,,242.7934,242.7937,0.510416667,0.046875,0,0,0,,0,84,84,245,1,madre,,,,
,,,,,,5f92ec3c26384e040f06e2db,676192165fb32c2e1fb7aee6,67d1557c4791717475144be7,2025-03-12_10h36.34.492,Tarea de decisión léxica,2024.2.5,Win32,60.24096386,,,,,,,,,,,,,,,,,,,,,,,242.7964,243.8427,l,1,0.3744,1,243.8428,244.3431,,,,,,146,MAS,NOWORD,DIS,150,nobo,,la,,0.3744,,244.3432,244.3436,0.510416667,0.046875,0,0,0,,0,85,85,145,1,león,,,,
,,,,,,5f92ec3c26384e040f06e2db,676192165fb32c2e1fb7aee6,67d1557c4791717475144be7,2025-03-12_10h36.34.492,Tarea de decisión léxica,2024.2.5,Win32,60.24096386,,,,,,,,,,,,,,,,,,,,,,,244.3456,245.3596,l,1,0.3461,1,245.3597,245.8596,,,,,,168,FEM,NOWORD,AGR,150,zifa,,la,,0.3461,,245.8597,245.8599,0.510416667,0.046875,0,0,0,,0,86,86,167,1,jefa,,,,
,,,,,,5f92ec3c26384e040f06e2db,676192165fb32c2e1fb7aee6,67d1557c4791717475144be7,2025-03-12_10h36.34.492,Tarea de decisión léxica,2024.2.5,Win32,60.24096386,,,,,,,,,,,,,,,,,,,,,,,245.8624,246.8758,a,1,0.3409,1,246.876,247.376,,,,,,333,FEM,WORD,DIS,150,tarea,,el,,0.3409,,247.3761,247.3763,0.510416667,0.046875,0,0,0,,0,87,87,332,1,dalea,,,,
,,,,,,5f92ec3c26384e040f06e2db,676192165fb32c2e1fb7aee6,67d1557c4791717475144be7,2025-03-12_10h36.34.492,Tarea de decisión léxica,2024.2.5,Win32,60.24096386,,,,,,,,,,,,,,,,,,,,,,,247.3777,248.4758,l,1,0.426,1,248.476,248.9758,,,,,,84,FEM,NOWORD,AGR,150,taga,,la,,0.426,,248.9786,248.9797,0.510416667,0.046875,0,0,0,,0,88,88,83,1,bala,,,,
,,,,,,5f92ec3c26384e040f06e2db,676192165fb32c2e1fb7aee6,67d1557c4791717475144be7,2025-03-12_10h36.34.492,Tarea de decisión léxica,2024.2.5,Win32,60.24096386,,,,,,,,,,,,,,,,,,,,,,,248.9808,250.1924,l,1,0.5392,1,250.1925,250.6923,,,,,,158,MAS,NOWORD,DIS,150,hico,,la,,0.5392,,250.6924,250.6927,0.510416667,0.046875,0,0,0,,0,89,89,157,1,nido,,,,
,,,,,,5f92ec3c26384e040f06e2db,676192165fb32c2e1fb7aee6,67d1557c4791717475144be7,2025-03-12_10h36.34.492,Tarea de decisión léxica,2024.2.5,Win32,60.24096386,,,,,,,,,,,,,,,,,,,,,,,250.6943,251.7759,l,1,0.4038,1,251.7762,252.2755,,,,,,356,FEM,NOWORD,AGR,150,bepla,,la,,0.4038,,252.2755,252.2757,0.510416667,0.046875,0,0,0,,0,90,90,355,1,regla,,,,
,,,,,,5f92ec3c26384e040f06e2db,676192165fb32c2e1fb7aee6,67d1557c4791717475144be7,2025-03-12_10h36.34.492,Tarea de decisión léxica,2024.2.5,Win32,60.24096386,,,,,,,,,,,,,,,,,,,,,,,252.2768,253.3592,l,1,0.4017,1,253.3594,253.8592,,,,,,414,FEM,NOWORD,DIS,150,bieda,,el,,0.4017,,253.8594,253.8596,0.510416667,0.046875,0,0,0,,0,91,91,413,1,rueda,,,,
,,,,,,5f92ec3c26384e040f06e2db,676192165fb32c2e1fb7aee6,67d1557c4791717475144be7,2025-03-12_10h36.34.492,Tarea de decisión léxica,2024.2.5,Win32,60.24096386,,,,,,,,,,,,,,,,,,,,,,,253.8629,254.9432,l,1,0.4057,1,254.9433,255.4419,,,,,,330,MAS,NOWORD,DIS,150,nueno,,la,,0.4057,,255.4419,255.4421,0.510416667,0.046875,0,0,0,,0,92,92,329,1,hueso,,,,
,,,,,,5f92ec3c26384e040f06e2db,676192165fb32c2e1fb7aee6,67d1557c4791717475144be7,2025-03-12_10h36.34.492,Tarea de decisión léxica,2024.2.5,Win32,60.24096386,,,,,,,,,,,,,,,,,,,,,,,255.4433,256.559,l,1,0.4378,1,256.5592,257.0589,,,,,,420,MAS,NOWORD,AGR,150,chudo,,el,,0.4378,,257.0646,257.0662,0.510416667,0.046875,0,0,0,,0,93,93,419,1,truco,,,,
,,,,,,5f92ec3c26384e040f06e2db,676192165fb32c2e1fb7aee6,67d1557c4791717475144be7,2025-03-12_10h36.34.492,Tarea de decisión léxica,2024.2.5,Win32,60.24096386,,,,,,,,,,,,,,,,,,,,,,,257.0677,258.0758,l,1,0.3375,1,258.0761,258.5752,,,,,,68,FEM,NOWORD,AGR,150,gesa,,la,,0.3375,,258.5753,258.5755,0.510416667,0.046875,0,0,0,,0,94,94,67,1,nena,,,,
,,,,,,5f92ec3c26384e040f06e2db,676192165fb32c2e1fb7aee6,67d1557c4791717475144be7,2025-03-12_10h36.34.492,Tarea de decisión léxica,2024.2.5,Win32,60.24096386,,,,,,,,,,,,,,,,,,,,,,,258.5778,259.5746,a,1,0.3301,1,259.5747,260.0753,,,,,,101,MAS,WORD,DIS,150,tono,,la,,0.3301,,260.0754,260.0757,0.510416667,0.046875,0,0,0,,0,95,95,100,1,gito,,,,
,,,,,,5f92ec3c26384e040f06e2db,676192165fb32c2e1fb7aee6,67d1557c4791717475144be7,2025-03-12_10h36.34.492,Tarea de decisión léxica,2024.2.5,Win32,60.24096386,,,,,,,,,,,,,,,,,,,,,,,260.0776,261.1589,l,1,0.4055,1,261.1591,261.6585,,,,,,306,MAS,NOWORD,DIS,150,adiol,,la,,0.4055,,261.6587,261.6589,0.510416667,0.046875,0,0,0,,0,96,96,305,1,avión,,,,
,,,,,,5f92ec3c26384e040f06e2db,676192165fb32c2e1fb7aee6,67d1557c4791717475144be7,2025-03-12_10h36.34.492,Tarea de decisión léxica,2024.2.5,Win32,60.24096386,,,,,,,,,,,,,,,,,,,,,,,261.6609,262.7245,l,1,0.3909,1,262.7245,263.2255,,,,,,228,MAS,NOWORD,AGR,150,laro,,el,,0.3909,,263.2256,263.2259,0.510416667,0.046875,0,0,0,,0,97,97,227,1,faro,,,,
,,,,,,5f92ec3c26384e040f06e2db,676192165fb32c2e1fb7aee6,67d1557c4791717475144be7,2025-03-12_10h36.34.492,Tarea de decisión léxica,2024.2.5,Win32,60.24096386,,,,,,,,,,,,,,,,,,,,,,,263.2288,264.1582,a,1,0.2606,1,264.1585,264.6581,,,,,,295,MAS,WORD,AGR,150,dolor,,el,,0.2606,,264.6614,264.663,0.510416667,0.046875,0,0,0,,0,98,98,294,1,goler,,,,
,,,,,,5f92ec3c26384e040f06e2db,676192165fb32c2e1fb7aee6,67d1557c4791717475144be7,2025-03-12_10h36.34.492,Tarea de decisión léxica,2024.2.5,Win32,60.24096386,,,,,,,,,,,,,,,,,,,,,,,264.6645,265.6245,a,1,0.2919,1,265.6247,266.1246,,,,,,111,MAS,WORD,AGR,150,muro,,el,,0.2919,,266.1246,266.1249,0.510416667,0.046875,0,0,0,,0,99,99,110,1,siro,,,,
,,,,,,5f92ec3c26384e040f06e2db,676192165fb32c2e1fb7aee6,67d1557c4791717475144be7,2025-03-12_10h36.34.492,Tarea de decisión léxica,2024.2.5,Win32,60.24096386,,,,,,,,,,,,,,,,,,,,,,,266.1265,267.0743,a,1,0.2761,1,267.0744,267.5751,,,,,,467,MAS,WORD,AGR,150,piano,,el,,0.2761,,267.5753,267.5757,0.510416667,0.046875,0,0,0,,0,100,100,466,1,peiso,,,,
,,,,,,5f92ec3c26384e040f06e2db,676192165fb32c2e1fb7aee6,67d1557c4791717475144be7,2025-03-12_10h36.34.492,Tarea de decisión léxica,2024.2.5,Win32,60.24096386,,,,,,,,,,,,,,,,,,,,,,,267.5786,268.624,l,1,0.3723,1,268.6241,269.124,,,,,,4,FEM,NOWORD,AGR,150,dica,,la,,0.3723,,269.1241,269.1242,0.510416667,0.046875,0,0,0,,0,101,101,3,1,vida,,,,
,,,,,,5f92ec3c26384e040f06e2db,676192165fb32c2e1fb7aee6,67d1557c4791717475144be7,2025-03-12_10h36.34.492,Tarea de decisión léxica,2024.2.5,Win32,60.24096386,,,,,,,,,,,,,,,,,,,,,,,269.1251,270.1739,l,1,0.3686,1,270.1741,270.6742,,,,,,324,FEM,NOWORD,AGR,150,certa,,la,,0.3686,,270.6744,270.6747,0.510416667,0.046875,0,0,0,,0,102,102,323,1,cinta,,,,
,,,,,,5f92ec3c26384e040f06e2db,676192165fb32c2e1fb7aee6,67d1557c4791717475144be7,2025-03-12_10h36.34.492,Tarea de decisión léxica,2024.2.5,Win32,60.24096386,,,,,,,,,,,,,,,,,,,,,,,270.6763,271.8248,a,1,0.4728,1,271.825,272.3241,,,,,,137,MAS,WORD,DIS,150,nene,,la,,0.4728,,272.3266,272.3281,0.510416667,0.046875,0,0,0,,0,103,103,136,1,pamo,,,,
,,,,,,5f92ec3c26384e040f06e2db,676192165fb32c2e1fb7aee6,67d1557c4791717475144be7,2025-03-12_10h36.34.492,Tarea de decisión léxica,2024.2.5,Win32,60.24096386,,,,,,,,,,,,,,,,,,,,,,,272.3297,273.3573,l,1,0.3608,1,273.3575,273.8574,,,,,,70,FEM,NOWORD,DIS,150,ñola,,el,,0.3608,,273.8575,273.8578,0.510416667,0.046875,0,0,0,,0,104,104,69,1,zona,,,,
,,,,,,5f92ec3c26384e040f06e2db,676192165fb32c2e1fb7aee6,67d1557c4791717475144be7,2025-03-12_10h36.34.492,Tarea de decisión léxica,2024.2.5,Win32,60.24096386,,,,,,,,,,,,,,,,,,,,,,,273.8592,274.8408,a,1,0.3114,1,274.841,275.3407,,,,,,381,MAS,WORD,DIS,150,humor,,la,,0.3114,,275.3409,275.3411,0.510416667,0.046875,0,0,0,,0,105,105,380,1,nusor,,,,
,,,,,,5f92ec3c26384e040f06e2db,676192165fb32c2e1fb7aee6,67d1557c4791717475144be7,2025-03-12_10h36.34.492,Tarea de decisión léxica,2024.2.5,Win32,60.24096386,,,,,,,,,,,,,,,,,,,,,,,275.3435,276.3571,l,1,0.3452,1,276.3573,276.8572,,,,,,74,MAS,NOWORD,DIS,150,omio,,la,,0.3452,,276.8574,276.8577,0.510416667,0.046875,0,0,0,,0,106,106,73,1,odio,,,,
,,,,,,5f92ec3c26384e040f06e2db,676192165fb32c2e1fb7aee6,67d1557c4791717475144be7,2025-03-12_10h36.34.492,Tarea de decisión léxica,2024.2.5,Win32,60.24096386,,,,,,,,,,,,,,,,,,,,,,,276.8595,277.9401,l,1,0.3994,1,277.9403,278.44,,,,,,32,FEM,NOWORD,AGR,150,bova,,la,,0.3994,,278.441,278.4419,0.510416667,0.046875,0,0,0,,0,107,107,31,1,ropa,,,,
,,,,,,5f92ec3c26384e040f06e2db,676192165fb32c2e1fb7aee6,67d1557c4791717475144be7,2025-03-12_10h36.34.492,Tarea de decisión léxica,2024.2.5,Win32,60.24096386,,,,,,,,,,,,,,,,,,,,,,,278.4428,279.4412,a,1,0.3235,1,279.4415,279.9405,,,,,,195,FEM,WORD,AGR,150,tela,,la,,0.3235,,279.9406,279.9409,0.510416667,0.046875,0,0,0,,0,108,108,194,1,sira,,,,
,,,,,,5f92ec3c26384e040f06e2db,676192165fb32c2e1fb7aee6,67d1557c4791717475144be7,2025-03-12_10h36.34.492,Tarea de decisión léxica,2024.2.5,Win32,60.24096386,,,,,,,,,,,,,,,,,,,,,,,279.9429,280.8733,a,1,0.25,1,280.8733,281.3737,,,,,,87,MAS,WORD,AGR,150,vaso,,el,,0.25,,281.3738,281.374,0.510416667,0.046875,0,0,0,,0,109,109,86,1,damo,,,,
,,,,,,5f92ec3c26384e040f06e2db,676192165fb32c2e1fb7aee6,67d1557c4791717475144be7,2025-03-12_10h36.34.492,Tarea de decisión léxica,2024.2.5,Win32,60.24096386,,,,,,,,,,,,,,,,,,,,,,,281.3761,282.4236,l,1,0.3766,1,282.4237,282.923,,,,,,232,FEM,NOWORD,AGR,150,heta,,la,,0.3766,,282.9231,282.9232,0.510416667,0.046875,0,0,0,,0,110,110,231,1,bota,,,,
,,,,,,5f92ec3c26384e040f06e2db,676192165fb32c2e1fb7aee6,67d1557c4791717475144be7,2025-03-12_10h36.34.492,Tarea de decisión léxica,2024.2.5,Win32,60.24096386,,,,,,,,,,,,,,,,,,,,,,,282.9245,284.0063,a,1,0.4047,1,284.0064,284.5064,,,,,,423,MAS,WORD,AGR,150,queso,,el,,0.4047,,284.5065,284.5068,0.510416667,0.046875,0,0,0,,0,111,111,422,1,quigo,,,,
,,,,,,5f92ec3c26384e040f06e2db,676192165fb32c2e1fb7aee6,67d1557c4791717475144be7,2025-03-12_10h36.34.492,Tarea de decisión léxica,2024.2.5,Win32,60.24096386,,,,,,,,,,,,,,,,,,,,,,,284.5084,285.4398,a,1,0.2523,1,285.4399,285.9396,,,,,,145,MAS,WORD,DIS,150,león,,la,,0.2523,,285.9408,285.9415,0.510416667,0.046875,0,0,0,,0,112,112,144,1,nobo,,,,
,,,,,,5f92ec3c26384e040f06e2db,676192165fb32c2e1fb7aee6,67d1557c4791717475144be7,2025-03-12_10h36.34.492,Tarea de decisión léxica,2024.2.5,Win32,60.24096386,,,,,,,,,,,,,,,,,,,,,,,285.9423,286.9068,a,1,0.2851,1,286.907,287.4067,,,,,,247,FEM,WORD,AGR,150,chica,,la,,0.2851,,287.4069,287.4072,0.510416667,0.046875,0,0,0,,0,113,113,246,1,trida,,,,
,,,,,,5f92ec3c26384e040f06e2db,676192165fb32c2e1fb7aee6,67d1557c4791717475144be7,2025-03-12_10h36.34.492,Tarea de decisión léxica,2024.2.5,Win32,60.24096386,,,,,,,,,,,,,,,,,,,,,,,287.4095,288.4563,l,1,0.3711,1,288.4565,288.9563,,,,,,172,MAS,NOWORD,AGR,150,niro,,el,,0.3711,,288.9564,288.9567,0.510416667,0.046875,0,0,0,,0,114,114,171,1,hilo,,,,
,,,,,,5f92ec3c26384e040f06e2db,676192165fb32c2e1fb7aee6,67d1557c4791717475144be7,2025-03-12_10h36.34.492,Tarea de decisión léxica,2024.2.5,Win32,60.24096386,,,,,,,,,,,,,,,,,,,,,,,288.9585,290.0395,l,1,0.401,1,290.0397,290.5394,,,,,,412,MAS,NOWORD,AGR,150,mobro,,el,,0.401,,290.5394,290.5396,0.510416667,0.046875,0,0,0,,0,115,115,411,1,pollo,,,,
,,,,,,5f92ec3c26384e040f06e2db,676192165fb32c2e1fb7aee6,67d1557c4791717475144be7,2025-03-12_10h36.34.492,Tarea de decisión léxica,2024.2.5,Win32,60.24096386,,,,,,,,,,,,,,,,,,,,,,,290.5409,291.6064,l,1,0.3872,1,291.6065,292.1058,,,,,,122,MAS,NOWORD,DIS,150,bomo,,la,,0.3872,,292.1059,292.1061,0.510416667,0.046875,0,0,0,,0,116,116,121,1,hoyo,,,,
,,,,,,5f92ec3c26384e040f06e2db,676192165fb32c2e1fb7aee6,67d1557c4791717475144be7,2025-03-12_10h36.34.492,Tarea de decisión léxica,2024.2.5,Win32,60.24096386,,,,,,,,,,,,,,,,,,,,,,,292.1073,293.0224,a,1,0.2362,1,293.0224,293.5224,,,,,,457,MAS,WORD,DIS,150,plato,,la,,0.2362,,293.5237,293.5245,0.510416667,0.046875,0,0,0,,0,117,117,456,1,glaco,,,,
,,,,,,5f92ec3c26384e040f06e2db,676192165fb32c2e1fb7aee6,67d1557c4791717475144be7,2025-03-12_10h36.34.492,Tarea de decisión léxica,2024.2.5,Win32,60.24096386,,,,,,,,,,,,,,,,,,,,,,,293.5252,294.6064,l,1,0.4041,1,294.6066,295.1059,,,,,,280,FEM,NOWORD,AGR,150,grina,,la,,0.4041,,295.106,295.1063,0.510416667,0.046875,0,0,0,,0,118,118,279,1,prisa,,,,
,,,,,,5f92ec3c26384e040f06e2db,676192165fb32c2e1fb7aee6,67d1557c4791717475144be7,2025-03-12_10h36.34.492,Tarea de decisión léxica,2024.2.5,Win32,60.24096386,,,,,,,,,,,,,,,,,,,,,,,295.1081,296.4226,a,0,0.6409,0,296.4249,296.9221,,,,,,102,MAS,NOWORD,DIS,150,gito,,la,,0.6409,,296.9221,296.9223,0.510416667,0.046875,0,0,0,,0,119,119,101,1,tono,,,,
,,,,,,5f92ec3c26384e040f06e2db,676192165fb32c2e1fb7aee6,67d1557c4791717475144be7,2025-03-12_10h36.34.492,Tarea de decisión léxica,2024.2.5,Win32,60.24096386,,,,,,,,,,,,,,,,,,,,,,,296.9234,297.8721,a,1,0.2661,1,297.873,298.372,,,,,,421,MAS,WORD,DIS,150,primo,,la,,0.2661,,298.372,298.3723,0.510416667,0.046875,0,0,0,,0,120,120,420,1,griso,,,,
,,,,,,5f92ec3c26384e040f06e2db,676192165fb32c2e1fb7aee6,67d1557c4791717475144be7,2025-03-12_10h36.34.492,Tarea de decisión léxica,2024.2.5,Win32,60.24096386,,,,,,,,,,,,,,,,,,,,,,,298.3734,299.5056,l,1,0.4585,1,299.5057,300.0051,,,,,,36,MAS,NOWORD,AGR,150,meno,,el,,0.4585,,300.0052,300.0054,0.510416667,0.046875,0,0,0,,0,121,121,35,1,pelo,,,,
,,,,,,5f92ec3c26384e040f06e2db,676192165fb32c2e1fb7aee6,67d1557c4791717475144be7,2025-03-12_10h36.34.492,Tarea de decisión léxica,2024.2.5,Win32,60.24096386,,,,,,,,,,,,,,,,,,,,,,,300.0061,300.972,a,1,0.2939,1,300.9722,301.4725,,,,,,341,MAS,WORD,DIS,150,valor,,la,,0.2939,,301.4769,301.4795,0.510416667,0.046875,0,0,0,,0,122,122,340,1,daror,,,,
,,,,,,5f92ec3c26384e040f06e2db,676192165fb32c2e1fb7aee6,67d1557c4791717475144be7,2025-03-12_10h36.34.492,Tarea de decisión léxica,2024.2.5,Win32,60.24096386,,,,,,,,,,,,,,,,,,,,,,,301.4821,302.5885,l,1,0.4346,1,302.5886,303.0887,,,,,,96,FEM,NOWORD,AGR,151,neda,,la,,0.4346,,303.0887,303.0891,0.510416667,0.046875,0,0,0,,0,123,123,95,1,moda,,,,
,,,,,,5f92ec3c26384e040f06e2db,676192165fb32c2e1fb7aee6,67d1557c4791717475144be7,2025-03-12_10h36.34.492,Tarea de decisión léxica,2024.2.5,Win32,60.24096386,,,,,,,,,,,,,,,,,,,,,,,303.0924,304.1219,l,0,0.3582,0,304.1232,304.6223,,,,,,9,MAS,WORD,DIS,150,tipo,,la,,0.3582,,304.6225,304.623,0.510416667,0.046875,0,0,0,,0,124,124,8,1,sibo,,,,
,,,,,,5f92ec3c26384e040f06e2db,676192165fb32c2e1fb7aee6,67d1557c4791717475144be7,2025-03-12_10h36.34.492,Tarea de decisión léxica,2024.2.5,Win32,60.24096386,,,,,,,,,,,,,,,,,,,,,,,304.626,305.7898,l,1,0.488,1,305.7926,306.2884,,,,,,274,FEM,NOWORD,DIS,150,frosa,,el,,0.488,,306.2885,306.2888,0.510416667,0.046875,0,0,0,,0,125,125,273,1,broma,,,,
,,,,,,5f92ec3c26384e040f06e2db,676192165fb32c2e1fb7aee6,67d1557c4791717475144be7,2025-03-12_10h36.34.492,Tarea de decisión léxica,2024.2.5,Win32,60.24096386,,,,,,,,,,,,,,,,,,,,,,,306.2905,307.3719,l,1,0.4049,1,307.3721,307.8718,,,,,,346,FEM,NOWORD,DIS,150,anera,,el,,0.4049,,307.8719,307.8721,0.510416667,0.046875,0,0,0,,0,126,126,345,1,arena,,,,
,,,,,,5f92ec3c26384e040f06e2db,676192165fb32c2e1fb7aee6,67d1557c4791717475144be7,2025-03-12_10h36.34.492,Tarea de decisión léxica,2024.2.5,Win32,60.24096386,,,,,,,,,,,,,,,,,,,,,,,307.8741,308.9215,a,1,0.3696,1,308.9217,309.4217,,,,,,461,FEM,WORD,DIS,150,tabla,,el,,0.3696,,309.4243,309.4258,0.510416667,0.046875,0,0,0,,0,127,127,460,1,pagra,,,,
,,,,,,5f92ec3c26384e040f06e2db,676192165fb32c2e1fb7aee6,67d1557c4791717475144be7,2025-03-12_10h36.34.492,Tarea de decisión léxica,2024.2.5,Win32,60.24096386,,,,,,,,,,,,,,,,,,,,,,,309.4271,310.4715,a,1,0.3695,1,310.4716,310.9712,,,,,,75,MAS,WORD,AGR,150,olor,,el,,0.3695,,310.9713,310.9717,0.510416667,0.046875,0,0,0,,0,128,128,74,1,ocer,,,,
,,,,,,5f92ec3c26384e040f06e2db,676192165fb32c2e1fb7aee6,67d1557c4791717475144be7,2025-03-12_10h36.34.492,Tarea de decisión léxica,2024.2.5,Win32,60.24096386,,,,,,,,,,,,,,,,,,,,,,,310.9733,312.0375,a,1,0.3939,1,312.0376,312.5376,,,,,,69,FEM,WORD,DIS,150,zona,,el,,0.3939,,312.5377,312.5379,0.510416667,0.046875,0,0,0,,0,129,129,68,1,ñola,,,,
,,,,,,5f92ec3c26384e040f06e2db,676192165fb32c2e1fb7aee6,67d1557c4791717475144be7,2025-03-12_10h36.34.492,Tarea de decisión léxica,2024.2.5,Win32,60.24096386,,,,,,,,,,,,,,,,,,,,,,,312.5389,313.5878,a,1,0.367,1,313.5879,314.0878,,,,,,343,FEM,WORD,AGR,150,plata,,la,,0.367,,314.088,314.0882,0.510416667,0.046875,0,0,0,,0,130,130,342,1,trada,,,,
,,,,,,5f92ec3c26384e040f06e2db,676192165fb32c2e1fb7aee6,67d1557c4791717475144be7,2025-03-12_10h36.34.492,Tarea de decisión léxica,2024.2.5,Win32,60.24096386,,,,,,,,,,,,,,,,,,,,,,,314.0903,315.3382,l,1,0.5755,1,315.3388,315.8384,,,,,,474,FEM,NOWORD,DIS,150,felia,,el,,0.5755,,315.8427,315.8453,0.510416667,0.046875,0,0,0,,0,131,131,473,1,feria,,,,
,,,,,,5f92ec3c26384e040f06e2db,676192165fb32c2e1fb7aee6,67d1557c4791717475144be7,2025-03-12_10h36.34.492,Tarea de decisión léxica,2024.2.5,Win32,60.24096386,,,,,,,,,,,,,,,,,,,,,,,315.8479,316.9039,a,1,0.3952,1,316.9041,317.4049,,,,,,369,MAS,WORD,DIS,150,ruido,,la,,0.3952,,317.4052,317.4057,0.510416667,0.046875,0,0,0,,0,132,132,368,1,rioco,,,,
,,,,,,5f92ec3c26384e040f06e2db,676192165fb32c2e1fb7aee6,67d1557c4791717475144be7,2025-03-12_10h36.34.492,Tarea de decisión léxica,2024.2.5,Win32,60.24096386,,,,,,,,,,,,,,,,,,,,,,,317.4097,318.3541,a,1,0.2691,1,318.3543,318.8543,,,,,,119,MAS,WORD,AGR,150,pozo,,el,,0.2691,,318.8544,318.8546,0.510416667,0.046875,0,0,0,,0,133,133,118,1,hooy,,,,
,,,,,,5f92ec3c26384e040f06e2db,676192165fb32c2e1fb7aee6,67d1557c4791717475144be7,2025-03-12_10h36.34.492,Tarea de decisión léxica,2024.2.5,Win32,60.24096386,,,,,,,,,,,,,,,,,,,,,,,318.8565,319.9202,l,1,0.3952,1,319.9203,320.4202,,,,,,42,FEM,NOWORD,DIS,150,haje,,el,,0.3952,,320.4202,320.4203,0.510416667,0.046875,0,0,0,,0,134,134,41,1,nave,,,,
,,,,,,5f92ec3c26384e040f06e2db,676192165fb32c2e1fb7aee6,67d1557c4791717475144be7,2025-03-12_10h36.34.492,Tarea de decisión léxica,2024.2.5,Win32,60.24096386,,,,,,,,,,,,,,,,,,,,,,,320.4211,321.5037,l,1,0.4037,1,321.5038,322.0042,,,,,,252,MAS,NOWORD,AGR,150,refor,,el,,0.4037,,322.0044,322.0047,0.510416667,0.046875,0,0,0,,0,135,135,251,1,señor,,,,
,,,,,,5f92ec3c26384e040f06e2db,676192165fb32c2e1fb7aee6,67d1557c4791717475144be7,2025-03-12_10h36.34.492,Tarea de decisión léxica,2024.2.5,Win32,60.24096386,,,,,,,,,,,,,,,,,,,,,,,322.0087,323.0539,l,1,0.3668,1,323.0541,323.5539,,,,,,362,FEM,NOWORD,DIS,150,solle,,el,,0.3668,,323.557,323.5585,0.510416667,0.046875,0,0,0,,0,136,136,361,1,torre,,,,
,,,,,,5f92ec3c26384e040f06e2db,676192165fb32c2e1fb7aee6,67d1557c4791717475144be7,2025-03-12_10h36.34.492,Tarea de decisión léxica,2024.2.5,Win32,60.24096386,,,,,,,,,,,,,,,,,,,,,,,323.5605,324.5536,a,1,0.3169,1,324.5537,325.0539,,,,,,235,FEM,WORD,AGR,150,grúa,,la,,0.3169,,325.054,325.0544,0.510416667,0.046875,0,0,0,,0,137,137,234,1,tria,,,,
,,,,,,5f92ec3c26384e040f06e2db,676192165fb32c2e1fb7aee6,67d1557c4791717475144be7,2025-03-12_10h36.34.492,Tarea de decisión léxica,2024.2.5,Win32,60.24096386,,,,,,,,,,,,,,,,,,,,,,,325.0567,326.1198,l,1,0.3922,1,326.1198,326.6199,,,,,,364,FEM,NOWORD,AGR,150,veida,,la,,0.3922,,326.6199,326.6202,0.510416667,0.046875,0,0,0,,0,138,138,363,1,deuda,,,,
,,,,,,5f92ec3c26384e040f06e2db,676192165fb32c2e1fb7aee6,67d1557c4791717475144be7,2025-03-12_10h36.34.492,Tarea de decisión léxica,2024.2.5,Win32,60.24096386,,,,,,,,,,,,,,,,,,,,,,,326.6212,327.6365,l,1,0.3418,1,327.6367,328.1368,,,,,,272,FEM,NOWORD,AGR,150,refal,,la,,0.3418,,328.1369,328.1372,0.510416667,0.046875,0,0,0,,0,139,139,271,1,señal,,,,
,,,,,,5f92ec3c26384e040f06e2db,676192165fb32c2e1fb7aee6,67d1557c4791717475144be7,2025-03-12_10h36.34.492,Tarea de decisión léxica,2024.2.5,Win32,60.24096386,,,,,,,,,,,,,,,,,,,,,,,328.1388,329.2698,l,1,0.4512,1,329.2699,329.7696,,,,,,212,FEM,NOWORD,AGR,150,joad,,la,,0.4512,,329.7697,329.7699,0.510416667,0.046875,0,0,0,,0,140,140,211,1,joya,,,,
,,,,,,5f92ec3c26384e040f06e2db,676192165fb32c2e1fb7aee6,67d1557c4791717475144be7,2025-03-12_10h36.34.492,Tarea de decisión léxica,2024.2.5,Win32,60.24096386,,,,,,,,,,,,,,,,,,,,,,,329.7709,330.8363,a,1,0.384,1,330.8364,331.3362,,,,,,267,MAS,WORD,AGR,150,libro,,el,,0.384,,331.3375,331.3383,0.510416667,0.046875,0,0,0,,0,141,141,266,1,figro,,,,
,,,,,,5f92ec3c26384e040f06e2db,676192165fb32c2e1fb7aee6,67d1557c4791717475144be7,2025-03-12_10h36.34.492,Tarea de decisión léxica,2024.2.5,Win32,60.24096386,,,,,,,,,,,,,,,,,,,,,,,331.339,332.4532,l,1,0.438,1,332.4534,332.9527,,,,,,214,FEM,NOWORD,DIS,150,bana,,el,,0.438,,332.9527,332.9529,0.510416667,0.046875,0,0,0,,0,142,142,213,1,rama,,,,
,,,,,,5f92ec3c26384e040f06e2db,676192165fb32c2e1fb7aee6,67d1557c4791717475144be7,2025-03-12_10h36.34.492,Tarea de decisión léxica,2024.2.5,Win32,60.24096386,,,,,,,,,,,,,,,,,,,,,,,332.9541,334.1528,l,1,0.5155,1,334.1529,334.6528,,,,,,250,FEM,NOWORD,DIS,150,plane,,el,,0.5155,,334.6528,334.6531,0.510416667,0.046875,0,0,0,,0,143,143,249,1,clase,,,,
,,,,,,5f92ec3c26384e040f06e2db,676192165fb32c2e1fb7aee6,67d1557c4791717475144be7,2025-03-12_10h36.34.492,Tarea de decisión léxica,2024.2.5,Win32,60.24096386,,,,,,,,,,,,,,,,,,,,,,,334.6545,335.72,a,1,0.3898,1,335.7202,336.2195,,,,,,313,MAS,WORD,DIS,150,novio,,la,,0.3898,,336.2195,336.2198,0.510416667,0.046875,0,0,0,,0,144,144,312,1,govio,,,,
,,,,,,5f92ec3c26384e040f06e2db,676192165fb32c2e1fb7aee6,67d1557c4791717475144be7,2025-03-12_10h36.34.492,Tarea de decisión léxica,2024.2.5,Win32,60.24096386,,,,,,,,,,,,,,,,,,,,,,,336.2216,337.2696,l,1,0.3699,1,337.2698,337.7696,,,,,,264,FEM,NOWORD,AGR,150,dosta,,la,,0.3699,,337.7697,337.7701,0.510416667,0.046875,0,0,0,,0,145,145,263,1,vista,,,,
,,,,,,5f92ec3c26384e040f06e2db,676192165fb32c2e1fb7aee6,67d1557c4791717475144be7,2025-03-12_10h36.34.492,Tarea de decisión léxica,2024.2.5,Win32,60.24096386,,,,,,,,,,,,,,,,,,,,,,,337.7724,338.736,a,1,0.2863,1,338.7361,339.2355,,,,,,469,MAS,WORD,DIS,150,patio,,la,,0.2863,,339.2368,339.2379,0.510416667,0.046875,0,0,0,,0,146,146,468,1,matia,,,,
,,,,,,5f92ec3c26384e040f06e2db,676192165fb32c2e1fb7aee6,67d1557c4791717475144be7,2025-03-12_10h36.34.492,Tarea de decisión léxica,2024.2.5,Win32,60.24096386,,,,,,,,,,,,,,,,,,,,,,,339.2387,340.3522,l,1,0.4333,1,340.3523,340.8525,,,,,,258,FEM,NOWORD,DIS,150,asama,,el,,0.4333,,340.8527,340.8529,0.510416667,0.046875,0,0,0,,0,147,147,257,1,amiga,,,,
,,,,,,5f92ec3c26384e040f06e2db,676192165fb32c2e1fb7aee6,67d1557c4791717475144be7,2025-03-12_10h36.34.492,Tarea de decisión léxica,2024.2.5,Win32,60.24096386,,,,,,,,,,,,,,,,,,,,,,,340.8546,341.9691,l,1,0.4344,1,341.9694,342.4686,,,,,,114,FEM,NOWORD,DIS,150,tada,,el,,0.4344,,342.4686,342.4689,0.510416667,0.046875,0,0,0,,0,148,148,113,1,miel,,,,
,,,,,,5f92ec3c26384e040f06e2db,676192165fb32c2e1fb7aee6,67d1557c4791717475144be7,2025-03-12_10h36.34.492,Tarea de decisión léxica,2024.2.5,Win32,60.24096386,,,,,,,,,,,,,,,,,,,,,,,342.4698,343.5686,l,1,0.416,1,343.5687,344.0687,,,,,,132,FEM,NOWORD,AGR,150,fada,,la,,0.416,,344.0688,344.0691,0.510416667,0.046875,0,0,0,,0,149,149,131,1,mina,,,,
,,,,,,5f92ec3c26384e040f06e2db,676192165fb32c2e1fb7aee6,67d1557c4791717475144be7,2025-03-12_10h36.34.492,Tarea de decisión léxica,2024.2.5,Win32,60.24096386,,,,,,,,,,,,,,,,,,,,,,,344.0706,345.1189,a,1,0.3726,1,345.1189,345.6184,,,,,,287,FEM,WORD,AGR,150,lista,,la,,0.3726,,345.6185,345.6186,0.510416667,0.046875,0,0,0,,0,150,150,286,1,fosta,,,,
,,,,,,5f92ec3c26384e040f06e2db,676192165fb32c2e1fb7aee6,67d1557c4791717475144be7,2025-03-12_10h36.34.492,Tarea de decisión léxica,2024.2.5,Win32,60.24096386,,,,,,,,,,,,,,,,,,,,,,,345.6197,346.7691,l,1,0.4787,1,346.7692,347.2687,,,,,,256,MAS,NOWORD,AGR,150,mauco,,el,,0.4787,,347.2711,347.2727,0.510416667,0.046875,0,0,0,,0,151,151,255,1,miedo,,,,
,,,,,,5f92ec3c26384e040f06e2db,676192165fb32c2e1fb7aee6,67d1557c4791717475144be7,2025-03-12_10h36.34.492,Tarea de decisión léxica,2024.2.5,Win32,60.24096386,,,,,,,,,,,,,,,,,,,,,,,347.2743,348.3691,a,1,0.4184,1,348.3694,348.8685,,,,,,185,MAS,WORD,DIS,150,baúl,,la,,0.4184,,348.8686,348.869,0.510416667,0.046875,0,0,0,,0,152,152,184,1,raol,,,,
,,,,,,5f92ec3c26384e040f06e2db,676192165fb32c2e1fb7aee6,67d1557c4791717475144be7,2025-03-12_10h36.34.492,Tarea de decisión léxica,2024.2.5,Win32,60.24096386,,,,,,,,,,,,,,,,,,,,,,,348.8706,349.8514,a,1,0.3105,1,349.8515,350.3521,,,,,,271,FEM,WORD,AGR,150,señal,,la,,0.3105,,350.3521,350.3524,0.510416667,0.046875,0,0,0,,0,153,153,270,1,refal,,,,
,,,,,,5f92ec3c26384e040f06e2db,676192165fb32c2e1fb7aee6,67d1557c4791717475144be7,2025-03-12_10h36.34.492,Tarea de decisión léxica,2024.2.5,Win32,60.24096386,,,,,,,,,,,,,,,,,,,,,,,350.3554,351.419,l,1,0.3903,1,351.4193,351.9183,,,,,,116,FEM,NOWORD,AGR,150,haca,,la,,0.3903,,351.9184,351.9188,0.510416667,0.046875,0,0,0,,0,154,154,115,1,pata,,,,
,,,,,,5f92ec3c26384e040f06e2db,676192165fb32c2e1fb7aee6,67d1557c4791717475144be7,2025-03-12_10h36.34.492,Tarea de decisión léxica,2024.2.5,Win32,60.24096386,,,,,,,,,,,,,,,,,,,,,,,351.9209,352.9851,a,1,0.3924,1,352.9853,353.4847,,,,,,217,MAS,WORD,DIS,150,luto,,la,,0.3924,,353.4866,353.488,0.510416667,0.046875,0,0,0,,0,155,155,216,1,budo,,,,
,,,,,,5f92ec3c26384e040f06e2db,676192165fb32c2e1fb7aee6,67d1557c4791717475144be7,2025-03-12_10h36.34.492,Tarea de decisión léxica,2024.2.5,Win32,60.24096386,,,,,,,,,,,,,,,,,,,,,,,353.4891,354.4844,a,1,0.3202,1,354.4844,354.9852,,,,,,203,FEM,WORD,AGR,150,leña,,la,,0.3202,,354.9852,354.9855,0.510416667,0.046875,0,0,0,,0,156,156,202,1,beja,,,,
,,,,,,5f92ec3c26384e040f06e2db,676192165fb32c2e1fb7aee6,67d1557c4791717475144be7,2025-03-12_10h36.34.492,Tarea de decisión léxica,2024.2.5,Win32,60.24096386,,,,,,,,,,,,,,,,,,,,,,,354.9868,356.0348,l,1,0.374,1,356.035,356.5351,,,,,,392,MAS,NOWORD,AGR,150,dievo,,el,,0.374,,356.5352,356.5355,0.510416667,0.046875,0,0,0,,0,157,157,391,1,dueño,,,,
,,,,,,5f92ec3c26384e040f06e2db,676192165fb32c2e1fb7aee6,67d1557c4791717475144be7,2025-03-12_10h36.34.492,Tarea de decisión léxica,2024.2.5,Win32,60.24096386,,,,,,,,,,,,,,,,,,,,,,,356.538,357.5515,a,1,0.3374,1,357.5519,358.0517,,,,,,181,FEM,WORD,DIS,150,seda,,el,,0.3374,,358.0518,358.0524,0.510416667,0.046875,0,0,0,,0,158,158,180,1,teda,,,,
,,,,,,5f92ec3c26384e040f06e2db,676192165fb32c2e1fb7aee6,67d1557c4791717475144be7,2025-03-12_10h36.34.492,Tarea de decisión léxica,2024.2.5,Win32,60.24096386,,,,,,,,,,,,,,,,,,,,,,,358.0562,359.0861,l,1,0.3562,1,359.0862,359.5845,,,,,,304,MAS,NOWORD,AGR,150,lanco,,el,,0.3562,,359.5847,359.5849,0.510416667,0.046875,0,0,0,,0,159,159,303,1,barco,,,,
,,,,,,5f92ec3c26384e040f06e2db,676192165fb32c2e1fb7aee6,67d1557c4791717475144be7,2025-03-12_10h36.34.492,Tarea de decisión léxica,2024.2.5,Win32,60.24096386,,,,,,,,,,,,,,,,,,,,,,,359.5875,360.5675,a,1,0.2998,1,360.5675,361.0684,,,,,,205,FEM,WORD,DIS,150,rana,,el,,0.2998,,361.0726,372.7005,0.510416667,0.046875,0,0,0,space,0,160,160,204,1,bara,11.6048,,,
,,,,,,5f92ec3c26384e040f06e2db,676192165fb32c2e1fb7aee6,67d1557c4791717475144be7,2025-03-12_10h36.34.492,Tarea de decisión léxica,2024.2.5,Win32,60.24096386,,,,,,,,,,,,,,,,,,,,,,,372.7028,373.7338,a,1,0.3563,1,373.7341,374.2339,,,,,,305,MAS,WORD,DIS,150,avión,,la,,0.3563,,374.2341,374.2346,0.510416667,0.046875,0,0,0,,0,161,161,304,1,adiol,,,,
,,,,,,5f92ec3c26384e040f06e2db,676192165fb32c2e1fb7aee6,67d1557c4791717475144be7,2025-03-12_10h36.34.492,Tarea de decisión léxica,2024.2.5,Win32,60.24096386,,,,,,,,,,,,,,,,,,,,,,,374.2382,375.2165,a,1,0.3052,1,375.2167,375.7166,,,,,,451,FEM,WORD,AGR,150,fruta,,la,,0.3052,,375.7168,375.7171,0.510416667,0.046875,0,0,0,,0,162,162,450,1,clita,,,,
,,,,,,5f92ec3c26384e040f06e2db,676192165fb32c2e1fb7aee6,67d1557c4791717475144be7,2025-03-12_10h36.34.492,Tarea de decisión léxica,2024.2.5,Win32,60.24096386,,,,,,,,,,,,,,,,,,,,,,,375.7192,376.7998,a,1,0.4101,1,376.8,377.2998,,,,,,23,FEM,WORD,AGR,150,hija,,la,,0.4101,,377.3,377.3005,0.510416667,0.046875,0,0,0,,0,163,163,22,1,giva,,,,
,,,,,,5f92ec3c26384e040f06e2db,676192165fb32c2e1fb7aee6,67d1557c4791717475144be7,2025-03-12_10h36.34.492,Tarea de decisión léxica,2024.2.5,Win32,60.24096386,,,,,,,,,,,,,,,,,,,,,,,377.3027,378.2998,l,1,0.3181,1,378.3,378.7995,,,,,,222,FEM,NOWORD,DIS,150,puca,,el,,0.3181,,378.7996,378.8,0.510416667,0.046875,0,0,0,,0,164,164,221,1,mula,,,,
,,,,,,5f92ec3c26384e040f06e2db,676192165fb32c2e1fb7aee6,67d1557c4791717475144be7,2025-03-12_10h36.34.492,Tarea de decisión léxica,2024.2.5,Win32,60.24096386,,,,,,,,,,,,,,,,,,,,,,,378.8015,379.8992,l,1,0.4207,1,379.8994,380.3993,,,,,,56,MAS,NOWORD,AGR,150,jado,,el,,0.4207,,380.4021,380.4037,0.510416667,0.046875,0,0,0,,0,165,165,55,1,gato,,,,
,,,,,,5f92ec3c26384e040f06e2db,676192165fb32c2e1fb7aee6,67d1557c4791717475144be7,2025-03-12_10h36.34.492,Tarea de decisión léxica,2024.2.5,Win32,60.24096386,,,,,,,,,,,,,,,,,,,,,,,380.4051,381.3494,a,1,0.274,1,381.3495,381.8493,,,,,,191,FEM,WORD,AGR,150,pila,,la,,0.274,,381.8494,381.8496,0.510416667,0.046875,0,0,0,,0,166,166,190,1,bila,,,,
,,,,,,5f92ec3c26384e040f06e2db,676192165fb32c2e1fb7aee6,67d1557c4791717475144be7,2025-03-12_10h36.34.492,Tarea de decisión léxica,2024.2.5,Win32,60.24096386,,,,,,,,,,,,,,,,,,,,,,,381.8516,382.899,l,1,0.3781,1,382.8992,383.3993,,,,,,382,MAS,NOWORD,DIS,150,nusor,,la,,0.3781,,383.3994,383.3998,0.510416667,0.046875,0,0,0,,0,167,167,381,1,humor,,,,
,,,,,,5f92ec3c26384e040f06e2db,676192165fb32c2e1fb7aee6,67d1557c4791717475144be7,2025-03-12_10h36.34.492,Tarea de decisión léxica,2024.2.5,Win32,60.24096386,,,,,,,,,,,,,,,,,,,,,,,383.4018,384.3155,a,1,0.2449,1,384.3157,384.8162,,,,,,71,FEM,WORD,AGR,150,isla,,la,,0.2449,,384.8164,384.8167,0.510416667,0.046875,0,0,0,,0,168,168,70,1,urla,,,,
,,,,,,5f92ec3c26384e040f06e2db,676192165fb32c2e1fb7aee6,67d1557c4791717475144be7,2025-03-12_10h36.34.492,Tarea de decisión léxica,2024.2.5,Win32,60.24096386,,,,,,,,,,,,,,,,,,,,,,,384.8192,385.8488,l,1,0.3523,1,385.8488,386.3487,,,,,,376,FEM,NOWORD,AGR,150,sasna,,la,,0.3523,,386.3487,386.349,0.510416667,0.046875,0,0,0,,0,169,169,375,1,salsa,,,,
,,,,,,5f92ec3c26384e040f06e2db,676192165fb32c2e1fb7aee6,67d1557c4791717475144be7,2025-03-12_10h36.34.492,Tarea de decisión léxica,2024.2.5,Win32,60.24096386,,,,,,,,,,,,,,,,,,,,,,,386.3505,387.4818,l,1,0.4606,1,387.482,387.9827,,,,,,270,MAS,NOWORD,DIS,150,mello,,la,,0.4606,,387.9857,387.9875,0.510416667,0.046875,0,0,0,,0,170,170,269,1,perro,,,,
,,,,,,5f92ec3c26384e040f06e2db,676192165fb32c2e1fb7aee6,67d1557c4791717475144be7,2025-03-12_10h36.34.492,Tarea de decisión léxica,2024.2.5,Win32,60.24096386,,,,,,,,,,,,,,,,,,,,,,,387.9894,388.9325,a,1,0.2717,1,388.9328,389.4319,,,,,,45,FEM,WORD,DIS,150,mesa,,el,,0.2717,,389.4319,389.432,0.510416667,0.046875,0,0,0,,0,171,171,44,1,pema,,,,
,,,,,,5f92ec3c26384e040f06e2db,676192165fb32c2e1fb7aee6,67d1557c4791717475144be7,2025-03-12_10h36.34.492,Tarea de decisión léxica,2024.2.5,Win32,60.24096386,,,,,,,,,,,,,,,,,,,,,,,389.4331,390.4321,a,1,0.3237,1,390.4323,390.9324,,,,,,351,MAS,WORD,AGR,150,vuelo,,el,,0.3237,,390.9325,390.9329,0.510416667,0.046875,0,0,0,,0,172,172,350,1,duepo,,,,
,,,,,,5f92ec3c26384e040f06e2db,676192165fb32c2e1fb7aee6,67d1557c4791717475144be7,2025-03-12_10h36.34.492,Tarea de decisión léxica,2024.2.5,Win32,60.24096386,,,,,,,,,,,,,,,,,,,,,,,390.9355,391.8816,a,1,0.2645,1,391.8817,392.3814,,,,,,253,MAS,WORD,DIS,150,chico,,la,,0.2645,,392.3814,392.3815,0.510416667,0.046875,0,0,0,,0,173,173,252,1,trido,,,,
,,,,,,5f92ec3c26384e040f06e2db,676192165fb32c2e1fb7aee6,67d1557c4791717475144be7,2025-03-12_10h36.34.492,Tarea de decisión léxica,2024.2.5,Win32,60.24096386,,,,,,,,,,,,,,,,,,,,,,,392.3826,393.3652,l,1,0.3012,1,393.3654,393.8646,,,,,,408,FEM,NOWORD,AGR,150,cauba,,la,,0.3012,,393.8647,393.8648,0.510416667,0.046875,0,0,0,,0,174,174,407,1,cueva,,,,
,,,,,,5f92ec3c26384e040f06e2db,676192165fb32c2e1fb7aee6,67d1557c4791717475144be7,2025-03-12_10h36.34.492,Tarea de decisión léxica,2024.2.5,Win32,60.24096386,,,,,,,,,,,,,,,,,,,,,,,393.8659,394.898,a,1,0.3506,1,394.8981,395.3981,,,,,,379,MAS,WORD,AGR,150,turno,,el,,0.3506,,395.3994,395.4001,0.510416667,0.046875,0,0,0,,0,175,175,378,1,tunso,,,,
,,,,,,5f92ec3c26384e040f06e2db,676192165fb32c2e1fb7aee6,67d1557c4791717475144be7,2025-03-12_10h36.34.492,Tarea de decisión léxica,2024.2.5,Win32,60.24096386,,,,,,,,,,,,,,,,,,,,,,,395.401,396.4151,l,1,0.3386,1,396.4153,396.9147,,,,,,350,MAS,NOWORD,DIS,150,cosir,,la,,0.3386,,396.9148,396.9151,0.510416667,0.046875,0,0,0,,0,176,176,349,1,color,,,,
,,,,,,5f92ec3c26384e040f06e2db,676192165fb32c2e1fb7aee6,67d1557c4791717475144be7,2025-03-12_10h36.34.492,Tarea de decisión léxica,2024.2.5,Win32,60.24096386,,,,,,,,,,,,,,,,,,,,,,,396.9168,397.8482,a,1,0.2597,1,397.8483,398.3486,,,,,,301,FEM,WORD,DIS,150,banda,,el,,0.2597,,398.3487,398.349,0.510416667,0.046875,0,0,0,,0,177,177,300,1,ranga,,,,
,,,,,,5f92ec3c26384e040f06e2db,676192165fb32c2e1fb7aee6,67d1557c4791717475144be7,2025-03-12_10h36.34.492,Tarea de decisión léxica,2024.2.5,Win32,60.24096386,,,,,,,,,,,,,,,,,,,,,,,398.3516,399.5649,a,1,0.54,1,399.5651,400.0646,,,,,,131,FEM,WORD,AGR,150,mina,,la,,0.54,,400.0647,400.0651,0.510416667,0.046875,0,0,0,,0,178,178,130,1,fada,,,,
,,,,,,5f92ec3c26384e040f06e2db,676192165fb32c2e1fb7aee6,67d1557c4791717475144be7,2025-03-12_10h36.34.492,Tarea de decisión léxica,2024.2.5,Win32,60.24096386,,,,,,,,,,,,,,,,,,,,,,,400.0667,401.0979,l,1,0.3492,1,401.098,401.5979,,,,,,160,MAS,NOWORD,AGR,150,bilo,,el,,0.3492,,401.6003,401.6018,0.510416667,0.046875,0,0,0,,0,179,179,159,1,giro,,,,
,,,,,,5f92ec3c26384e040f06e2db,676192165fb32c2e1fb7aee6,67d1557c4791717475144be7,2025-03-12_10h36.34.492,Tarea de decisión léxica,2024.2.5,Win32,60.24096386,,,,,,,,,,,,,,,,,,,,,,,401.6031,402.6478,l,1,0.373,1,402.6479,403.1475,,,,,,6,FEM,NOWORD,DIS,150,poga,,el,,0.373,,403.1476,403.1477,0.510416667,0.046875,0,0,0,,0,180,180,5,1,cosa,,,,
,,,,,,5f92ec3c26384e040f06e2db,676192165fb32c2e1fb7aee6,67d1557c4791717475144be7,2025-03-12_10h36.34.492,Tarea de decisión léxica,2024.2.5,Win32,60.24096386,,,,,,,,,,,,,,,,,,,,,,,403.1488,404.1495,a,1,0.3293,1,404.1496,404.6482,,,,,,37,MAS,WORD,DIS,150,rato,,la,,0.3293,,404.6484,404.6487,0.510416667,0.046875,0,0,0,,0,181,181,36,1,gaco,,,,
,,,,,,5f92ec3c26384e040f06e2db,676192165fb32c2e1fb7aee6,67d1557c4791717475144be7,2025-03-12_10h36.34.492,Tarea de decisión léxica,2024.2.5,Win32,60.24096386,,,,,,,,,,,,,,,,,,,,,,,404.6518,405.8642,l,1,0.5416,1,405.8644,406.364,,,,,,46,FEM,NOWORD,DIS,150,pema,,el,,0.5416,,406.3641,406.3644,0.510416667,0.046875,0,0,0,,0,182,182,45,1,mesa,,,,
,,,,,,5f92ec3c26384e040f06e2db,676192165fb32c2e1fb7aee6,67d1557c4791717475144be7,2025-03-12_10h36.34.492,Tarea de decisión léxica,2024.2.5,Win32,60.24096386,,,,,,,,,,,,,,,,,,,,,,,406.3658,407.4311,a,1,0.3935,1,407.4313,407.9311,,,,,,325,FEM,WORD,DIS,150,magia,,el,,0.3935,,407.9311,407.9315,0.510416667,0.046875,0,0,0,,0,183,183,324,1,mabia,,,,
,,,,,,5f92ec3c26384e040f06e2db,676192165fb32c2e1fb7aee6,67d1557c4791717475144be7,2025-03-12_10h36.34.492,Tarea de decisión léxica,2024.2.5,Win32,60.24096386,,,,,,,,,,,,,,,,,,,,,,,407.9338,408.9144,l,1,0.3018,1,408.9146,409.4137,,,,,,224,FEM,NOWORD,AGR,150,cira,,la,,0.3018,,409.4149,409.4157,0.510416667,0.046875,0,0,0,,0,184,184,223,1,cera,,,,
,,,,,,5f92ec3c26384e040f06e2db,676192165fb32c2e1fb7aee6,67d1557c4791717475144be7,2025-03-12_10h36.34.492,Tarea de decisión léxica,2024.2.5,Win32,60.24096386,,,,,,,,,,,,,,,,,,,,,,,409.4164,410.4305,a,1,0.3373,1,410.4307,410.9303,,,,,,411,MAS,WORD,AGR,150,pollo,,el,,0.3373,,410.9304,410.9306,0.510416667,0.046875,0,0,0,,0,185,185,410,1,mobro,,,,
,,,,,,5f92ec3c26384e040f06e2db,676192165fb32c2e1fb7aee6,67d1557c4791717475144be7,2025-03-12_10h36.34.492,Tarea de decisión léxica,2024.2.5,Win32,60.24096386,,,,,,,,,,,,,,,,,,,,,,,410.9318,412.0306,a,1,0.4266,1,412.0309,412.5305,,,,,,177,MAS,WORD,DIS,150,reto,,la,,0.4266,,412.5306,412.5308,0.510416667,0.046875,0,0,0,,0,186,186,176,1,bito,,,,
,,,,,,5f92ec3c26384e040f06e2db,676192165fb32c2e1fb7aee6,67d1557c4791717475144be7,2025-03-12_10h36.34.492,Tarea de decisión léxica,2024.2.5,Win32,60.24096386,,,,,,,,,,,,,,,,,,,,,,,412.5324,413.4802,a,1,0.2685,1,413.4803,413.9802,,,,,,229,MAS,WORD,DIS,150,amor,,la,,0.2685,,413.9803,413.9805,0.510416667,0.046875,0,0,0,,0,187,187,228,1,ador,,,,
,,,,,,5f92ec3c26384e040f06e2db,676192165fb32c2e1fb7aee6,67d1557c4791717475144be7,2025-03-12_10h36.34.492,Tarea de decisión léxica,2024.2.5,Win32,60.24096386,,,,,,,,,,,,,,,,,,,,,,,413.9815,415.0134,l,1,0.3506,1,415.0135,415.5136,,,,,,296,MAS,NOWORD,AGR,150,goler,,el,,0.3506,,415.5137,415.5139,0.510416667,0.046875,0,0,0,,0,188,188,295,1,dolor,,,,
,,,,,,5f92ec3c26384e040f06e2db,676192165fb32c2e1fb7aee6,67d1557c4791717475144be7,2025-03-12_10h36.34.492,Tarea de decisión léxica,2024.2.5,Win32,60.24096386,,,,,,,,,,,,,,,,,,,,,,,415.5159,416.6299,l,1,0.435,1,416.63,417.1297,,,,,,110,MAS,NOWORD,DIS,150,suno,,la,,0.435,,417.1311,417.132,0.510416667,0.046875,0,0,0,,0,189,189,109,1,rayo,,,,
,,,,,,5f92ec3c26384e040f06e2db,676192165fb32c2e1fb7aee6,67d1557c4791717475144be7,2025-03-12_10h36.34.492,Tarea de decisión léxica,2024.2.5,Win32,60.24096386,,,,,,,,,,,,,,,,,,,,,,,417.1329,418.0804,a,1,0.2697,1,418.0806,418.581,,,,,,443,MAS,WORD,AGR,150,salón,,el,,0.2697,,418.5812,418.5819,0.510416667,0.046875,0,0,0,,0,190,190,442,1,taron,,,,
,,,,,,5f92ec3c26384e040f06e2db,676192165fb32c2e1fb7aee6,67d1557c4791717475144be7,2025-03-12_10h36.34.492,Tarea de decisión léxica,2024.2.5,Win32,60.24096386,,,,,,,,,,,,,,,,,,,,,,,418.5857,419.563,a,1,0.3068,1,419.5631,420.0629,,,,,,3,FEM,WORD,AGR,150,vida,,la,,0.3068,,420.0629,420.0632,0.510416667,0.046875,0,0,0,,0,191,191,2,1,dica,,,,
,,,,,,5f92ec3c26384e040f06e2db,676192165fb32c2e1fb7aee6,67d1557c4791717475144be7,2025-03-12_10h36.34.492,Tarea de decisión léxica,2024.2.5,Win32,60.24096386,,,,,,,,,,,,,,,,,,,,,,,420.0646,421.1127,l,1,0.378,1,421.1127,421.613,,,,,,112,MAS,NOWORD,AGR,150,siro,,el,,0.378,,421.6131,421.6134,0.510416667,0.046875,0,0,0,,0,192,192,111,1,muro,,,,
,,,,,,5f92ec3c26384e040f06e2db,676192165fb32c2e1fb7aee6,67d1557c4791717475144be7,2025-03-12_10h36.34.492,Tarea de decisión léxica,2024.2.5,Win32,60.24096386,,,,,,,,,,,,,,,,,,,,,,,421.615,422.5962,l,0,0.3016,0,422.5975,423.0962,,,,,,397,FEM,WORD,DIS,150,tribu,,el,,0.3016,,423.0963,423.0967,0.510416667,0.046875,0,0,0,,0,193,193,396,1,trigi,,,,
,,,,,,5f92ec3c26384e040f06e2db,676192165fb32c2e1fb7aee6,67d1557c4791717475144be7,2025-03-12_10h36.34.492,Tarea de decisión léxica,2024.2.5,Win32,60.24096386,,,,,,,,,,,,,,,,,,,,,,,423.0987,424.2957,a,0,0.5286,0,424.2958,424.7967,,,,,,418,FEM,NOWORD,DIS,150,banja,,el,,0.5286,,424.801,424.8032,0.510416667,0.046875,0,0,0,,0,194,194,417,1,barba,,,,
,,,,,,5f92ec3c26384e040f06e2db,676192165fb32c2e1fb7aee6,67d1557c4791717475144be7,2025-03-12_10h36.34.492,Tarea de decisión léxica,2024.2.5,Win32,60.24096386,,,,,,,,,,,,,,,,,,,,,,,424.8055,426.0324,l,1,0.5654,1,426.0337,426.5291,,,,,,130,MAS,NOWORD,DIS,150,pima,,la,,0.5654,,426.5291,426.5294,0.510416667,0.046875,0,0,0,,0,195,195,129,1,oído,,,,
,,,,,,5f92ec3c26384e040f06e2db,676192165fb32c2e1fb7aee6,67d1557c4791717475144be7,2025-03-12_10h36.34.492,Tarea de decisión léxica,2024.2.5,Win32,60.24096386,,,,,,,,,,,,,,,,,,,,,,,426.5305,427.5795,a,1,0.3707,1,427.5798,428.0828,,,,,,405,FEM,WORD,DIS,150,barra,,el,,0.3707,,428.0829,428.0832,0.510416667,0.046875,0,0,0,,0,196,196,404,1,rarra,,,,
,,,,,,5f92ec3c26384e040f06e2db,676192165fb32c2e1fb7aee6,67d1557c4791717475144be7,2025-03-12_10h36.34.492,Tarea de decisión léxica,2024.2.5,Win32,60.24096386,,,,,,,,,,,,,,,,,,,,,,,428.0858,429.1795,l,1,0.4229,1,429.1799,429.6789,,,,,,176,FEM,NOWORD,AGR,150,hosa,,la,,0.4229,,429.679,429.6792,0.510416667,0.046875,0,0,0,,0,197,197,175,1,goma,,,,
,,,,,,5f92ec3c26384e040f06e2db,676192165fb32c2e1fb7aee6,67d1557c4791717475144be7,2025-03-12_10h36.34.492,Tarea de decisión léxica,2024.2.5,Win32,60.24096386,,,,,,,,,,,,,,,,,,,,,,,429.6814,430.6466,a,1,0.295,1,430.6468,431.1458,,,,,,17,FEM,WORD,DIS,150,mamá,,el,,0.295,,431.146,431.1468,0.510416667,0.046875,0,0,0,,0,198,198,16,1,paba,,,,
,,,,,,5f92ec3c26384e040f06e2db,676192165fb32c2e1fb7aee6,67d1557c4791717475144be7,2025-03-12_10h36.34.492,Tarea de decisión léxica,2024.2.5,Win32,60.24096386,,,,,,,,,,,,,,,,,,,,,,,431.1495,432.2188,l,1,0.3996,1,432.219,432.7126,,,,,,348,FEM,NOWORD,AGR,150,mueza,,la,,0.3996,,432.7167,432.7186,0.510416667,0.046875,0,0,0,,0,199,199,347,1,pieza,,,,
,,,,,,5f92ec3c26384e040f06e2db,676192165fb32c2e1fb7aee6,67d1557c4791717475144be7,2025-03-12_10h36.34.492,Tarea de decisión léxica,2024.2.5,Win32,60.24096386,,,,,,,,,,,,,,,,,,,,,,,432.7207,433.6842,a,1,0.2994,1,433.6843,434.1783,,,,,,213,FEM,WORD,DIS,150,rama,,el,,0.2994,,434.1784,434.1785,0.510416667,0.046875,0,0,0,,0,200,200,212,1,bana,,,,
,,,,,,5f92ec3c26384e040f06e2db,676192165fb32c2e1fb7aee6,67d1557c4791717475144be7,2025-03-12_10h36.34.492,Tarea de decisión léxica,2024.2.5,Win32,60.24096386,,,,,,,,,,,,,,,,,,,,,,,434.1797,435.245,a,1,0.3907,1,435.2451,435.7452,,,,,,15,FEM,WORD,AGR,150,idea,,la,,0.3907,,435.7452,435.7457,0.510416667,0.046875,0,0,0,,0,201,201,14,1,odea,,,,
,,,,,,5f92ec3c26384e040f06e2db,676192165fb32c2e1fb7aee6,67d1557c4791717475144be7,2025-03-12_10h36.34.492,Tarea de decisión léxica,2024.2.5,Win32,60.24096386,,,,,,,,,,,,,,,,,,,,,,,435.7475,436.7955,a,1,0.3709,1,436.7962,437.2956,,,,,,361,FEM,WORD,DIS,150,torre,,el,,0.3709,,437.2957,437.2967,0.510416667,0.046875,0,0,0,,0,202,202,360,1,solle,,,,
,,,,,,5f92ec3c26384e040f06e2db,676192165fb32c2e1fb7aee6,67d1557c4791717475144be7,2025-03-12_10h36.34.492,Tarea de decisión léxica,2024.2.5,Win32,60.24096386,,,,,,,,,,,,,,,,,,,,,,,437.2997,438.3503,l,1,0.3805,1,438.3505,438.845,,,,,,468,MAS,NOWORD,AGR,150,peiso,,el,,0.3805,,438.8474,438.8486,0.510416667,0.046875,0,0,0,,0,203,203,467,1,piano,,,,
,,,,,,5f92ec3c26384e040f06e2db,676192165fb32c2e1fb7aee6,67d1557c4791717475144be7,2025-03-12_10h36.34.492,Tarea de decisión léxica,2024.2.5,Win32,60.24096386,,,,,,,,,,,,,,,,,,,,,,,438.8498,439.9946,a,1,0.4763,1,439.9947,440.4946,,,,,,107,MAS,WORD,AGR,150,saco,,el,,0.4763,,440.4946,440.4947,0.510416667,0.046875,0,0,0,,0,204,204,106,1,raot,,,,
,,,,,,5f92ec3c26384e040f06e2db,676192165fb32c2e1fb7aee6,67d1557c4791717475144be7,2025-03-12_10h36.34.492,Tarea de decisión léxica,2024.2.5,Win32,60.24096386,,,,,,,,,,,,,,,,,,,,,,,440.496,441.5614,l,1,0.3878,1,441.5615,442.0622,,,,,,302,FEM,NOWORD,DIS,150,ranga,,el,,0.3878,,442.0624,442.0632,0.510416667,0.046875,0,0,0,,0,205,205,301,1,banda,,,,
,,,,,,5f92ec3c26384e040f06e2db,676192165fb32c2e1fb7aee6,67d1557c4791717475144be7,2025-03-12_10h36.34.492,Tarea de decisión léxica,2024.2.5,Win32,60.24096386,,,,,,,,,,,,,,,,,,,,,,,442.0667,443.0957,a,0,0.3592,0,443.0986,443.5945,,,,,,178,MAS,NOWORD,DIS,150,bito,,la,,0.3592,,443.5946,443.5947,0.510416667,0.046875,0,0,0,,0,206,206,177,1,reto,,,,
,,,,,,5f92ec3c26384e040f06e2db,676192165fb32c2e1fb7aee6,67d1557c4791717475144be7,2025-03-12_10h36.34.492,Tarea de decisión léxica,2024.2.5,Win32,60.24096386,,,,,,,,,,,,,,,,,,,,,,,443.5961,444.7948,l,1,0.5173,1,444.7971,445.295,,,,,,82,FEM,NOWORD,DIS,150,vasa,,el,,0.5173,,445.2952,445.2955,0.510416667,0.046875,0,0,0,,0,207,207,81,1,dama,,,,
,,,,,,5f92ec3c26384e040f06e2db,676192165fb32c2e1fb7aee6,67d1557c4791717475144be7,2025-03-12_10h36.34.492,Tarea de decisión léxica,2024.2.5,Win32,60.24096386,,,,,,,,,,,,,,,,,,,,,,,445.298,446.4108,a,1,0.4354,1,446.411,446.9109,,,,,,279,FEM,WORD,AGR,150,prisa,,la,,0.4354,,446.9125,446.9132,0.510416667,0.046875,0,0,0,,0,208,208,278,1,grina,,,,
,,,,,,5f92ec3c26384e040f06e2db,676192165fb32c2e1fb7aee6,67d1557c4791717475144be7,2025-03-12_10h36.34.492,Tarea de decisión léxica,2024.2.5,Win32,60.24096386,,,,,,,,,,,,,,,,,,,,,,,446.9141,447.9779,l,1,0.3847,1,447.9782,448.4778,,,,,,210,MAS,NOWORD,DIS,150,dero,,la,,0.3847,,448.478,448.4788,0.510416667,0.046875,0,0,0,,0,209,209,209,1,velo,,,,
,,,,,,5f92ec3c26384e040f06e2db,676192165fb32c2e1fb7aee6,67d1557c4791717475144be7,2025-03-12_10h36.34.492,Tarea de decisión léxica,2024.2.5,Win32,60.24096386,,,,,,,,,,,,,,,,,,,,,,,448.4811,449.5774,l,1,0.4255,1,449.5777,450.0774,,,,,,226,MAS,NOWORD,DIS,150,boco,,la,,0.4255,,450.0775,450.0777,0.510416667,0.046875,0,0,0,,0,210,210,225,1,lodo,,,,
,,,,,,5f92ec3c26384e040f06e2db,676192165fb32c2e1fb7aee6,67d1557c4791717475144be7,2025-03-12_10h36.34.492,Tarea de decisión léxica,2024.2.5,Win32,60.24096386,,,,,,,,,,,,,,,,,,,,,,,450.0799,451.0605,a,1,0.2917,1,451.0606,451.5615,,,,,,355,FEM,WORD,AGR,150,regla,,la,,0.2917,,451.5616,451.562,0.510416667,0.046875,0,0,0,,0,211,211,354,1,bepla,,,,
,,,,,,5f92ec3c26384e040f06e2db,676192165fb32c2e1fb7aee6,67d1557c4791717475144be7,2025-03-12_10h36.34.492,Tarea de decisión léxica,2024.2.5,Win32,60.24096386,,,,,,,,,,,,,,,,,,,,,,,451.5638,452.666,l,1,0.4172,1,452.6661,453.1629,,,,,,38,MAS,NOWORD,DIS,150,gaco,,la,,0.4172,,453.163,453.1632,0.510416667,0.046875,0,0,0,,0,212,212,37,1,rato,,,,
,,,,,,5f92ec3c26384e040f06e2db,676192165fb32c2e1fb7aee6,67d1557c4791717475144be7,2025-03-12_10h36.34.492,Tarea de decisión léxica,2024.2.5,Win32,60.24096386,,,,,,,,,,,,,,,,,,,,,,,453.1644,454.3101,l,1,0.4715,1,454.3102,454.8116,,,,,,314,MAS,NOWORD,DIS,150,govio,,la,,0.4715,,454.8135,454.8146,0.510416667,0.046875,0,0,0,,0,213,213,313,1,novio,,,,
,,,,,,5f92ec3c26384e040f06e2db,676192165fb32c2e1fb7aee6,67d1557c4791717475144be7,2025-03-12_10h36.34.492,Tarea de decisión léxica,2024.2.5,Win32,60.24096386,,,,,,,,,,,,,,,,,,,,,,,454.8157,455.8278,a,1,0.3432,1,455.8282,456.3271,,,,,,371,FEM,WORD,AGR,150,pasta,,la,,0.3432,,456.3272,456.3275,0.510416667,0.046875,0,0,0,,0,214,214,370,1,mosta,,,,
,,,,,,5f92ec3c26384e040f06e2db,676192165fb32c2e1fb7aee6,67d1557c4791717475144be7,2025-03-12_10h36.34.492,Tarea de decisión léxica,2024.2.5,Win32,60.24096386,,,,,,,,,,,,,,,,,,,,,,,456.3295,457.3946,a,1,0.3917,1,457.3948,457.8943,,,,,,51,FEM,WORD,AGR,150,caja,,la,,0.3917,,457.8945,457.895,0.510416667,0.046875,0,0,0,,0,215,215,50,1,mava,,,,
,,,,,,5f92ec3c26384e040f06e2db,676192165fb32c2e1fb7aee6,67d1557c4791717475144be7,2025-03-12_10h36.34.492,Tarea de decisión léxica,2024.2.5,Win32,60.24096386,,,,,,,,,,,,,,,,,,,,,,,457.898,458.9611,l,1,0.3907,1,458.9614,459.4614,,,,,,444,MAS,NOWORD,AGR,150,taron,,el,,0.3907,,459.4616,459.4621,0.510416667,0.046875,0,0,0,,0,216,216,443,1,salón,,,,
,,,,,,5f92ec3c26384e040f06e2db,676192165fb32c2e1fb7aee6,67d1557c4791717475144be7,2025-03-12_10h36.34.492,Tarea de decisión léxica,2024.2.5,Win32,60.24096386,,,,,,,,,,,,,,,,,,,,,,,459.466,460.4982,a,1,0.3664,1,460.4984,460.9935,,,,,,269,MAS,WORD,DIS,150,perro,,la,,0.3664,,460.9936,460.994,0.510416667,0.046875,0,0,0,,0,217,217,268,1,mello,,,,
,,,,,,5f92ec3c26384e040f06e2db,676192165fb32c2e1fb7aee6,67d1557c4791717475144be7,2025-03-12_10h36.34.492,Tarea de decisión léxica,2024.2.5,Win32,60.24096386,,,,,,,,,,,,,,,,,,,,,,,460.996,462.0264,a,1,0.3537,1,462.0264,462.5263,,,,,,455,MAS,WORD,AGR,150,reino,,el,,0.3537,,462.5278,462.5295,0.510416667,0.046875,0,0,0,,0,218,218,454,1,riaso,,,,
,,,,,,5f92ec3c26384e040f06e2db,676192165fb32c2e1fb7aee6,67d1557c4791717475144be7,2025-03-12_10h36.34.492,Tarea de decisión léxica,2024.2.5,Win32,60.24096386,,,,,,,,,,,,,,,,,,,,,,,462.5313,463.5932,a,1,0.3876,1,463.5935,464.0934,,,,,,339,MAS,WORD,AGR,150,brazo,,el,,0.3876,,464.0936,464.0942,0.510416667,0.046875,0,0,0,,0,219,219,338,1,plajo,,,,
,,,,,,5f92ec3c26384e040f06e2db,676192165fb32c2e1fb7aee6,67d1557c4791717475144be7,2025-03-12_10h36.34.492,Tarea de decisión léxica,2024.2.5,Win32,60.24096386,,,,,,,,,,,,,,,,,,,,,,,464.0969,465.2098,l,0,0.437,0,465.2113,465.7098,,,,,,417,FEM,WORD,DIS,150,barba,,el,,0.437,,465.7099,465.7107,0.510416667,0.046875,0,0,0,,0,220,220,416,1,banja,,,,
,,,,,,5f92ec3c26384e040f06e2db,676192165fb32c2e1fb7aee6,67d1557c4791717475144be7,2025-03-12_10h36.34.492,Tarea de decisión léxica,2024.2.5,Win32,60.24096386,,,,,,,,,,,,,,,,,,,,,,,465.7128,466.7771,l,1,0.3853,1,466.7801,467.2765,,,,,,288,FEM,NOWORD,AGR,150,fosta,,la,,0.3853,,467.2767,467.2776,0.510416667,0.046875,0,0,0,,0,221,221,287,1,lista,,,,
,,,,,,5f92ec3c26384e040f06e2db,676192165fb32c2e1fb7aee6,67d1557c4791717475144be7,2025-03-12_10h36.34.492,Tarea de decisión léxica,2024.2.5,Win32,60.24096386,,,,,,,,,,,,,,,,,,,,,,,467.2801,468.3426,l,1,0.3907,1,468.3427,468.8434,,,,,,154,MAS,NOWORD,DIS,150,tado,,la,,0.3907,,468.8441,468.8446,0.510416667,0.046875,0,0,0,,0,222,222,153,1,pato,,,,
,,,,,,5f92ec3c26384e040f06e2db,676192165fb32c2e1fb7aee6,67d1557c4791717475144be7,2025-03-12_10h36.34.492,Tarea de decisión léxica,2024.2.5,Win32,60.24096386,,,,,,,,,,,,,,,,,,,,,,,468.849,469.9429,l,1,0.4205,1,469.9431,470.4425,,,,,,394,FEM,NOWORD,DIS,150,ashea,,el,,0.4205,,470.4445,470.4458,0.510416667,0.046875,0,0,0,,0,223,223,393,1,aldea,,,,
,,,,,,5f92ec3c26384e040f06e2db,676192165fb32c2e1fb7aee6,67d1557c4791717475144be7,2025-03-12_10h36.34.492,Tarea de decisión léxica,2024.2.5,Win32,60.24096386,,,,,,,,,,,,,,,,,,,,,,,470.4468,471.5128,l,1,0.4001,1,471.5128,472.0092,,,,,,48,MAS,NOWORD,AGR,150,chub,,el,,0.4001,,472.0094,472.0098,0.510416667,0.046875,0,0,0,,0,224,224,47,1,club,,,,
,,,,,,5f92ec3c26384e040f06e2db,676192165fb32c2e1fb7aee6,67d1557c4791717475144be7,2025-03-12_10h36.34.492,Tarea de decisión léxica,2024.2.5,Win32,60.24096386,,,,,,,,,,,,,,,,,,,,,,,472.0118,473.1169,l,1,0.4352,1,473.1172,473.6094,,,,,,126,MAS,NOWORD,DIS,150,vudo,,la,,0.4352,,473.6096,473.6101,0.510416667,0.046875,0,0,0,,0,225,225,125,1,lujo,,,,
,,,,,,5f92ec3c26384e040f06e2db,676192165fb32c2e1fb7aee6,67d1557c4791717475144be7,2025-03-12_10h36.34.492,Tarea de decisión léxica,2024.2.5,Win32,60.24096386,,,,,,,,,,,,,,,,,,,,,,,473.6125,474.9658,l,1,0.6836,1,474.9661,475.4602,,,,,,430,FEM,NOWORD,DIS,150,tenta,,el,,0.6836,,475.4606,475.4612,0.510416667,0.046875,0,0,0,,0,226,226,429,1,tarta,,,,
,,,,,,5f92ec3c26384e040f06e2db,676192165fb32c2e1fb7aee6,67d1557c4791717475144be7,2025-03-12_10h36.34.492,Tarea de decisión léxica,2024.2.5,Win32,60.24096386,,,,,,,,,,,,,,,,,,,,,,,475.4652,476.542,a,1,0.4042,1,476.5422,477.0421,,,,,,103,FEM,WORD,AGR,150,ruta,,la,,0.4042,,477.0441,477.0451,0.510416667,0.046875,0,0,0,,0,227,227,102,1,rova,,,,
,,,,,,5f92ec3c26384e040f06e2db,676192165fb32c2e1fb7aee6,67d1557c4791717475144be7,2025-03-12_10h36.34.492,Tarea de decisión léxica,2024.2.5,Win32,60.24096386,,,,,,,,,,,,,,,,,,,,,,,477.046,478.0255,l,1,0.3061,1,478.0258,478.5253,,,,,,442,FEM,NOWORD,DIS,150,telza,,el,,0.3061,,478.5254,478.5257,0.510416667,0.046875,0,0,0,,0,228,228,441,1,selva,,,,
,,,,,,5f92ec3c26384e040f06e2db,676192165fb32c2e1fb7aee6,67d1557c4791717475144be7,2025-03-12_10h36.34.492,Tarea de decisión léxica,2024.2.5,Win32,60.24096386,,,,,,,,,,,,,,,,,,,,,,,478.5283,479.5583,a,1,0.3645,1,479.5584,480.0583,,,,,,331,MAS,WORD,AGR,150,éxito,,el,,0.3645,,480.0583,480.0585,0.510416667,0.046875,0,0,0,,0,229,229,330,1,erato,,,,
,,,,,,5f92ec3c26384e040f06e2db,676192165fb32c2e1fb7aee6,67d1557c4791717475144be7,2025-03-12_10h36.34.492,Tarea de decisión léxica,2024.2.5,Win32,60.24096386,,,,,,,,,,,,,,,,,,,,,,,480.0597,481.0915,a,1,0.3524,1,481.0916,481.5914,,,,,,359,MAS,WORD,AGR,150,calor,,el,,0.3524,,481.5915,481.5917,0.510416667,0.046875,0,0,0,,0,230,230,358,1,cacer,,,,
,,,,,,5f92ec3c26384e040f06e2db,676192165fb32c2e1fb7aee6,67d1557c4791717475144be7,2025-03-12_10h36.34.492,Tarea de decisión léxica,2024.2.5,Win32,60.24096386,,,,,,,,,,,,,,,,,,,,,,,481.5928,482.6247,a,1,0.3574,1,482.6248,483.1247,,,,,,67,FEM,WORD,AGR,150,nena,,la,,0.3574,,483.1247,483.1248,0.510416667,0.046875,0,0,0,,0,231,231,66,1,gesa,,,,
,,,,,,5f92ec3c26384e040f06e2db,676192165fb32c2e1fb7aee6,67d1557c4791717475144be7,2025-03-12_10h36.34.492,Tarea de decisión léxica,2024.2.5,Win32,60.24096386,,,,,,,,,,,,,,,,,,,,,,,483.1259,484.342,l,1,0.5276,1,484.3422,484.8412,,,,,,310,FEM,NOWORD,DIS,150,tirra,,el,,0.5276,,484.8428,484.8437,0.510416667,0.046875,0,0,0,,0,232,232,309,1,silla,,,,
,,,,,,5f92ec3c26384e040f06e2db,676192165fb32c2e1fb7aee6,67d1557c4791717475144be7,2025-03-12_10h36.34.492,Tarea de decisión léxica,2024.2.5,Win32,60.24096386,,,,,,,,,,,,,,,,,,,,,,,484.8445,486.0422,l,1,0.54,1,486.0426,486.5422,,,,,,460,MAS,NOWORD,AGR,150,fraco,,el,,0.54,,486.5426,486.5431,0.510416667,0.046875,0,0,0,,0,233,233,459,1,grado,,,,
,,,,,,5f92ec3c26384e040f06e2db,676192165fb32c2e1fb7aee6,67d1557c4791717475144be7,2025-03-12_10h36.34.492,Tarea de decisión léxica,2024.2.5,Win32,60.24096386,,,,,,,,,,,,,,,,,,,,,,,486.5464,487.6113,l,1,0.3963,1,487.6115,488.1081,,,,,,204,FEM,NOWORD,AGR,150,beja,,la,,0.3963,,488.1081,488.1086,0.510416667,0.046875,0,0,0,,0,234,234,203,1,leña,,,,
,,,,,,5f92ec3c26384e040f06e2db,676192165fb32c2e1fb7aee6,67d1557c4791717475144be7,2025-03-12_10h36.34.492,Tarea de decisión léxica,2024.2.5,Win32,60.24096386,,,,,,,,,,,,,,,,,,,,,,,488.1106,489.1955,a,1,0.4155,1,489.1958,489.6924,,,,,,91,FEM,WORD,AGR,150,taza,,la,,0.4155,,489.6927,489.6934,0.510416667,0.046875,0,0,0,,0,235,235,90,1,sava,,,,
,,,,,,5f92ec3c26384e040f06e2db,676192165fb32c2e1fb7aee6,67d1557c4791717475144be7,2025-03-12_10h36.34.492,Tarea de decisión léxica,2024.2.5,Win32,60.24096386,,,,,,,,,,,,,,,,,,,,,,,489.6972,490.7282,l,1,0.3547,1,490.7283,491.2248,,,,,,24,FEM,NOWORD,AGR,150,giva,,la,,0.3547,,491.225,491.2257,0.510416667,0.046875,0,0,0,,0,236,236,23,1,hija,,,,
,,,,,,5f92ec3c26384e040f06e2db,676192165fb32c2e1fb7aee6,67d1557c4791717475144be7,2025-03-12_10h36.34.492,Tarea de decisión léxica,2024.2.5,Win32,60.24096386,,,,,,,,,,,,,,,,,,,,,,,491.2282,492.4247,a,1,0.5136,1,492.425,492.9244,,,,,,117,MAS,WORD,DIS,150,palo,,la,,0.5136,,492.9271,492.9282,0.510416667,0.046875,0,0,0,,0,237,237,116,1,movo,,,,
,,,,,,5f92ec3c26384e040f06e2db,676192165fb32c2e1fb7aee6,67d1557c4791717475144be7,2025-03-12_10h36.34.492,Tarea de decisión léxica,2024.2.5,Win32,60.24096386,,,,,,,,,,,,,,,,,,,,,,,492.9295,493.9086,a,1,0.3023,1,493.9089,494.411,,,,,,407,FEM,WORD,AGR,150,cueva,,la,,0.3023,,494.4111,494.4114,0.510416667,0.046875,0,0,0,,0,238,238,406,1,cauba,,,,
,,,,,,5f92ec3c26384e040f06e2db,676192165fb32c2e1fb7aee6,67d1557c4791717475144be7,2025-03-12_10h36.34.492,Tarea de decisión léxica,2024.2.5,Win32,60.24096386,,,,,,,,,,,,,,,,,,,,,,,494.4132,495.374,a,1,0.2868,1,495.374,495.8737,,,,,,299,FEM,WORD,AGR,150,bolsa,,la,,0.2868,,495.8737,495.8739,0.510416667,0.046875,0,0,0,,0,239,239,298,1,bosga,,,,
,,,,,,5f92ec3c26384e040f06e2db,676192165fb32c2e1fb7aee6,67d1557c4791717475144be7,2025-03-12_10h36.34.492,Tarea de decisión léxica,2024.2.5,Win32,60.24096386,,,,,,,,,,,,,,,,,,,,,,,495.8752,496.8757,a,1,0.3411,1,496.8761,497.3746,,,,,,133,FEM,WORD,DIS,150,vaca,,el,,0.3411,,497.3748,497.3752,0.510416667,0.046875,0,0,0,,0,240,240,132,1,vesa,,,,
,,,,,,5f92ec3c26384e040f06e2db,676192165fb32c2e1fb7aee6,67d1557c4791717475144be7,2025-03-12_10h36.34.492,Tarea de decisión léxica,2024.2.5,Win32,60.24096386,,,,,,,,,,,,,,,,,,,,,,,497.3781,498.4578,a,1,0.4068,1,498.458,498.9577,,,,,,471,FEM,WORD,AGR,150,grasa,,la,,0.4068,,498.9578,498.9588,0.510416667,0.046875,0,0,0,,0,241,241,470,1,prana,,,,
,,,,,,5f92ec3c26384e040f06e2db,676192165fb32c2e1fb7aee6,67d1557c4791717475144be7,2025-03-12_10h36.34.492,Tarea de decisión léxica,2024.2.5,Win32,60.24096386,,,,,,,,,,,,,,,,,,,,,,,498.9617,500.2068,a,1,0.5744,1,500.2069,500.7069,,,,,,459,MAS,WORD,AGR,150,grado,,el,,0.5744,,500.7089,500.7098,0.510416667,0.046875,0,0,0,,0,242,242,458,1,fraco,,,,
,,,,,,5f92ec3c26384e040f06e2db,676192165fb32c2e1fb7aee6,67d1557c4791717475144be7,2025-03-12_10h36.34.492,Tarea de decisión léxica,2024.2.5,Win32,60.24096386,,,,,,,,,,,,,,,,,,,,,,,500.7108,501.8405,a,0,0.4571,0,501.8422,502.3401,,,,,,238,MAS,NOWORD,DIS,150,huco,,la,,0.4571,,502.3402,502.3406,0.510416667,0.046875,0,0,0,,0,243,243,237,1,nudo,,,,
,,,,,,5f92ec3c26384e040f06e2db,676192165fb32c2e1fb7aee6,67d1557c4791717475144be7,2025-03-12_10h36.34.492,Tarea de decisión léxica,2024.2.5,Win32,60.24096386,,,,,,,,,,,,,,,,,,,,,,,502.3424,503.4274,a,1,0.4156,1,503.4282,503.9235,,,,,,393,FEM,WORD,DIS,150,aldea,,el,,0.4156,,503.9236,503.9243,0.510416667,0.046875,0,0,0,,0,244,244,392,1,ashea,,,,
,,,,,,5f92ec3c26384e040f06e2db,676192165fb32c2e1fb7aee6,67d1557c4791717475144be7,2025-03-12_10h36.34.492,Tarea de decisión léxica,2024.2.5,Win32,60.24096386,,,,,,,,,,,,,,,,,,,,,,,503.9265,504.943,a,1,0.3322,1,504.9431,505.4396,,,,,,41,FEM,WORD,DIS,150,nave,,el,,0.3322,,505.4398,505.4399,0.510416667,0.046875,0,0,0,,0,245,245,40,1,haje,,,,
,,,,,,5f92ec3c26384e040f06e2db,676192165fb32c2e1fb7aee6,67d1557c4791717475144be7,2025-03-12_10h36.34.492,Tarea de decisión léxica,2024.2.5,Win32,60.24096386,,,,,,,,,,,,,,,,,,,,,,,505.4411,506.5229,l,1,0.4044,1,506.5229,507.0262,,,,,,470,MAS,NOWORD,DIS,150,matia,,la,,0.4044,,507.0263,507.0266,0.510416667,0.046875,0,0,0,,0,246,246,469,1,patio,,,,
,,,,,,5f92ec3c26384e040f06e2db,676192165fb32c2e1fb7aee6,67d1557c4791717475144be7,2025-03-12_10h36.34.492,Tarea de decisión léxica,2024.2.5,Win32,60.24096386,,,,,,,,,,,,,,,,,,,,,,,507.0288,508.0737,l,1,0.376,1,508.0745,508.5732,,,,,,194,FEM,NOWORD,DIS,150,foda,,el,,0.376,,508.5763,508.5776,0.510416667,0.046875,0,0,0,,0,247,247,193,1,loca,,,,
,,,,,,5f92ec3c26384e040f06e2db,676192165fb32c2e1fb7aee6,67d1557c4791717475144be7,2025-03-12_10h36.34.492,Tarea de decisión léxica,2024.2.5,Win32,60.24096386,,,,,,,,,,,,,,,,,,,,,,,508.5791,509.6251,l,1,0.3764,1,509.6254,510.1265,,,,,,290,FEM,NOWORD,DIS,150,bumpa,,el,,0.3764,,510.1267,510.1269,0.510416667,0.046875,0,0,0,,0,248,248,289,1,bomba,,,,
,,,,,,5f92ec3c26384e040f06e2db,676192165fb32c2e1fb7aee6,67d1557c4791717475144be7,2025-03-12_10h36.34.492,Tarea de decisión léxica,2024.2.5,Win32,60.24096386,,,,,,,,,,,,,,,,,,,,,,,510.1286,511.0738,a,1,0.2801,1,511.0741,511.573,,,,,,143,MAS,WORD,AGR,150,pavo,,el,,0.2801,,511.5732,511.5735,0.510416667,0.046875,0,0,0,,0,249,249,142,1,pezo,,,,
,,,,,,5f92ec3c26384e040f06e2db,676192165fb32c2e1fb7aee6,67d1557c4791717475144be7,2025-03-12_10h36.34.492,Tarea de decisión léxica,2024.2.5,Win32,60.24096386,,,,,,,,,,,,,,,,,,,,,,,511.5757,512.59,l,1,0.3429,1,512.5903,513.0898,,,,,,152,MAS,NOWORD,AGR,150,sogo,,el,,0.3429,,513.0901,513.0905,0.510416667,0.046875,0,0,0,,0,250,250,151,1,tomo,,,,
,,,,,,5f92ec3c26384e040f06e2db,676192165fb32c2e1fb7aee6,67d1557c4791717475144be7,2025-03-12_10h36.34.492,Tarea de decisión léxica,2024.2.5,Win32,60.24096386,,,,,,,,,,,,,,,,,,,,,,,513.0929,514.1228,a,1,0.3498,1,514.1231,514.6225,,,,,,365,FEM,WORD,DIS,150,ducha,,el,,0.3498,,514.625,514.6263,0.510416667,0.046875,0,0,0,,0,251,251,364,1,gulla,,,,
,,,,,,5f92ec3c26384e040f06e2db,676192165fb32c2e1fb7aee6,67d1557c4791717475144be7,2025-03-12_10h36.34.492,Tarea de decisión léxica,2024.2.5,Win32,60.24096386,,,,,,,,,,,,,,,,,,,,,,,514.6274,515.6603,l,1,0.3654,1,515.6604,516.1558,,,,,,458,MAS,NOWORD,DIS,150,glaco,,la,,0.3654,,516.1559,516.1561,0.510416667,0.046875,0,0,0,,0,252,252,457,1,plato,,,,
,,,,,,5f92ec3c26384e040f06e2db,676192165fb32c2e1fb7aee6,67d1557c4791717475144be7,2025-03-12_10h36.34.492,Tarea de decisión léxica,2024.2.5,Win32,60.24096386,,,,,,,,,,,,,,,,,,,,,,,516.158,517.2556,l,1,0.4183,1,517.2558,517.7558,,,,,,230,MAS,NOWORD,DIS,150,ador,,la,,0.4183,,517.7558,517.7562,0.510416667,0.046875,0,0,0,,0,253,253,229,1,amor,,,,
,,,,,,5f92ec3c26384e040f06e2db,676192165fb32c2e1fb7aee6,67d1557c4791717475144be7,2025-03-12_10h36.34.492,Tarea de decisión léxica,2024.2.5,Win32,60.24096386,,,,,,,,,,,,,,,,,,,,,,,517.7581,518.8891,l,1,0.4512,1,518.8894,519.3893,,,,,,428,FEM,NOWORD,AGR,150,oseva,,la,,0.4512,,519.3894,519.3902,0.510416667,0.046875,0,0,0,,0,254,254,427,1,oreja,,,,
,,,,,,5f92ec3c26384e040f06e2db,676192165fb32c2e1fb7aee6,67d1557c4791717475144be7,2025-03-12_10h36.34.492,Tarea de decisión léxica,2024.2.5,Win32,60.24096386,,,,,,,,,,,,,,,,,,,,,,,519.3925,520.4386,l,1,0.3728,1,520.4387,520.9388,,,,,,318,FEM,NOWORD,DIS,150,plaad,,el,,0.3728,,520.9389,520.9391,0.510416667,0.046875,0,0,0,,0,255,255,317,1,playa,,,,
,,,,,,5f92ec3c26384e040f06e2db,676192165fb32c2e1fb7aee6,67d1557c4791717475144be7,2025-03-12_10h36.34.492,Tarea de decisión léxica,2024.2.5,Win32,60.24096386,,,,,,,,,,,,,,,,,,,,,,,520.9408,521.9722,a,1,0.354,1,521.9725,522.4756,,,,,,153,MAS,WORD,DIS,150,pato,,la,,0.354,,522.4788,522.4807,0.510416667,0.046875,0,0,0,,0,256,256,152,1,tado,,,,
,,,,,,5f92ec3c26384e040f06e2db,676192165fb32c2e1fb7aee6,67d1557c4791717475144be7,2025-03-12_10h36.34.492,Tarea de decisión léxica,2024.2.5,Win32,60.24096386,,,,,,,,,,,,,,,,,,,,,,,522.4826,523.5883,l,1,0.4317,1,523.5884,524.0885,,,,,,316,FEM,NOWORD,AGR,150,riosa,,la,,0.4317,,524.0886,524.0888,0.510416667,0.046875,0,0,0,,0,257,257,315,1,reina,,,,
,,,,,,5f92ec3c26384e040f06e2db,676192165fb32c2e1fb7aee6,67d1557c4791717475144be7,2025-03-12_10h36.34.492,Tarea de decisión léxica,2024.2.5,Win32,60.24096386,,,,,,,,,,,,,,,,,,,,,,,524.0905,525.1885,l,1,0.4178,1,525.1887,525.6897,,,,,,234,FEM,NOWORD,DIS,150,fasa,,el,,0.4178,,525.6897,525.6899,0.510416667,0.046875,0,0,0,,0,258,258,233,1,lana,,,,
,,,,,,5f92ec3c26384e040f06e2db,676192165fb32c2e1fb7aee6,67d1557c4791717475144be7,2025-03-12_10h36.34.492,Tarea de decisión léxica,2024.2.5,Win32,60.24096386,,,,,,,,,,,,,,,,,,,,,,,525.6912,526.7563,a,1,0.3895,1,526.7568,527.2586,,,,,,161,MAS,WORD,DIS,150,coro,,la,,0.3895,,527.2587,527.2589,0.510416667,0.046875,0,0,0,,0,259,259,160,1,bopo,,,,
,,,,,,5f92ec3c26384e040f06e2db,676192165fb32c2e1fb7aee6,67d1557c4791717475144be7,2025-03-12_10h36.34.492,Tarea de decisión léxica,2024.2.5,Win32,60.24096386,,,,,,,,,,,,,,,,,,,,,,,527.2611,528.3097,l,1,0.3833,1,528.3099,528.8064,,,,,,478,MAS,NOWORD,DIS,150,hocon,,la,,0.3833,,528.8066,528.8071,0.510416667,0.046875,0,0,0,,0,260,260,477,1,botón,,,,
,,,,,,5f92ec3c26384e040f06e2db,676192165fb32c2e1fb7aee6,67d1557c4791717475144be7,2025-03-12_10h36.34.492,Tarea de decisión léxica,2024.2.5,Win32,60.24096386,,,,,,,,,,,,,,,,,,,,,,,528.8108,529.8551,l,1,0.3625,1,529.8554,530.3553,,,,,,186,MAS,NOWORD,DIS,150,raol,,la,,0.3625,,530.359,530.361,0.510416667,0.046875,0,0,0,,0,261,261,185,1,baúl,,,,
,,,,,,5f92ec3c26384e040f06e2db,676192165fb32c2e1fb7aee6,67d1557c4791717475144be7,2025-03-12_10h36.34.492,Tarea de decisión léxica,2024.2.5,Win32,60.24096386,,,,,,,,,,,,,,,,,,,,,,,530.3632,531.3914,l,1,0.3638,1,531.3914,531.8881,,,,,,354,FEM,NOWORD,DIS,150,cezca,,el,,0.3638,,531.8882,531.8886,0.510416667,0.046875,0,0,0,,0,262,262,353,1,celda,,,,
,,,,,,5f92ec3c26384e040f06e2db,676192165fb32c2e1fb7aee6,67d1557c4791717475144be7,2025-03-12_10h36.34.492,Tarea de decisión léxica,2024.2.5,Win32,60.24096386,,,,,,,,,,,,,,,,,,,,,,,531.8907,533.0924,l,1,0.5321,1,533.0926,533.5878,,,,,,446,MAS,NOWORD,DIS,150,ascor,,la,,0.5321,,533.5879,533.5881,0.510416667,0.046875,0,0,0,,0,263,263,445,1,actor,,,,
,,,,,,5f92ec3c26384e040f06e2db,676192165fb32c2e1fb7aee6,67d1557c4791717475144be7,2025-03-12_10h36.34.492,Tarea de decisión léxica,2024.2.5,Win32,60.24096386,,,,,,,,,,,,,,,,,,,,,,,533.5897,534.6886,l,1,0.4063,1,534.6888,535.1882,,,,,,472,FEM,NOWORD,AGR,150,prana,,la,,0.4063,,535.1883,535.1886,0.510416667,0.046875,0,0,0,,0,264,264,471,1,grasa,,,,
,,,,,,5f92ec3c26384e040f06e2db,676192165fb32c2e1fb7aee6,67d1557c4791717475144be7,2025-03-12_10h36.34.492,Tarea de decisión léxica,2024.2.5,Win32,60.24096386,,,,,,,,,,,,,,,,,,,,,,,535.1907,536.2101,a,1,0.3479,1,536.2102,536.7057,,,,,,441,FEM,WORD,DIS,150,selva,,el,,0.3479,,536.7059,536.7063,0.510416667,0.046875,0,0,0,,0,265,265,440,1,telza,,,,
,,,,,,5f92ec3c26384e040f06e2db,676192165fb32c2e1fb7aee6,67d1557c4791717475144be7,2025-03-12_10h36.34.492,Tarea de decisión léxica,2024.2.5,Win32,60.24096386,,,,,,,,,,,,,,,,,,,,,,,536.7095,537.6573,a,1,0.2772,1,537.6575,538.154,,,,,,309,FEM,WORD,DIS,150,silla,,el,,0.2772,,538.1558,538.1566,0.510416667,0.046875,0,0,0,,0,266,266,308,1,tirra,,,,
,,,,,,5f92ec3c26384e040f06e2db,676192165fb32c2e1fb7aee6,67d1557c4791717475144be7,2025-03-12_10h36.34.492,Tarea de decisión léxica,2024.2.5,Win32,60.24096386,,,,,,,,,,,,,,,,,,,,,,,538.1578,539.1769,l,1,0.3492,1,539.177,539.6704,,,,,,108,MAS,NOWORD,AGR,150,raot,,el,,0.3492,,539.6704,539.6706,0.510416667,0.046875,0,0,0,,0,267,267,107,1,saco,,,,
