counterbalancing_condition,consent_prescreening.block_1/declare_consent,consent_prescreening.block_1/age_years,consent_prescreening.block_1/gender,consent_prescreening.block_1/language_disorder,consent_prescreening.block_1/first_language,PROLIFIC_PID,STUDY_ID,SESSION_ID,date,expName,psychopyVersion,OS,frameRate,check_prescreening_answers.started,check_prescreening_answers.stopped,Instructions.started,Instructions.stopped,instr_done_keyboard.keys,instr_done_keyboard.rt,instr_done_keyboard.duration,instr_done_touch.x,instr_done_touch.y,instr_done_touch.leftButton,instr_done_touch.midButton,instr_done_touch.rightButton,instruction_pages.thisRepN,instruction_pages.thisTrialN,instruction_pages.thisN,instruction_pages.thisIndex,instruction_pages.ran,pageN,phase,instruct_text,has_image,instruct_image,presentTrial.started,presentTrial.stopped,response.keys,response.corr,rt,corr,feedback.started,feedback.stopped,practice_trials.thisRepN,practice_trials.thisTrialN,practice_trials.thisN,practice_trials.thisIndex,practice_trials.ran,TrialID,Gender,StimulusType,Condition,PrimeDuration,Prime,len,Flanker,corrAns,response.rt,response.duration,Break.started,Break.stopped,break_done_touch.x,break_done_touch.y,break_done_touch.leftButton,break_done_touch.midButton,break_done_touch.rightButton,break_done_keyboard.keys,experiment_trials.thisRepN,experiment_trials.thisTrialN,experiment_trials.thisN,experiment_trials.thisIndex,experiment_trials.ran,PairedWith,break_done_keyboard.rt,break_done_keyboard.duration,End.started,End.stopped
0,"[""over_18"",""comfortable"",""read_info"",""consent_given""]",21,M,"[""none""]","[""spanish""]",5f9afa6dffa5e21329cf3f6e,676192165fb32c2e1fb7aee6,67d0b59cd4effcd1d475725b,2025-03-11_15h18.54.762,Tarea de decisión léxica,2024.2.5,Win32,60.24096386,,,,,,,,,,,,,,,,,,,,,,,,,,,,,,,,,,,,,,,,,,,,,,,,,,,,,,,,,,,,,,,,
,,,,,,5f9afa6dffa5e21329cf3f6e,676192165fb32c2e1fb7aee6,67d0b59cd4effcd1d475725b,2025-03-11_15h18.54.762,Tarea de decisión léxica,2024.2.5,Win32,60.24096386,55.1828,55.1829,,,,,,,,,,,,,,,,,,,,,,,,,,,,,,,,,,,,,,,,,,,,,,,,,,,,,,,,,,,,,,
,,,,,,5f9afa6dffa5e21329cf3f6e,676192165fb32c2e1fb7aee6,67d0b59cd4effcd1d475725b,2025-03-11_15h18.54.762,Tarea de decisión léxica,2024.2.5,Win32,60.24096386,,,55.1988,69.7347,space,14.5102,,-0.274739583,-0.32421875,0,0,0,0,0,0,0,1,1,instructions,"INSTRUCCIONES
Va a realizar una prueba de decisión léxica. Desde el comienzo de la prueba mire siempre al centro de la pantalla. Se presentará una serie de cadenas de letras, una a la vez, en la pantalla. Su tarea consiste en determinar si cada cadena de letras constituye una palabra real en español o una no-palabra (una secuencia de letras que no constituye una palabra real). 

Pulse la tecla ESPACIO para continuar.",0,keyboardresponseWN.png,,,,,,,,,,,,,,,,,,,,,,,,,,,,,,,,,,,,,,,,,,
,,,,,,5f9afa6dffa5e21329cf3f6e,676192165fb32c2e1fb7aee6,67d0b59cd4effcd1d475725b,2025-03-11_15h18.54.762,Tarea de decisión léxica,2024.2.5,Win32,60.24096386,,,69.7373,81.7857,space,12.0289,,-0.274739583,-0.32421875,0,0,0,0,1,1,1,1,2,instructions,"El procedimiento es el siguiente: Aparecerán dos barras verticales posicionadas en el centro de la pantalla, separadas por un pequeño espacio.Por favor, enfoque su atención en el espacio entre las barras. Esto preparará sus ojos para la siguiente cadena de letras, que aparecerá entre las dos barras durante un instante.

Pulse la tecla ESPACIO para continuar.",0,keyboardresponseNW.png,,,,,,,,,,,,,,,,,,,,,,,,,,,,,,,,,,,,,,,,,,
,,,,,,5f9afa6dffa5e21329cf3f6e,676192165fb32c2e1fb7aee6,67d0b59cd4effcd1d475725b,2025-03-11_15h18.54.762,Tarea de decisión léxica,2024.2.5,Win32,60.24096386,,,81.788,95.7036,space,13.8798,,-0.274739583,-0.32421875,0,0,0,0,2,2,2,1,3,instructions,"En el teclado de su dispositivo, pulse la tecla ""A"" si la cadena de letras es una palabra real en español (por ejemplo: ""mano"") y la tecla ""L"" si la cadena de letras es una no-palabra (por ejemplo: ""minu"").
Pulse la tecla ESPACIO para continuar.",1,keyboardresponseWN.png,,,,,,,,,,,,,,,,,,,,,,,,,,,,,,,,,,,,,,,,,,
,,,,,,5f9afa6dffa5e21329cf3f6e,676192165fb32c2e1fb7aee6,67d0b59cd4effcd1d475725b,2025-03-11_15h18.54.762,Tarea de decisión léxica,2024.2.5,Win32,60.24096386,,,95.707,107.988,space,12.2722,,-0.274739583,-0.32421875,0,0,0,0,3,3,3,1,4,instructions,"Es muy importante que responda con la mayor rapidez y precisión posibles. Si no responde dentro de 2 segundos, aparecerá el mensaje ""Muy lento"" y el experimento pasará a la siguiente palabra. Inmediatamente después de su respuesta se indicará si fue correcta o no. Los primeros 15 intentos serán de práctica y habrá dos descansos durante la prueba.

Pulse la tecla ESPACIO  para iniciar la parte de práctica.",0,keyboardresponseWN.png,,,,,,,,,,,,,,,,,,,,,,,,,,,,,,,,,,,,,,,,,,
,,,,,,5f9afa6dffa5e21329cf3f6e,676192165fb32c2e1fb7aee6,67d0b59cd4effcd1d475725b,2025-03-11_15h18.54.762,Tarea de decisión léxica,2024.2.5,Win32,60.24096386,,,,,,,,,,,,,,,,,,,,,,,107.9977,110.6383,,0,,-1,110.6386,111.1386,0,0,0,4,1,1005,MAS,NOWORD,DIS,150,nobad,5,la,a,,,,,,,,,,,,,,,,,,,,
,,,,,,5f9afa6dffa5e21329cf3f6e,676192165fb32c2e1fb7aee6,67d0b59cd4effcd1d475725b,2025-03-11_15h18.54.762,Tarea de decisión léxica,2024.2.5,Win32,60.24096386,,,,,,,,,,,,,,,,,,,,,,,111.1405,112.9054,a,1,1.0849,1,112.9141,113.4052,0,1,1,7,1,1008,MAS,WORD,DIS,150,frío,4,la,l,1.0849,,,,,,,,,,,,,,,,,,,
,,,,,,5f9afa6dffa5e21329cf3f6e,676192165fb32c2e1fb7aee6,67d0b59cd4effcd1d475725b,2025-03-11_15h18.54.762,Tarea de decisión léxica,2024.2.5,Win32,60.24096386,,,,,,,,,,,,,,,,,,,,,,,113.407,115.0054,l,1,0.9186,1,115.0055,115.5057,0,2,2,1,1,1002,FEM,NOWORD,DIS,150,mabo,4,el,a,0.9186,,,,,,,,,,,,,,,,,,,
,,,,,,5f9afa6dffa5e21329cf3f6e,676192165fb32c2e1fb7aee6,67d0b59cd4effcd1d475725b,2025-03-11_15h18.54.762,Tarea de decisión léxica,2024.2.5,Win32,60.24096386,,,,,,,,,,,,,,,,,,,,,,,115.5072,116.9556,a,1,0.7748,1,116.9557,117.4557,0,3,3,9,1,1010,MAS,WORD,DIS,150,video,5,la,l,0.7748,,,,,,,,,,,,,,,,,,,
,,,,,,5f9afa6dffa5e21329cf3f6e,676192165fb32c2e1fb7aee6,67d0b59cd4effcd1d475725b,2025-03-11_15h18.54.762,Tarea de decisión léxica,2024.2.5,Win32,60.24096386,,,,,,,,,,,,,,,,,,,,,,,117.4568,118.8059,a,1,0.6736,1,118.806,119.3058,0,4,4,6,1,1007,MAS,WORD,DIS,150,masa,4,la,l,0.6736,,,,,,,,,,,,,,,,,,,
,,,,,,5f9afa6dffa5e21329cf3f6e,676192165fb32c2e1fb7aee6,67d0b59cd4effcd1d475725b,2025-03-11_15h18.54.762,Tarea de decisión léxica,2024.2.5,Win32,60.24096386,,,,,,,,,,,,,,,,,,,,,,,119.3071,120.4559,a,1,0.4775,1,120.456,120.9562,0,5,5,5,1,1006,FEM,WORD,AGR,150,cara,4,la,l,0.4775,,,,,,,,,,,,,,,,,,,
,,,,,,5f9afa6dffa5e21329cf3f6e,676192165fb32c2e1fb7aee6,67d0b59cd4effcd1d475725b,2025-03-11_15h18.54.762,Tarea de decisión léxica,2024.2.5,Win32,60.24096386,,,,,,,,,,,,,,,,,,,,,,,120.9571,122.1896,l,1,0.5597,1,122.1898,122.6896,0,6,6,3,1,1004,FEM,NOWORD,AGR,150,bireo,5,la,a,0.5597,,,,,,,,,,,,,,,,,,,
,,,,,,5f9afa6dffa5e21329cf3f6e,676192165fb32c2e1fb7aee6,67d0b59cd4effcd1d475725b,2025-03-11_15h18.54.762,Tarea de decisión léxica,2024.2.5,Win32,60.24096386,,,,,,,,,,,,,,,,,,,,,,,122.6905,123.873,l,1,0.5027,1,123.8731,124.3728,0,7,7,2,1,1003,FEM,NOWORD,DIS,150,muvor,5,el,a,0.5027,,,,,,,,,,,,,,,,,,,
,,,,,,5f9afa6dffa5e21329cf3f6e,676192165fb32c2e1fb7aee6,67d0b59cd4effcd1d475725b,2025-03-11_15h18.54.762,Tarea de decisión léxica,2024.2.5,Win32,60.24096386,,,,,,,,,,,,,,,,,,,,,,,124.3737,125.5399,a,1,0.5006,1,125.54,126.0396,0,8,8,8,1,1009,FEM,WORD,AGR,150,viejo,5,la,l,0.5006,,,,,,,,,,,,,,,,,,,
,,,,,,5f9afa6dffa5e21329cf3f6e,676192165fb32c2e1fb7aee6,67d0b59cd4effcd1d475725b,2025-03-11_15h18.54.762,Tarea de decisión léxica,2024.2.5,Win32,60.24096386,,,,,,,,,,,,,,,,,,,,,,,126.0409,127.3569,l,1,0.6419,1,127.357,127.8567,0,9,9,0,1,1001,FEM,NOWORD,AGR,150,croz,4,la,a,0.6419,,,,,,,,,,,,,,,,,,,
,,,,,,5f9afa6dffa5e21329cf3f6e,676192165fb32c2e1fb7aee6,67d0b59cd4effcd1d475725b,2025-03-11_15h18.54.762,Tarea de decisión léxica,2024.2.5,Win32,60.24096386,,,132.0438,139.8915,space,7.8318,,-0.274739583,-0.32421875,0,0,0,,,,,,,,,,,139.9161,141.0414,a,1,0.462,1,141.0414,141.5418,,,,,,123,FEM,WORD,AGR,150,flor,,la,,0.462,,141.5423,141.5461,-0.274739583,-0.32421875,0,0,0,,0,0,0,122,1,maba,,,,
,,,,,,5f9afa6dffa5e21329cf3f6e,676192165fb32c2e1fb7aee6,67d0b59cd4effcd1d475725b,2025-03-11_15h18.54.762,Tarea de decisión léxica,2024.2.5,Win32,60.24096386,,,,,,,,,,,,,,,,,,,,,,,141.5468,142.6917,l,1,0.4732,1,142.6919,143.1916,,,,,,286,MAS,NOWORD,DIS,150,echor,,la,,0.4732,,143.1917,143.1919,-0.274739583,-0.32421875,0,0,0,,0,1,1,285,1,error,,,,
,,,,,,5f9afa6dffa5e21329cf3f6e,676192165fb32c2e1fb7aee6,67d0b59cd4effcd1d475725b,2025-03-11_15h18.54.762,Tarea de decisión léxica,2024.2.5,Win32,60.24096386,,,,,,,,,,,,,,,,,,,,,,,143.1925,144.5419,l,1,0.6763,1,144.542,145.0424,,,,,,390,MAS,NOWORD,DIS,150,cenco,,la,,0.6763,,145.0433,145.0441,-0.274739583,-0.32421875,0,0,0,,0,2,2,389,1,cerdo,,,,
,,,,,,5f9afa6dffa5e21329cf3f6e,676192165fb32c2e1fb7aee6,67d0b59cd4effcd1d475725b,2025-03-11_15h18.54.762,Tarea de decisión léxica,2024.2.5,Win32,60.24096386,,,,,,,,,,,,,,,,,,,,,,,145.0449,146.1421,a,1,0.421,1,146.1422,146.6422,,,,,,465,FEM,WORD,AGR,150,aguja,,la,,0.421,,146.6424,146.6426,-0.274739583,-0.32421875,0,0,0,,0,3,3,464,1,asuba,,,,
,,,,,,5f9afa6dffa5e21329cf3f6e,676192165fb32c2e1fb7aee6,67d0b59cd4effcd1d475725b,2025-03-11_15h18.54.762,Tarea de decisión léxica,2024.2.5,Win32,60.24096386,,,,,,,,,,,,,,,,,,,,,,,146.6435,147.659,a,1,0.3451,1,147.6591,148.1589,,,,,,113,FEM,WORD,AGR,150,miel,,la,,0.3451,,148.159,148.1593,-0.274739583,-0.32421875,0,0,0,,0,4,4,112,1,tada,,,,
,,,,,,5f9afa6dffa5e21329cf3f6e,676192165fb32c2e1fb7aee6,67d0b59cd4effcd1d475725b,2025-03-11_15h18.54.762,Tarea de decisión léxica,2024.2.5,Win32,60.24096386,,,,,,,,,,,,,,,,,,,,,,,148.161,149.0925,a,1,0.2564,1,149.0927,149.5925,,,,,,317,FEM,WORD,AGR,150,playa,,la,,0.2564,,149.5926,149.5928,-0.274739583,-0.32421875,0,0,0,,0,5,5,316,1,plaad,,,,
,,,,,,5f9afa6dffa5e21329cf3f6e,676192165fb32c2e1fb7aee6,67d0b59cd4effcd1d475725b,2025-03-11_15h18.54.762,Tarea de decisión léxica,2024.2.5,Win32,60.24096386,,,,,,,,,,,,,,,,,,,,,,,149.5934,150.7426,a,1,0.4934,1,150.7426,151.2425,,,,,,337,MAS,WORD,DIS,150,huevo,,la,,0.4934,,151.2426,151.2428,-0.274739583,-0.32421875,0,0,0,,0,6,6,336,1,nuejo,,,,
,,,,,,5f9afa6dffa5e21329cf3f6e,676192165fb32c2e1fb7aee6,67d0b59cd4effcd1d475725b,2025-03-11_15h18.54.762,Tarea de decisión léxica,2024.2.5,Win32,60.24096386,,,,,,,,,,,,,,,,,,,,,,,151.2437,152.3263,a,1,0.4001,1,152.3265,152.8264,,,,,,365,FEM,WORD,DIS,150,ducha,,el,,0.4001,,152.8276,152.828,-0.274739583,-0.32421875,0,0,0,,0,7,7,364,1,gulla,,,,
,,,,,,5f9afa6dffa5e21329cf3f6e,676192165fb32c2e1fb7aee6,67d0b59cd4effcd1d475725b,2025-03-11_15h18.54.762,Tarea de decisión léxica,2024.2.5,Win32,60.24096386,,,,,,,,,,,,,,,,,,,,,,,152.8284,153.8763,a,1,0.3732,1,153.8764,154.3764,,,,,,339,MAS,WORD,AGR,150,brazo,,el,,0.3732,,154.3765,154.3766,-0.274739583,-0.32421875,0,0,0,,0,8,8,338,1,plajo,,,,
,,,,,,5f9afa6dffa5e21329cf3f6e,676192165fb32c2e1fb7aee6,67d0b59cd4effcd1d475725b,2025-03-11_15h18.54.762,Tarea de decisión léxica,2024.2.5,Win32,60.24096386,,,,,,,,,,,,,,,,,,,,,,,154.3776,155.4098,a,1,0.3597,1,155.4099,155.9101,,,,,,435,MAS,WORD,DIS,150,ritmo,,la,,0.3597,,155.9102,155.9104,-0.274739583,-0.32421875,0,0,0,,0,9,9,434,1,ricno,,,,
,,,,,,5f9afa6dffa5e21329cf3f6e,676192165fb32c2e1fb7aee6,67d0b59cd4effcd1d475725b,2025-03-11_15h18.54.762,Tarea de decisión léxica,2024.2.5,Win32,60.24096386,,,,,,,,,,,,,,,,,,,,,,,155.9116,156.9767,a,1,0.3888,1,156.9769,157.4772,,,,,,107,MAS,WORD,DIS,150,saco,,la,,0.3888,,157.4772,157.4775,-0.274739583,-0.32421875,0,0,0,,0,10,10,106,1,raot,,,,
,,,,,,5f9afa6dffa5e21329cf3f6e,676192165fb32c2e1fb7aee6,67d0b59cd4effcd1d475725b,2025-03-11_15h18.54.762,Tarea de decisión léxica,2024.2.5,Win32,60.24096386,,,,,,,,,,,,,,,,,,,,,,,157.4789,158.5937,a,1,0.4339,1,158.5938,159.0934,,,,,,265,FEM,WORD,DIS,150,mitad,,el,,0.4339,,159.095,159.0957,-0.274739583,-0.32421875,0,0,0,,0,11,11,264,1,pitat,,,,
,,,,,,5f9afa6dffa5e21329cf3f6e,676192165fb32c2e1fb7aee6,67d0b59cd4effcd1d475725b,2025-03-11_15h18.54.762,Tarea de decisión léxica,2024.2.5,Win32,60.24096386,,,,,,,,,,,,,,,,,,,,,,,159.0964,160.0941,a,0,0.3173,0,160.0952,160.5938,,,,,,340,MAS,NOWORD,AGR,150,plajo,,el,,0.3173,,160.5939,160.5941,-0.274739583,-0.32421875,0,0,0,,0,12,12,339,1,brazo,,,,
,,,,,,5f9afa6dffa5e21329cf3f6e,676192165fb32c2e1fb7aee6,67d0b59cd4effcd1d475725b,2025-03-11_15h18.54.762,Tarea de decisión léxica,2024.2.5,Win32,60.24096386,,,,,,,,,,,,,,,,,,,,,,,160.595,161.727,l,1,0.451,1,161.7279,162.2272,,,,,,398,FEM,NOWORD,DIS,150,trigi,,el,,0.451,,162.2273,162.2275,-0.274739583,-0.32421875,0,0,0,,0,13,13,397,1,tribu,,,,
,,,,,,5f9afa6dffa5e21329cf3f6e,676192165fb32c2e1fb7aee6,67d0b59cd4effcd1d475725b,2025-03-11_15h18.54.762,Tarea de decisión léxica,2024.2.5,Win32,60.24096386,,,,,,,,,,,,,,,,,,,,,,,162.2285,163.3272,l,1,0.4245,1,163.3274,163.8272,,,,,,38,MAS,NOWORD,DIS,150,gaco,,la,,0.4245,,163.8273,163.8274,-0.274739583,-0.32421875,0,0,0,,0,14,14,37,1,rato,,,,
,,,,,,5f9afa6dffa5e21329cf3f6e,676192165fb32c2e1fb7aee6,67d0b59cd4effcd1d475725b,2025-03-11_15h18.54.762,Tarea de decisión léxica,2024.2.5,Win32,60.24096386,,,,,,,,,,,,,,,,,,,,,,,163.8285,164.8943,a,1,0.3883,1,164.8945,165.3941,,,,,,361,FEM,WORD,DIS,150,torre,,el,,0.3883,,165.3942,165.3944,-0.274739583,-0.32421875,0,0,0,,0,15,15,360,1,solle,,,,
,,,,,,5f9afa6dffa5e21329cf3f6e,676192165fb32c2e1fb7aee6,67d0b59cd4effcd1d475725b,2025-03-11_15h18.54.762,Tarea de decisión léxica,2024.2.5,Win32,60.24096386,,,,,,,,,,,,,,,,,,,,,,,165.3953,166.5775,a,0,0.5101,0,166.5783,167.0778,,,,,,470,MAS,NOWORD,DIS,150,matia,,la,,0.5101,,167.0792,167.0798,-0.274739583,-0.32421875,0,0,0,,0,16,16,469,1,patio,,,,
,,,,,,5f9afa6dffa5e21329cf3f6e,676192165fb32c2e1fb7aee6,67d0b59cd4effcd1d475725b,2025-03-11_15h18.54.762,Tarea de decisión léxica,2024.2.5,Win32,60.24096386,,,,,,,,,,,,,,,,,,,,,,,167.0803,168.1612,a,1,0.4014,1,168.1633,168.6612,,,,,,313,MAS,WORD,DIS,150,novio,,la,,0.4014,,168.6612,168.6614,-0.274739583,-0.32421875,0,0,0,,0,17,17,312,1,govio,,,,
,,,,,,5f9afa6dffa5e21329cf3f6e,676192165fb32c2e1fb7aee6,67d0b59cd4effcd1d475725b,2025-03-11_15h18.54.762,Tarea de decisión léxica,2024.2.5,Win32,60.24096386,,,,,,,,,,,,,,,,,,,,,,,168.663,169.795,l,1,0.4517,1,169.7951,170.2946,,,,,,220,FEM,NOWORD,AGR,150,miva,,la,,0.4517,,170.2947,170.2948,-0.274739583,-0.32421875,0,0,0,,0,18,18,219,1,pipa,,,,
,,,,,,5f9afa6dffa5e21329cf3f6e,676192165fb32c2e1fb7aee6,67d0b59cd4effcd1d475725b,2025-03-11_15h18.54.762,Tarea de decisión léxica,2024.2.5,Win32,60.24096386,,,,,,,,,,,,,,,,,,,,,,,170.2957,171.3447,a,1,0.377,1,171.3449,171.8449,,,,,,373,FEM,WORD,DIS,150,pizza,,el,,0.377,,171.8451,171.8452,-0.274739583,-0.32421875,0,0,0,,0,19,19,372,1,pogza,,,,
,,,,,,5f9afa6dffa5e21329cf3f6e,676192165fb32c2e1fb7aee6,67d0b59cd4effcd1d475725b,2025-03-11_15h18.54.762,Tarea de decisión léxica,2024.2.5,Win32,60.24096386,,,,,,,,,,,,,,,,,,,,,,,171.8461,172.9116,a,1,0.384,1,172.9118,173.4119,,,,,,467,MAS,WORD,AGR,150,piano,,el,,0.384,,173.412,173.4122,-0.274739583,-0.32421875,0,0,0,,0,20,20,466,1,peiso,,,,
,,,,,,5f9afa6dffa5e21329cf3f6e,676192165fb32c2e1fb7aee6,67d0b59cd4effcd1d475725b,2025-03-11_15h18.54.762,Tarea de decisión léxica,2024.2.5,Win32,60.24096386,,,,,,,,,,,,,,,,,,,,,,,173.4131,174.6951,l,1,0.6058,1,174.6952,175.1954,,,,,,158,MAS,NOWORD,DIS,150,hico,,la,,0.6058,,175.1968,175.1975,-0.274739583,-0.32421875,0,0,0,,0,21,21,157,1,nido,,,,
,,,,,,5f9afa6dffa5e21329cf3f6e,676192165fb32c2e1fb7aee6,67d0b59cd4effcd1d475725b,2025-03-11_15h18.54.762,Tarea de decisión léxica,2024.2.5,Win32,60.24096386,,,,,,,,,,,,,,,,,,,,,,,175.1982,176.3122,l,1,0.4342,1,176.3123,176.8123,,,,,,128,MAS,NOWORD,AGR,150,itio,,el,,0.4342,,176.8124,176.8126,-0.274739583,-0.32421875,0,0,0,,0,22,22,127,1,pico,,,,
,,,,,,5f9afa6dffa5e21329cf3f6e,676192165fb32c2e1fb7aee6,67d0b59cd4effcd1d475725b,2025-03-11_15h18.54.762,Tarea de decisión léxica,2024.2.5,Win32,60.24096386,,,,,,,,,,,,,,,,,,,,,,,176.8133,178.0459,l,1,0.5514,1,178.0461,178.5457,,,,,,60,FEM,NOWORD,AGR,150,tafa,,la,,0.5514,,178.5458,178.546,-0.274739583,-0.32421875,0,0,0,,0,23,23,59,1,sala,,,,
,,,,,,5f9afa6dffa5e21329cf3f6e,676192165fb32c2e1fb7aee6,67d0b59cd4effcd1d475725b,2025-03-11_15h18.54.762,Tarea de decisión léxica,2024.2.5,Win32,60.24096386,,,,,,,,,,,,,,,,,,,,,,,178.5471,179.6455,a,1,0.4261,1,179.6456,180.1453,,,,,,453,FEM,WORD,DIS,150,mafia,,el,,0.4261,,180.1455,180.1455,-0.274739583,-0.32421875,0,0,0,,0,24,24,452,1,pafia,,,,
,,,,,,5f9afa6dffa5e21329cf3f6e,676192165fb32c2e1fb7aee6,67d0b59cd4effcd1d475725b,2025-03-11_15h18.54.762,Tarea de decisión léxica,2024.2.5,Win32,60.24096386,,,,,,,,,,,,,,,,,,,,,,,180.147,181.4128,l,1,0.5892,1,181.4129,181.9125,,,,,,166,FEM,NOWORD,DIS,150,dera,,el,,0.5892,,181.9126,181.9127,-0.274739583,-0.32421875,0,0,0,,0,25,25,165,1,vela,,,,
,,,,,,5f9afa6dffa5e21329cf3f6e,676192165fb32c2e1fb7aee6,67d0b59cd4effcd1d475725b,2025-03-11_15h18.54.762,Tarea de decisión léxica,2024.2.5,Win32,60.24096386,,,,,,,,,,,,,,,,,,,,,,,181.9139,183.1294,l,0,0.5402,0,183.1304,183.6294,,,,,,151,MAS,WORD,AGR,150,tomo,,el,,0.5402,,183.6311,183.632,-0.274739583,-0.32421875,0,0,0,,0,26,26,150,1,sogo,,,,
,,,,,,5f9afa6dffa5e21329cf3f6e,676192165fb32c2e1fb7aee6,67d0b59cd4effcd1d475725b,2025-03-11_15h18.54.762,Tarea de decisión léxica,2024.2.5,Win32,60.24096386,,,,,,,,,,,,,,,,,,,,,,,183.6327,184.8127,l,1,0.5086,1,184.8136,185.3127,,,,,,132,FEM,NOWORD,AGR,150,fada,,la,,0.5086,,185.3128,185.3129,-0.274739583,-0.32421875,0,0,0,,0,27,27,131,1,mina,,,,
,,,,,,5f9afa6dffa5e21329cf3f6e,676192165fb32c2e1fb7aee6,67d0b59cd4effcd1d475725b,2025-03-11_15h18.54.762,Tarea de decisión léxica,2024.2.5,Win32,60.24096386,,,,,,,,,,,,,,,,,,,,,,,185.3139,186.4463,l,1,0.4585,1,186.4464,186.9463,,,,,,210,MAS,NOWORD,DIS,150,dero,,la,,0.4585,,186.9464,186.9464,-0.274739583,-0.32421875,0,0,0,,0,28,28,209,1,velo,,,,
,,,,,,5f9afa6dffa5e21329cf3f6e,676192165fb32c2e1fb7aee6,67d0b59cd4effcd1d475725b,2025-03-11_15h18.54.762,Tarea de decisión léxica,2024.2.5,Win32,60.24096386,,,,,,,,,,,,,,,,,,,,,,,186.9475,188.1467,l,1,0.5184,1,188.147,188.6466,,,,,,256,MAS,NOWORD,AGR,150,mauco,,el,,0.5184,,188.6468,188.6468,-0.274739583,-0.32421875,0,0,0,,0,29,29,255,1,miedo,,,,
,,,,,,5f9afa6dffa5e21329cf3f6e,676192165fb32c2e1fb7aee6,67d0b59cd4effcd1d475725b,2025-03-11_15h18.54.762,Tarea de decisión léxica,2024.2.5,Win32,60.24096386,,,,,,,,,,,,,,,,,,,,,,,188.6478,189.8965,l,1,0.5912,1,189.8966,190.3971,,,,,,392,MAS,NOWORD,AGR,150,dievo,,el,,0.5912,,190.3972,190.3975,-0.274739583,-0.32421875,0,0,0,,0,30,30,391,1,dueño,,,,
,,,,,,5f9afa6dffa5e21329cf3f6e,676192165fb32c2e1fb7aee6,67d0b59cd4effcd1d475725b,2025-03-11_15h18.54.762,Tarea de decisión léxica,2024.2.5,Win32,60.24096386,,,,,,,,,,,,,,,,,,,,,,,190.3987,191.4802,l,1,0.4097,1,191.4804,191.9806,,,,,,196,FEM,NOWORD,AGR,150,sira,,la,,0.4097,,191.9822,191.9828,-0.274739583,-0.32421875,0,0,0,,0,31,31,195,1,tela,,,,
,,,,,,5f9afa6dffa5e21329cf3f6e,676192165fb32c2e1fb7aee6,67d0b59cd4effcd1d475725b,2025-03-11_15h18.54.762,Tarea de decisión léxica,2024.2.5,Win32,60.24096386,,,,,,,,,,,,,,,,,,,,,,,191.9833,193.1471,l,1,0.4858,1,193.1473,193.6472,,,,,,252,MAS,NOWORD,AGR,150,refor,,el,,0.4858,,193.6474,193.6475,-0.274739583,-0.32421875,0,0,0,,0,32,32,251,1,señor,,,,
,,,,,,5f9afa6dffa5e21329cf3f6e,676192165fb32c2e1fb7aee6,67d0b59cd4effcd1d475725b,2025-03-11_15h18.54.762,Tarea de decisión léxica,2024.2.5,Win32,60.24096386,,,,,,,,,,,,,,,,,,,,,,,193.6488,195.1305,a,1,0.807,1,195.1305,195.6307,,,,,,143,MAS,WORD,DIS,150,pavo,,la,,0.807,,195.6308,195.6309,-0.274739583,-0.32421875,0,0,0,,0,33,33,142,1,pezo,,,,
,,,,,,5f9afa6dffa5e21329cf3f6e,676192165fb32c2e1fb7aee6,67d0b59cd4effcd1d475725b,2025-03-11_15h18.54.762,Tarea de decisión léxica,2024.2.5,Win32,60.24096386,,,,,,,,,,,,,,,,,,,,,,,195.6322,196.8475,a,1,0.5335,1,196.8476,197.3476,,,,,,395,FEM,WORD,DIS,150,caída,,el,,0.5335,,197.3476,197.3478,-0.274739583,-0.32421875,0,0,0,,0,34,34,394,1,paeda,,,,
,,,,,,5f9afa6dffa5e21329cf3f6e,676192165fb32c2e1fb7aee6,67d0b59cd4effcd1d475725b,2025-03-11_15h18.54.762,Tarea de decisión léxica,2024.2.5,Win32,60.24096386,,,,,,,,,,,,,,,,,,,,,,,197.3491,198.5475,l,1,0.5219,1,198.5475,199.0475,,,,,,40,MAS,NOWORD,AGR,150,redo,,el,,0.5219,,199.049,199.0497,-0.274739583,-0.32421875,0,0,0,,0,35,35,39,1,voto,,,,
,,,,,,5f9afa6dffa5e21329cf3f6e,676192165fb32c2e1fb7aee6,67d0b59cd4effcd1d475725b,2025-03-11_15h18.54.762,Tarea de decisión léxica,2024.2.5,Win32,60.24096386,,,,,,,,,,,,,,,,,,,,,,,199.0503,200.1645,l,1,0.4331,1,200.1645,200.6644,,,,,,382,MAS,NOWORD,DIS,150,nusor,,la,,0.4331,,200.6644,200.6646,-0.274739583,-0.32421875,0,0,0,,0,36,36,381,1,humor,,,,
,,,,,,5f9afa6dffa5e21329cf3f6e,676192165fb32c2e1fb7aee6,67d0b59cd4effcd1d475725b,2025-03-11_15h18.54.762,Tarea de decisión léxica,2024.2.5,Win32,60.24096386,,,,,,,,,,,,,,,,,,,,,,,200.6656,201.8145,a,1,0.479,1,201.8147,202.3148,,,,,,307,MAS,WORD,DIS,150,hotel,,la,,0.479,,202.3148,202.315,-0.274739583,-0.32421875,0,0,0,,0,37,37,306,1,holol,,,,
,,,,,,5f9afa6dffa5e21329cf3f6e,676192165fb32c2e1fb7aee6,67d0b59cd4effcd1d475725b,2025-03-11_15h18.54.762,Tarea de decisión léxica,2024.2.5,Win32,60.24096386,,,,,,,,,,,,,,,,,,,,,,,202.3159,203.398,l,1,0.4105,1,203.3982,203.8983,,,,,,124,FEM,NOWORD,AGR,150,maba,,la,,0.4105,,203.8987,203.8988,-0.274739583,-0.32421875,0,0,0,,0,38,38,123,1,flor,,,,
,,,,,,5f9afa6dffa5e21329cf3f6e,676192165fb32c2e1fb7aee6,67d0b59cd4effcd1d475725b,2025-03-11_15h18.54.762,Tarea de decisión léxica,2024.2.5,Win32,60.24096386,,,,,,,,,,,,,,,,,,,,,,,203.8994,204.9483,l,1,0.3706,1,204.9483,205.4486,,,,,,96,FEM,NOWORD,AGR,151,neda,,la,,0.3706,,205.4488,205.4488,-0.274739583,-0.32421875,0,0,0,,0,39,39,95,1,moda,,,,
,,,,,,5f9afa6dffa5e21329cf3f6e,676192165fb32c2e1fb7aee6,67d0b59cd4effcd1d475725b,2025-03-11_15h18.54.762,Tarea de decisión léxica,2024.2.5,Win32,60.24096386,,,,,,,,,,,,,,,,,,,,,,,205.4498,206.5153,a,1,0.3908,1,206.5155,207.0153,,,,,,31,FEM,WORD,AGR,150,ropa,,la,,0.3908,,207.0168,207.0175,-0.274739583,-0.32421875,0,0,0,,0,40,40,30,1,bova,,,,
,,,,,,5f9afa6dffa5e21329cf3f6e,676192165fb32c2e1fb7aee6,67d0b59cd4effcd1d475725b,2025-03-11_15h18.54.762,Tarea de decisión léxica,2024.2.5,Win32,60.24096386,,,,,,,,,,,,,,,,,,,,,,,207.0186,208.0824,a,1,0.3908,1,208.0825,208.5819,,,,,,443,MAS,WORD,AGR,150,salón,,el,,0.3908,,208.582,208.5821,-0.274739583,-0.32421875,0,0,0,,0,41,41,442,1,taron,,,,
,,,,,,5f9afa6dffa5e21329cf3f6e,676192165fb32c2e1fb7aee6,67d0b59cd4effcd1d475725b,2025-03-11_15h18.54.762,Tarea de decisión léxica,2024.2.5,Win32,60.24096386,,,,,,,,,,,,,,,,,,,,,,,208.5831,210.7486,l,1,1.4722,1,210.7488,211.2485,,,,,,6,FEM,NOWORD,DIS,150,poga,,el,,1.4722,,211.2486,211.2487,-0.274739583,-0.32421875,0,0,0,,0,42,42,5,1,cosa,,,,
,,,,,,5f9afa6dffa5e21329cf3f6e,676192165fb32c2e1fb7aee6,67d0b59cd4effcd1d475725b,2025-03-11_15h18.54.762,Tarea de decisión léxica,2024.2.5,Win32,60.24096386,,,,,,,,,,,,,,,,,,,,,,,211.2497,212.366,a,1,0.4456,1,212.3661,212.8658,,,,,,35,MAS,WORD,DIS,150,pelo,,la,,0.4456,,212.8659,212.866,-0.274739583,-0.32421875,0,0,0,,0,43,43,34,1,meno,,,,
,,,,,,5f9afa6dffa5e21329cf3f6e,676192165fb32c2e1fb7aee6,67d0b59cd4effcd1d475725b,2025-03-11_15h18.54.762,Tarea de decisión léxica,2024.2.5,Win32,60.24096386,,,,,,,,,,,,,,,,,,,,,,,212.8674,214.1658,l,1,0.6205,1,214.1659,214.6661,,,,,,228,MAS,NOWORD,AGR,150,laro,,el,,0.6205,,214.6663,214.6664,-0.274739583,-0.32421875,0,0,0,,0,44,44,227,1,faro,,,,
,,,,,,5f9afa6dffa5e21329cf3f6e,676192165fb32c2e1fb7aee6,67d0b59cd4effcd1d475725b,2025-03-11_15h18.54.762,Tarea de decisión léxica,2024.2.5,Win32,60.24096386,,,,,,,,,,,,,,,,,,,,,,,214.6676,215.8003,a,1,0.4522,1,215.8003,216.2997,,,,,,111,MAS,WORD,DIS,150,muro,,la,,0.4522,,216.3011,216.3022,-0.274739583,-0.32421875,0,0,0,,0,45,45,110,1,siro,,,,
,,,,,,5f9afa6dffa5e21329cf3f6e,676192165fb32c2e1fb7aee6,67d0b59cd4effcd1d475725b,2025-03-11_15h18.54.762,Tarea de decisión léxica,2024.2.5,Win32,60.24096386,,,,,,,,,,,,,,,,,,,,,,,216.3033,217.3998,a,1,0.4172,1,217.4,217.8997,,,,,,383,FEM,WORD,DIS,150,frase,,el,,0.4172,,217.8998,217.8999,-0.274739583,-0.32421875,0,0,0,,0,46,46,382,1,brame,,,,
,,,,,,5f9afa6dffa5e21329cf3f6e,676192165fb32c2e1fb7aee6,67d0b59cd4effcd1d475725b,2025-03-11_15h18.54.762,Tarea de decisión léxica,2024.2.5,Win32,60.24096386,,,,,,,,,,,,,,,,,,,,,,,217.9008,218.9666,a,1,0.3954,1,218.9667,219.4663,,,,,,417,FEM,WORD,AGR,150,barba,,la,,0.3954,,219.4665,219.4665,-0.274739583,-0.32421875,0,0,0,,0,47,47,416,1,banja,,,,
,,,,,,5f9afa6dffa5e21329cf3f6e,676192165fb32c2e1fb7aee6,67d0b59cd4effcd1d475725b,2025-03-11_15h18.54.762,Tarea de decisión léxica,2024.2.5,Win32,60.24096386,,,,,,,,,,,,,,,,,,,,,,,219.4675,220.6832,a,1,0.544,1,220.6833,221.1834,,,,,,165,FEM,WORD,DIS,150,vela,,el,,0.544,,221.1835,221.1836,-0.274739583,-0.32421875,0,0,0,,0,48,48,164,1,dera,,,,
,,,,,,5f9afa6dffa5e21329cf3f6e,676192165fb32c2e1fb7aee6,67d0b59cd4effcd1d475725b,2025-03-11_15h18.54.762,Tarea de decisión léxica,2024.2.5,Win32,60.24096386,,,,,,,,,,,,,,,,,,,,,,,221.1846,222.3502,a,0,0.483,0,222.3511,222.8504,,,,,,222,FEM,NOWORD,DIS,150,puca,,el,,0.483,,222.8505,222.8506,-0.274739583,-0.32421875,0,0,0,,0,49,49,221,1,mula,,,,
,,,,,,5f9afa6dffa5e21329cf3f6e,676192165fb32c2e1fb7aee6,67d0b59cd4effcd1d475725b,2025-03-11_15h18.54.762,Tarea de decisión léxica,2024.2.5,Win32,60.24096386,,,,,,,,,,,,,,,,,,,,,,,222.8511,224.0668,a,1,0.5325,1,224.0678,224.5669,,,,,,3,FEM,WORD,DIS,150,vida,,el,,0.5325,,224.5678,224.5682,-0.274739583,-0.32421875,0,0,0,,0,50,50,2,1,dica,,,,
,,,,,,5f9afa6dffa5e21329cf3f6e,676192165fb32c2e1fb7aee6,67d0b59cd4effcd1d475725b,2025-03-11_15h18.54.762,Tarea de decisión léxica,2024.2.5,Win32,60.24096386,,,,,,,,,,,,,,,,,,,,,,,224.5687,225.6835,a,0,0.4414,0,225.6843,226.184,,,,,,444,MAS,NOWORD,AGR,150,taron,,el,,0.4414,,226.1841,226.1842,-0.274739583,-0.32421875,0,0,0,,0,51,51,443,1,salón,,,,
,,,,,,5f9afa6dffa5e21329cf3f6e,676192165fb32c2e1fb7aee6,67d0b59cd4effcd1d475725b,2025-03-11_15h18.54.762,Tarea de decisión léxica,2024.2.5,Win32,60.24096386,,,,,,,,,,,,,,,,,,,,,,,226.1854,227.3341,a,1,0.468,1,227.3353,227.8339,,,,,,291,FEM,WORD,DIS,150,pista,,el,,0.468,,227.834,227.8341,-0.274739583,-0.32421875,0,0,0,,0,52,52,290,1,mesta,,,,
,,,,,,5f9afa6dffa5e21329cf3f6e,676192165fb32c2e1fb7aee6,67d0b59cd4effcd1d475725b,2025-03-11_15h18.54.762,Tarea de decisión léxica,2024.2.5,Win32,60.24096386,,,,,,,,,,,,,,,,,,,,,,,227.8354,228.8673,a,1,0.3597,1,228.8674,229.3673,,,,,,139,MAS,WORD,AGR,150,mago,,el,,0.3597,,229.3673,229.3675,-0.274739583,-0.32421875,0,0,0,,0,53,53,138,1,nila,,,,
,,,,,,5f9afa6dffa5e21329cf3f6e,676192165fb32c2e1fb7aee6,67d0b59cd4effcd1d475725b,2025-03-11_15h18.54.762,Tarea de decisión léxica,2024.2.5,Win32,60.24096386,,,,,,,,,,,,,,,,,,,,,,,229.3684,230.8676,a,1,0.8224,1,230.8677,231.3677,,,,,,223,FEM,WORD,AGR,150,cera,,la,,0.8224,,231.3678,231.3679,-0.274739583,-0.32421875,0,0,0,,0,54,54,222,1,cira,,,,
,,,,,,5f9afa6dffa5e21329cf3f6e,676192165fb32c2e1fb7aee6,67d0b59cd4effcd1d475725b,2025-03-11_15h18.54.762,Tarea de decisión léxica,2024.2.5,Win32,60.24096386,,,,,,,,,,,,,,,,,,,,,,,231.3691,232.568,l,1,0.5173,1,232.5681,233.0681,,,,,,316,FEM,NOWORD,AGR,150,riosa,,la,,0.5173,,233.0692,233.0701,-0.274739583,-0.32421875,0,0,0,,0,55,55,315,1,reina,,,,
,,,,,,5f9afa6dffa5e21329cf3f6e,676192165fb32c2e1fb7aee6,67d0b59cd4effcd1d475725b,2025-03-11_15h18.54.762,Tarea de decisión léxica,2024.2.5,Win32,60.24096386,,,,,,,,,,,,,,,,,,,,,,,233.0707,234.1514,a,1,0.4083,1,234.1515,234.6509,,,,,,167,FEM,WORD,AGR,150,jefa,,la,,0.4083,,234.651,234.6511,-0.274739583,-0.32421875,0,0,0,,0,56,56,166,1,zifa,,,,
,,,,,,5f9afa6dffa5e21329cf3f6e,676192165fb32c2e1fb7aee6,67d0b59cd4effcd1d475725b,2025-03-11_15h18.54.762,Tarea de decisión léxica,2024.2.5,Win32,60.24096386,,,,,,,,,,,,,,,,,,,,,,,234.652,235.685,a,1,0.3608,1,235.685,236.1848,,,,,,343,FEM,WORD,DIS,150,plata,,el,,0.3608,,236.1849,236.185,-0.274739583,-0.32421875,0,0,0,,0,57,57,342,1,trada,,,,
,,,,,,5f9afa6dffa5e21329cf3f6e,676192165fb32c2e1fb7aee6,67d0b59cd4effcd1d475725b,2025-03-11_15h18.54.762,Tarea de decisión léxica,2024.2.5,Win32,60.24096386,,,,,,,,,,,,,,,,,,,,,,,236.1863,237.335,l,1,0.4782,1,237.3351,237.8354,,,,,,296,MAS,NOWORD,AGR,150,goler,,el,,0.4782,,237.8354,237.8355,-0.274739583,-0.32421875,0,0,0,,0,58,58,295,1,dolor,,,,
,,,,,,5f9afa6dffa5e21329cf3f6e,676192165fb32c2e1fb7aee6,67d0b59cd4effcd1d475725b,2025-03-11_15h18.54.762,Tarea de decisión léxica,2024.2.5,Win32,60.24096386,,,,,,,,,,,,,,,,,,,,,,,237.8363,239.0685,a,1,0.55,1,239.0687,239.5684,,,,,,125,MAS,WORD,DIS,150,lujo,,la,,0.55,,239.5696,239.5703,-0.274739583,-0.32421875,0,0,0,,0,59,59,124,1,vudo,,,,
,,,,,,5f9afa6dffa5e21329cf3f6e,676192165fb32c2e1fb7aee6,67d0b59cd4effcd1d475725b,2025-03-11_15h18.54.762,Tarea de decisión léxica,2024.2.5,Win32,60.24096386,,,,,,,,,,,,,,,,,,,,,,,239.571,240.6521,a,1,0.4015,1,240.6522,241.1524,,,,,,437,FEM,WORD,AGR,150,plaza,,la,,0.4015,,241.1525,241.1526,-0.274739583,-0.32421875,0,0,0,,0,60,60,436,1,glava,,,,
,,,,,,5f9afa6dffa5e21329cf3f6e,676192165fb32c2e1fb7aee6,67d0b59cd4effcd1d475725b,2025-03-11_15h18.54.762,Tarea de decisión léxica,2024.2.5,Win32,60.24096386,,,,,,,,,,,,,,,,,,,,,,,241.1537,242.2689,l,1,0.4342,1,242.2691,242.7687,,,,,,458,MAS,NOWORD,DIS,150,glaco,,la,,0.4342,,242.7688,242.7689,-0.274739583,-0.32421875,0,0,0,,0,61,61,457,1,plato,,,,
,,,,,,5f9afa6dffa5e21329cf3f6e,676192165fb32c2e1fb7aee6,67d0b59cd4effcd1d475725b,2025-03-11_15h18.54.762,Tarea de decisión léxica,2024.2.5,Win32,60.24096386,,,,,,,,,,,,,,,,,,,,,,,242.7698,243.8856,a,1,0.4401,1,243.8858,244.3858,,,,,,367,MAS,WORD,DIS,150,reloj,,la,,0.4401,,244.3859,244.386,-0.274739583,-0.32421875,0,0,0,,0,62,62,366,1,rerob,,,,
,,,,,,5f9afa6dffa5e21329cf3f6e,676192165fb32c2e1fb7aee6,67d0b59cd4effcd1d475725b,2025-03-11_15h18.54.762,Tarea de decisión léxica,2024.2.5,Win32,60.24096386,,,,,,,,,,,,,,,,,,,,,,,244.3869,245.5025,l,1,0.4382,1,245.5026,246.0024,,,,,,332,MAS,NOWORD,AGR,150,erato,,el,,0.4382,,246.0025,246.0026,-0.274739583,-0.32421875,0,0,0,,0,63,63,331,1,éxito,,,,
,,,,,,5f9afa6dffa5e21329cf3f6e,676192165fb32c2e1fb7aee6,67d0b59cd4effcd1d475725b,2025-03-11_15h18.54.762,Tarea de decisión léxica,2024.2.5,Win32,60.24096386,,,,,,,,,,,,,,,,,,,,,,,246.0038,247.3027,l,1,0.6174,1,247.3028,247.8027,,,,,,58,MAS,NOWORD,DIS,150,heco,,la,,0.6174,,247.8039,247.8047,-0.274739583,-0.32421875,0,0,0,,0,64,64,57,1,dedo,,,,
,,,,,,5f9afa6dffa5e21329cf3f6e,676192165fb32c2e1fb7aee6,67d0b59cd4effcd1d475725b,2025-03-11_15h18.54.762,Tarea de decisión léxica,2024.2.5,Win32,60.24096386,,,,,,,,,,,,,,,,,,,,,,,247.8055,248.8695,a,1,0.3838,1,248.8696,249.3697,,,,,,351,MAS,WORD,DIS,150,vuelo,,la,,0.3838,,249.3698,249.3699,-0.274739583,-0.32421875,0,0,0,,0,65,65,350,1,duepo,,,,
,,,,,,5f9afa6dffa5e21329cf3f6e,676192165fb32c2e1fb7aee6,67d0b59cd4effcd1d475725b,2025-03-11_15h18.54.762,Tarea de decisión léxica,2024.2.5,Win32,60.24096386,,,,,,,,,,,,,,,,,,,,,,,249.3707,250.5032,l,1,0.46,1,250.5033,251.0032,,,,,,46,FEM,NOWORD,DIS,150,pema,,el,,0.46,,251.0034,251.0036,-0.274739583,-0.32421875,0,0,0,,0,66,66,45,1,mesa,,,,
,,,,,,5f9afa6dffa5e21329cf3f6e,676192165fb32c2e1fb7aee6,67d0b59cd4effcd1d475725b,2025-03-11_15h18.54.762,Tarea de decisión léxica,2024.2.5,Win32,60.24096386,,,,,,,,,,,,,,,,,,,,,,,251.0043,252.1698,a,1,0.4832,1,252.17,252.67,,,,,,419,MAS,WORD,AGR,150,truco,,el,,0.4832,,252.67,252.6702,-0.274739583,-0.32421875,0,0,0,,0,67,67,418,1,chudo,,,,
,,,,,,5f9afa6dffa5e21329cf3f6e,676192165fb32c2e1fb7aee6,67d0b59cd4effcd1d475725b,2025-03-11_15h18.54.762,Tarea de decisión léxica,2024.2.5,Win32,60.24096386,,,,,,,,,,,,,,,,,,,,,,,252.6712,253.8867,l,1,0.5445,1,253.8868,254.3866,,,,,,278,MAS,NOWORD,DIS,150,vuemo,,la,,0.5445,,254.3868,254.3869,-0.274739583,-0.32421875,0,0,0,,0,68,68,277,1,fuego,,,,
,,,,,,5f9afa6dffa5e21329cf3f6e,676192165fb32c2e1fb7aee6,67d0b59cd4effcd1d475725b,2025-03-11_15h18.54.762,Tarea de decisión léxica,2024.2.5,Win32,60.24096386,,,,,,,,,,,,,,,,,,,,,,,254.3879,255.5203,l,1,0.4622,1,255.5205,256.0202,,,,,,318,FEM,NOWORD,DIS,150,plaad,,el,,0.4622,,256.0213,256.0219,-0.274739583,-0.32421875,0,0,0,,0,69,69,317,1,playa,,,,
,,,,,,5f9afa6dffa5e21329cf3f6e,676192165fb32c2e1fb7aee6,67d0b59cd4effcd1d475725b,2025-03-11_15h18.54.762,Tarea de decisión léxica,2024.2.5,Win32,60.24096386,,,,,,,,,,,,,,,,,,,,,,,256.0224,257.1533,l,0,0.4608,0,257.1543,257.6537,,,,,,219,FEM,WORD,AGR,150,pipa,,la,,0.4608,,257.6538,257.654,-0.274739583,-0.32421875,0,0,0,,0,70,70,218,1,miva,,,,
,,,,,,5f9afa6dffa5e21329cf3f6e,676192165fb32c2e1fb7aee6,67d0b59cd4effcd1d475725b,2025-03-11_15h18.54.762,Tarea de decisión léxica,2024.2.5,Win32,60.24096386,,,,,,,,,,,,,,,,,,,,,,,257.655,258.9539,l,1,0.6259,1,258.9551,259.454,,,,,,326,FEM,NOWORD,DIS,150,mabia,,el,,0.6259,,259.4541,259.4542,-0.274739583,-0.32421875,0,0,0,,0,71,71,325,1,magia,,,,
,,,,,,5f9afa6dffa5e21329cf3f6e,676192165fb32c2e1fb7aee6,67d0b59cd4effcd1d475725b,2025-03-11_15h18.54.762,Tarea de decisión léxica,2024.2.5,Win32,60.24096386,,,,,,,,,,,,,,,,,,,,,,,259.4552,260.6875,l,1,0.5563,1,260.6876,261.1875,,,,,,274,FEM,NOWORD,DIS,150,frosa,,el,,0.5563,,261.1876,261.1877,-0.274739583,-0.32421875,0,0,0,,0,72,72,273,1,broma,,,,
,,,,,,5f9afa6dffa5e21329cf3f6e,676192165fb32c2e1fb7aee6,67d0b59cd4effcd1d475725b,2025-03-11_15h18.54.762,Tarea de decisión léxica,2024.2.5,Win32,60.24096386,,,,,,,,,,,,,,,,,,,,,,,261.1887,262.371,l,1,0.5041,1,262.3712,262.8706,,,,,,104,FEM,NOWORD,AGR,150,rova,,la,,0.5041,,262.8706,262.8706,-0.274739583,-0.32421875,0,0,0,,0,73,73,103,1,ruta,,,,
,,,,,,5f9afa6dffa5e21329cf3f6e,676192165fb32c2e1fb7aee6,67d0b59cd4effcd1d475725b,2025-03-11_15h18.54.762,Tarea de decisión léxica,2024.2.5,Win32,60.24096386,,,,,,,,,,,,,,,,,,,,,,,262.872,263.9874,l,1,0.4365,1,263.9876,264.4875,,,,,,208,MAS,NOWORD,AGR,150,kedo,,el,,0.4365,,264.4887,264.4894,-0.274739583,-0.32421875,0,0,0,,0,74,74,207,1,kilo,,,,
,,,,,,5f9afa6dffa5e21329cf3f6e,676192165fb32c2e1fb7aee6,67d0b59cd4effcd1d475725b,2025-03-11_15h18.54.762,Tarea de decisión léxica,2024.2.5,Win32,60.24096386,,,,,,,,,,,,,,,,,,,,,,,264.4901,265.6712,l,1,0.5037,1,265.6715,266.1712,,,,,,302,FEM,NOWORD,DIS,150,ranga,,el,,0.5037,,266.1713,266.1714,-0.274739583,-0.32421875,0,0,0,,0,75,75,301,1,banda,,,,
,,,,,,5f9afa6dffa5e21329cf3f6e,676192165fb32c2e1fb7aee6,67d0b59cd4effcd1d475725b,2025-03-11_15h18.54.762,Tarea de decisión léxica,2024.2.5,Win32,60.24096386,,,,,,,,,,,,,,,,,,,,,,,266.1723,267.3548,a,1,0.5005,1,267.355,267.8548,,,,,,83,FEM,WORD,AGR,150,bala,,la,,0.5005,,267.8549,267.855,-0.274739583,-0.32421875,0,0,0,,0,76,76,82,1,taga,,,,
,,,,,,5f9afa6dffa5e21329cf3f6e,676192165fb32c2e1fb7aee6,67d0b59cd4effcd1d475725b,2025-03-11_15h18.54.762,Tarea de decisión léxica,2024.2.5,Win32,60.24096386,,,,,,,,,,,,,,,,,,,,,,,267.8564,269.1552,l,1,0.6212,1,269.1554,269.6553,,,,,,248,FEM,NOWORD,AGR,150,trida,,la,,0.6212,,269.6554,269.6555,-0.274739583,-0.32421875,0,0,0,,0,77,77,247,1,chica,,,,
,,,,,,5f9afa6dffa5e21329cf3f6e,676192165fb32c2e1fb7aee6,67d0b59cd4effcd1d475725b,2025-03-11_15h18.54.762,Tarea de decisión léxica,2024.2.5,Win32,60.24096386,,,,,,,,,,,,,,,,,,,,,,,269.6567,270.7218,a,1,0.3957,1,270.7219,271.2218,,,,,,229,MAS,WORD,DIS,150,amor,,la,,0.3957,,271.2218,271.222,-0.274739583,-0.32421875,0,0,0,,0,78,78,228,1,ador,,,,
,,,,,,5f9afa6dffa5e21329cf3f6e,676192165fb32c2e1fb7aee6,67d0b59cd4effcd1d475725b,2025-03-11_15h18.54.762,Tarea de decisión léxica,2024.2.5,Win32,60.24096386,,,,,,,,,,,,,,,,,,,,,,,271.2227,272.4221,l,1,0.5167,1,272.4222,272.9223,,,,,,430,FEM,NOWORD,DIS,150,tenta,,el,,0.5167,,272.9237,272.9246,-0.274739583,-0.32421875,0,0,0,,0,79,79,429,1,tarta,,,,
,,,,,,5f9afa6dffa5e21329cf3f6e,676192165fb32c2e1fb7aee6,67d0b59cd4effcd1d475725b,2025-03-11_15h18.54.762,Tarea de decisión léxica,2024.2.5,Win32,60.24096386,,,,,,,,,,,,,,,,,,,,,,,272.9254,274.0553,l,1,0.459,1,274.0554,274.5554,,,,,,290,FEM,NOWORD,DIS,150,bumpa,,el,,0.459,,274.5554,274.5556,-0.274739583,-0.32421875,0,0,0,,0,80,80,289,1,bomba,,,,
,,,,,,5f9afa6dffa5e21329cf3f6e,676192165fb32c2e1fb7aee6,67d0b59cd4effcd1d475725b,2025-03-11_15h18.54.762,Tarea de decisión léxica,2024.2.5,Win32,60.24096386,,,,,,,,,,,,,,,,,,,,,,,274.5565,275.839,l,1,0.6082,1,275.8392,276.339,,,,,,148,FEM,NOWORD,AGR,150,pama,,la,,0.6082,,276.3391,276.3392,-0.274739583,-0.32421875,0,0,0,,0,81,81,147,1,hoja,,,,
,,,,,,5f9afa6dffa5e21329cf3f6e,676192165fb32c2e1fb7aee6,67d0b59cd4effcd1d475725b,2025-03-11_15h18.54.762,Tarea de decisión léxica,2024.2.5,Win32,60.24096386,,,,,,,,,,,,,,,,,,,,,,,276.34,277.4558,a,1,0.4407,1,277.4559,277.9562,,,,,,89,MAS,WORD,DIS,150,humo,,la,,0.4407,,277.9563,277.9564,-0.274739583,-0.32421875,0,0,0,,0,82,82,88,1,guso,,,,
,,,,,,5f9afa6dffa5e21329cf3f6e,676192165fb32c2e1fb7aee6,67d0b59cd4effcd1d475725b,2025-03-11_15h18.54.762,Tarea de decisión léxica,2024.2.5,Win32,60.24096386,,,,,,,,,,,,,,,,,,,,,,,277.9576,279.0728,a,1,0.4337,1,279.0729,279.5728,,,,,,399,MAS,WORD,AGR,150,techo,,el,,0.4337,,279.5738,279.5744,-0.274739583,-0.32421875,0,0,0,,0,83,83,398,1,serro,,,,
,,,,,,5f9afa6dffa5e21329cf3f6e,676192165fb32c2e1fb7aee6,67d0b59cd4effcd1d475725b,2025-03-11_15h18.54.762,Tarea de decisión léxica,2024.2.5,Win32,60.24096386,,,,,,,,,,,,,,,,,,,,,,,279.575,280.6562,l,1,0.4009,1,280.6564,281.1559,,,,,,436,MAS,NOWORD,AGR,150,ricno,,el,,0.4009,,281.1561,281.1562,-0.274739583,-0.32421875,0,0,0,,0,84,84,435,1,ritmo,,,,
,,,,,,5f9afa6dffa5e21329cf3f6e,676192165fb32c2e1fb7aee6,67d0b59cd4effcd1d475725b,2025-03-11_15h18.54.762,Tarea de decisión léxica,2024.2.5,Win32,60.24096386,,,,,,,,,,,,,,,,,,,,,,,281.1571,282.323,l,1,0.485,1,282.323,282.823,,,,,,292,FEM,NOWORD,AGR,150,mesta,,la,,0.485,,282.823,282.8232,-0.274739583,-0.32421875,0,0,0,,0,85,85,291,1,pista,,,,
,,,,,,5f9afa6dffa5e21329cf3f6e,676192165fb32c2e1fb7aee6,67d0b59cd4effcd1d475725b,2025-03-11_15h18.54.762,Tarea de decisión léxica,2024.2.5,Win32,60.24096386,,,,,,,,,,,,,,,,,,,,,,,282.8242,283.89,l,1,0.3904,1,283.8901,284.3902,,,,,,14,FEM,NOWORD,DIS,150,nola,,el,,0.3904,,284.3903,284.3904,-0.274739583,-0.32421875,0,0,0,,0,86,86,13,1,hora,,,,
,,,,,,5f9afa6dffa5e21329cf3f6e,676192165fb32c2e1fb7aee6,67d0b59cd4effcd1d475725b,2025-03-11_15h18.54.762,Tarea de decisión léxica,2024.2.5,Win32,60.24096386,,,,,,,,,,,,,,,,,,,,,,,284.3915,285.5399,l,1,0.4785,1,285.5401,286.0402,,,,,,42,FEM,NOWORD,DIS,150,haje,,el,,0.4785,,286.0404,286.0404,-0.274739583,-0.32421875,0,0,0,,0,87,87,41,1,nave,,,,
,,,,,,5f9afa6dffa5e21329cf3f6e,676192165fb32c2e1fb7aee6,67d0b59cd4effcd1d475725b,2025-03-11_15h18.54.762,Tarea de decisión léxica,2024.2.5,Win32,60.24096386,,,,,,,,,,,,,,,,,,,,,,,286.0421,287.1902,a,1,0.4727,1,287.1904,287.6902,,,,,,19,MAS,WORD,DIS,150,niño,,la,,0.4727,,287.6913,287.692,-0.274739583,-0.32421875,0,0,0,,0,88,88,18,1,himo,,,,
,,,,,,5f9afa6dffa5e21329cf3f6e,676192165fb32c2e1fb7aee6,67d0b59cd4effcd1d475725b,2025-03-11_15h18.54.762,Tarea de decisión léxica,2024.2.5,Win32,60.24096386,,,,,,,,,,,,,,,,,,,,,,,287.6926,288.9404,a,1,0.5695,1,288.9405,289.4405,,,,,,469,MAS,WORD,DIS,150,patio,,la,,0.5695,,289.4405,289.4406,-0.274739583,-0.32421875,0,0,0,,0,89,89,468,1,matia,,,,
,,,,,,5f9afa6dffa5e21329cf3f6e,676192165fb32c2e1fb7aee6,67d0b59cd4effcd1d475725b,2025-03-11_15h18.54.762,Tarea de decisión léxica,2024.2.5,Win32,60.24096386,,,,,,,,,,,,,,,,,,,,,,,289.4415,290.4903,l,1,0.3721,1,290.4904,290.9907,,,,,,118,MAS,NOWORD,DIS,150,movo,,la,,0.3721,,290.9907,290.9908,-0.274739583,-0.32421875,0,0,0,,0,90,90,117,1,palo,,,,
,,,,,,5f9afa6dffa5e21329cf3f6e,676192165fb32c2e1fb7aee6,67d0b59cd4effcd1d475725b,2025-03-11_15h18.54.762,Tarea de decisión léxica,2024.2.5,Win32,60.24096386,,,,,,,,,,,,,,,,,,,,,,,290.9918,292.0739,l,1,0.4076,1,292.074,292.5741,,,,,,32,FEM,NOWORD,AGR,150,bova,,la,,0.4076,,292.5741,292.5743,-0.274739583,-0.32421875,0,0,0,,0,91,91,31,1,ropa,,,,
,,,,,,5f9afa6dffa5e21329cf3f6e,676192165fb32c2e1fb7aee6,67d0b59cd4effcd1d475725b,2025-03-11_15h18.54.762,Tarea de decisión léxica,2024.2.5,Win32,60.24096386,,,,,,,,,,,,,,,,,,,,,,,292.5755,293.691,a,1,0.4345,1,293.6912,294.1914,,,,,,85,MAS,WORD,DIS,150,lago,,la,,0.4345,,294.1915,294.1917,-0.274739583,-0.32421875,0,0,0,,0,92,92,84,1,babo,,,,
,,,,,,5f9afa6dffa5e21329cf3f6e,676192165fb32c2e1fb7aee6,67d0b59cd4effcd1d475725b,2025-03-11_15h18.54.762,Tarea de decisión léxica,2024.2.5,Win32,60.24096386,,,,,,,,,,,,,,,,,,,,,,,294.1931,295.2245,a,1,0.3572,1,295.2246,295.7245,,,,,,273,FEM,WORD,DIS,150,broma,,el,,0.3572,,295.7262,295.7273,-0.274739583,-0.32421875,0,0,0,,0,93,93,272,1,frosa,,,,
,,,,,,5f9afa6dffa5e21329cf3f6e,676192165fb32c2e1fb7aee6,67d0b59cd4effcd1d475725b,2025-03-11_15h18.54.762,Tarea de decisión léxica,2024.2.5,Win32,60.24096386,,,,,,,,,,,,,,,,,,,,,,,295.728,296.7609,a,1,0.3657,1,296.761,297.2579,,,,,,423,MAS,WORD,AGR,150,queso,,el,,0.3657,,297.2579,297.2581,-0.274739583,-0.32421875,0,0,0,,0,94,94,422,1,quigo,,,,
,,,,,,5f9afa6dffa5e21329cf3f6e,676192165fb32c2e1fb7aee6,67d0b59cd4effcd1d475725b,2025-03-11_15h18.54.762,Tarea de decisión léxica,2024.2.5,Win32,60.24096386,,,,,,,,,,,,,,,,,,,,,,,297.2592,298.4246,l,0,0.484,0,298.4256,298.9243,,,,,,161,MAS,WORD,AGR,150,coro,,el,,0.484,,298.9245,298.9245,-0.274739583,-0.32421875,0,0,0,,0,95,95,160,1,bopo,,,,
,,,,,,5f9afa6dffa5e21329cf3f6e,676192165fb32c2e1fb7aee6,67d0b59cd4effcd1d475725b,2025-03-11_15h18.54.762,Tarea de decisión léxica,2024.2.5,Win32,60.24096386,,,,,,,,,,,,,,,,,,,,,,,298.926,300.0413,l,1,0.4351,1,300.0422,300.5417,,,,,,162,MAS,NOWORD,DIS,150,bopo,,la,,0.4351,,300.5418,300.5418,-0.274739583,-0.32421875,0,0,0,,0,96,96,161,1,coro,,,,
,,,,,,5f9afa6dffa5e21329cf3f6e,676192165fb32c2e1fb7aee6,67d0b59cd4effcd1d475725b,2025-03-11_15h18.54.762,Tarea de decisión léxica,2024.2.5,Win32,60.24096386,,,,,,,,,,,,,,,,,,,,,,,300.5428,301.7586,l,1,0.5321,1,301.7587,302.2587,,,,,,116,FEM,NOWORD,AGR,150,haca,,la,,0.5321,,302.2588,302.259,-0.274739583,-0.32421875,0,0,0,,0,97,97,115,1,pata,,,,
,,,,,,5f9afa6dffa5e21329cf3f6e,676192165fb32c2e1fb7aee6,67d0b59cd4effcd1d475725b,2025-03-11_15h18.54.762,Tarea de decisión léxica,2024.2.5,Win32,60.24096386,,,,,,,,,,,,,,,,,,,,,,,302.2603,303.4253,l,1,0.484,1,303.4254,303.9253,,,,,,98,MAS,NOWORD,DIS,150,fopo,,la,,0.484,,303.9269,303.9277,-0.274739583,-0.32421875,0,0,0,,0,98,98,97,1,mono,,,,
,,,,,,5f9afa6dffa5e21329cf3f6e,676192165fb32c2e1fb7aee6,67d0b59cd4effcd1d475725b,2025-03-11_15h18.54.762,Tarea de decisión léxica,2024.2.5,Win32,60.24096386,,,,,,,,,,,,,,,,,,,,,,,303.9284,304.9747,a,1,0.3673,1,304.9748,305.4753,,,,,,311,MAS,WORD,AGR,150,honor,,el,,0.3673,,305.4754,305.4755,-0.274739583,-0.32421875,0,0,0,,0,99,99,310,1,nosor,,,,
,,,,,,5f9afa6dffa5e21329cf3f6e,676192165fb32c2e1fb7aee6,67d0b59cd4effcd1d475725b,2025-03-11_15h18.54.762,Tarea de decisión léxica,2024.2.5,Win32,60.24096386,,,,,,,,,,,,,,,,,,,,,,,305.4779,306.5588,l,1,0.4077,1,306.5589,307.0592,,,,,,94,FEM,NOWORD,DIS,150,rona,,el,,0.4077,,307.0592,307.0593,-0.274739583,-0.32421875,0,0,0,,0,100,100,93,1,bola,,,,
,,,,,,5f9afa6dffa5e21329cf3f6e,676192165fb32c2e1fb7aee6,67d0b59cd4effcd1d475725b,2025-03-11_15h18.54.762,Tarea de decisión léxica,2024.2.5,Win32,60.24096386,,,,,,,,,,,,,,,,,,,,,,,307.0608,308.3258,a,1,0.573,1,308.3259,308.8259,,,,,,225,MAS,WORD,DIS,150,lodo,,la,,0.573,,308.826,308.8261,-0.274739583,-0.32421875,0,0,0,,0,101,101,224,1,boco,,,,
,,,,,,5f9afa6dffa5e21329cf3f6e,676192165fb32c2e1fb7aee6,67d0b59cd4effcd1d475725b,2025-03-11_15h18.54.762,Tarea de decisión léxica,2024.2.5,Win32,60.24096386,,,,,,,,,,,,,,,,,,,,,,,308.8267,309.9593,l,1,0.4615,1,309.9594,310.4593,,,,,,442,FEM,NOWORD,DIS,150,telza,,el,,0.4615,,310.4594,310.4595,-0.274739583,-0.32421875,0,0,0,,0,102,102,441,1,selva,,,,
,,,,,,5f9afa6dffa5e21329cf3f6e,676192165fb32c2e1fb7aee6,67d0b59cd4effcd1d475725b,2025-03-11_15h18.54.762,Tarea de decisión léxica,2024.2.5,Win32,60.24096386,,,,,,,,,,,,,,,,,,,,,,,310.4603,311.626,l,1,0.4897,1,311.6261,312.1259,,,,,,244,MAS,NOWORD,AGR,150,asamo,,el,,0.4897,,312.1271,312.1278,-0.274739583,-0.32421875,0,0,0,,0,103,103,243,1,amigo,,,,
,,,,,,5f9afa6dffa5e21329cf3f6e,676192165fb32c2e1fb7aee6,67d0b59cd4effcd1d475725b,2025-03-11_15h18.54.762,Tarea de decisión léxica,2024.2.5,Win32,60.24096386,,,,,,,,,,,,,,,,,,,,,,,312.1286,313.2594,l,1,0.4587,1,313.2596,313.7596,,,,,,374,FEM,NOWORD,DIS,150,pogza,,el,,0.4587,,313.7596,313.7598,-0.274739583,-0.32421875,0,0,0,,0,104,104,373,1,pizza,,,,
,,,,,,5f9afa6dffa5e21329cf3f6e,676192165fb32c2e1fb7aee6,67d0b59cd4effcd1d475725b,2025-03-11_15h18.54.762,Tarea de decisión léxica,2024.2.5,Win32,60.24096386,,,,,,,,,,,,,,,,,,,,,,,313.7605,315.2763,a,0,0.8343,0,315.2774,315.7765,,,,,,304,MAS,NOWORD,AGR,150,lanco,,el,,0.8343,,315.7765,315.7767,-0.274739583,-0.32421875,0,0,0,,0,105,105,303,1,barco,,,,
,,,,,,5f9afa6dffa5e21329cf3f6e,676192165fb32c2e1fb7aee6,67d0b59cd4effcd1d475725b,2025-03-11_15h18.54.762,Tarea de decisión léxica,2024.2.5,Win32,60.24096386,,,,,,,,,,,,,,,,,,,,,,,315.7777,316.9931,a,1,0.545,1,316.9939,317.4936,,,,,,33,FEM,WORD,DIS,150,boca,,el,,0.545,,317.4937,317.4938,-0.274739583,-0.32421875,0,0,0,,0,106,106,32,1,loda,,,,
,,,,,,5f9afa6dffa5e21329cf3f6e,676192165fb32c2e1fb7aee6,67d0b59cd4effcd1d475725b,2025-03-11_15h18.54.762,Tarea de decisión léxica,2024.2.5,Win32,60.24096386,,,,,,,,,,,,,,,,,,,,,,,317.4948,318.5769,a,1,0.4046,1,318.577,319.0771,,,,,,405,FEM,WORD,AGR,150,barra,,la,,0.4046,,319.0777,319.0781,-0.274739583,-0.32421875,0,0,0,,0,107,107,404,1,rarra,,,,
,,,,,,5f9afa6dffa5e21329cf3f6e,676192165fb32c2e1fb7aee6,67d0b59cd4effcd1d475725b,2025-03-11_15h18.54.762,Tarea de decisión léxica,2024.2.5,Win32,60.24096386,,,,,,,,,,,,,,,,,,,,,,,319.0786,320.2272,l,1,0.4836,1,320.2273,320.7273,,,,,,174,FEM,NOWORD,DIS,150,boma,,el,,0.4836,,320.7274,320.7275,-0.274739583,-0.32421875,0,0,0,,0,108,108,173,1,rosa,,,,
,,,,,,5f9afa6dffa5e21329cf3f6e,676192165fb32c2e1fb7aee6,67d0b59cd4effcd1d475725b,2025-03-11_15h18.54.762,Tarea de decisión léxica,2024.2.5,Win32,60.24096386,,,,,,,,,,,,,,,,,,,,,,,320.7283,321.9102,a,1,0.504,1,321.9103,322.4105,,,,,,157,MAS,WORD,AGR,150,nido,,el,,0.504,,322.4105,322.4107,-0.274739583,-0.32421875,0,0,0,,0,109,109,156,1,hico,,,,
,,,,,,5f9afa6dffa5e21329cf3f6e,676192165fb32c2e1fb7aee6,67d0b59cd4effcd1d475725b,2025-03-11_15h18.54.762,Tarea de decisión léxica,2024.2.5,Win32,60.24096386,,,,,,,,,,,,,,,,,,,,,,,322.4117,323.4938,l,1,0.4079,1,323.4939,323.9939,,,,,,464,FEM,NOWORD,AGR,150,matla,,la,,0.4079,,323.9939,323.9941,-0.274739583,-0.32421875,0,0,0,,0,110,110,463,1,cabra,,,,
,,,,,,5f9afa6dffa5e21329cf3f6e,676192165fb32c2e1fb7aee6,67d0b59cd4effcd1d475725b,2025-03-11_15h18.54.762,Tarea de decisión léxica,2024.2.5,Win32,60.24096386,,,,,,,,,,,,,,,,,,,,,,,323.9952,325.1609,l,1,0.4854,1,325.161,325.661,,,,,,362,FEM,NOWORD,DIS,150,solle,,el,,0.4854,,325.661,325.6612,-0.274739583,-0.32421875,0,0,0,,0,111,111,361,1,torre,,,,
,,,,,,5f9afa6dffa5e21329cf3f6e,676192165fb32c2e1fb7aee6,67d0b59cd4effcd1d475725b,2025-03-11_15h18.54.762,Tarea de decisión léxica,2024.2.5,Win32,60.24096386,,,,,,,,,,,,,,,,,,,,,,,325.6623,326.9818,l,1,0.6502,1,326.982,327.4778,,,,,,298,MAS,NOWORD,DIS,150,brubo,,la,,0.6502,,327.4787,327.4791,-0.274739583,-0.32421875,0,0,0,,0,112,112,297,1,grupo,,,,
,,,,,,5f9afa6dffa5e21329cf3f6e,676192165fb32c2e1fb7aee6,67d0b59cd4effcd1d475725b,2025-03-11_15h18.54.762,Tarea de decisión léxica,2024.2.5,Win32,60.24096386,,,,,,,,,,,,,,,,,,,,,,,327.4796,328.4942,a,1,0.3365,1,328.4943,328.9942,,,,,,253,MAS,WORD,DIS,150,chico,,la,,0.3365,,328.9943,328.9945,-0.274739583,-0.32421875,0,0,0,,0,113,113,252,1,trido,,,,
,,,,,,5f9afa6dffa5e21329cf3f6e,676192165fb32c2e1fb7aee6,67d0b59cd4effcd1d475725b,2025-03-11_15h18.54.762,Tarea de decisión léxica,2024.2.5,Win32,60.24096386,,,,,,,,,,,,,,,,,,,,,,,328.9956,330.1116,l,1,0.4449,1,330.1116,330.6114,,,,,,202,FEM,NOWORD,DIS,150,cusa,,el,,0.4449,,330.6114,330.6116,-0.274739583,-0.32421875,0,0,0,,0,114,114,201,1,cuna,,,,
,,,,,,5f9afa6dffa5e21329cf3f6e,676192165fb32c2e1fb7aee6,67d0b59cd4effcd1d475725b,2025-03-11_15h18.54.762,Tarea de decisión léxica,2024.2.5,Win32,60.24096386,,,,,,,,,,,,,,,,,,,,,,,330.6123,331.8284,l,1,0.5413,1,331.8285,332.3285,,,,,,378,MAS,NOWORD,DIS,150,gaulo,,la,,0.5413,,332.3285,332.3287,-0.274739583,-0.32421875,0,0,0,,0,115,115,377,1,hielo,,,,
,,,,,,5f9afa6dffa5e21329cf3f6e,676192165fb32c2e1fb7aee6,67d0b59cd4effcd1d475725b,2025-03-11_15h18.54.762,Tarea de decisión léxica,2024.2.5,Win32,60.24096386,,,,,,,,,,,,,,,,,,,,,,,332.3298,333.3449,a,1,0.3569,1,333.345,333.8452,,,,,,169,MAS,WORD,DIS,150,cubo,,la,,0.3569,,333.8452,333.8454,-0.274739583,-0.32421875,0,0,0,,0,116,116,168,1,mibo,,,,
,,,,,,5f9afa6dffa5e21329cf3f6e,676192165fb32c2e1fb7aee6,67d0b59cd4effcd1d475725b,2025-03-11_15h18.54.762,Tarea de decisión léxica,2024.2.5,Win32,60.24096386,,,,,,,,,,,,,,,,,,,,,,,333.8467,334.9284,l,1,0.4033,1,334.9285,335.4286,,,,,,246,FEM,NOWORD,DIS,150,pafle,,el,,0.4033,,335.4299,335.4304,-0.274739583,-0.32421875,0,0,0,,0,117,117,245,1,madre,,,,
,,,,,,5f9afa6dffa5e21329cf3f6e,676192165fb32c2e1fb7aee6,67d0b59cd4effcd1d475725b,2025-03-11_15h18.54.762,Tarea de decisión léxica,2024.2.5,Win32,60.24096386,,,,,,,,,,,,,,,,,,,,,,,335.4307,336.5789,l,1,0.4761,1,336.579,337.079,,,,,,108,MAS,NOWORD,AGR,150,raot,,el,,0.4761,,337.079,337.0792,-0.274739583,-0.32421875,0,0,0,,0,118,118,107,1,saco,,,,
,,,,,,5f9afa6dffa5e21329cf3f6e,676192165fb32c2e1fb7aee6,67d0b59cd4effcd1d475725b,2025-03-11_15h18.54.762,Tarea de decisión léxica,2024.2.5,Win32,60.24096386,,,,,,,,,,,,,,,,,,,,,,,337.08,338.1121,a,1,0.3592,1,338.1122,338.6121,,,,,,51,FEM,WORD,AGR,150,caja,,la,,0.3592,,338.6121,338.6123,-0.274739583,-0.32421875,0,0,0,,0,119,119,50,1,mava,,,,
,,,,,,5f9afa6dffa5e21329cf3f6e,676192165fb32c2e1fb7aee6,67d0b59cd4effcd1d475725b,2025-03-11_15h18.54.762,Tarea de decisión léxica,2024.2.5,Win32,60.24096386,,,,,,,,,,,,,,,,,,,,,,,338.6129,339.7123,l,1,0.4168,1,339.7124,340.2123,,,,,,92,FEM,NOWORD,AGR,150,sava,,la,,0.4168,,340.2123,340.2124,-0.274739583,-0.32421875,0,0,0,,0,120,120,91,1,taza,,,,
,,,,,,5f9afa6dffa5e21329cf3f6e,676192165fb32c2e1fb7aee6,67d0b59cd4effcd1d475725b,2025-03-11_15h18.54.762,Tarea de decisión léxica,2024.2.5,Win32,60.24096386,,,,,,,,,,,,,,,,,,,,,,,340.2133,341.2457,a,1,0.3603,1,341.2459,341.7458,,,,,,295,MAS,WORD,DIS,150,dolor,,la,,0.3603,,341.7459,341.7459,-0.274739583,-0.32421875,0,0,0,,0,121,121,294,1,goler,,,,
,,,,,,5f9afa6dffa5e21329cf3f6e,676192165fb32c2e1fb7aee6,67d0b59cd4effcd1d475725b,2025-03-11_15h18.54.762,Tarea de decisión léxica,2024.2.5,Win32,60.24096386,,,,,,,,,,,,,,,,,,,,,,,341.7468,342.7791,a,1,0.3514,1,342.7793,343.2794,,,,,,21,MAS,WORD,AGR,150,plan,,el,,0.3514,,343.2805,343.2812,-0.274739583,-0.32421875,0,0,0,,0,122,122,20,1,blan,,,,
,,,,,,5f9afa6dffa5e21329cf3f6e,676192165fb32c2e1fb7aee6,67d0b59cd4effcd1d475725b,2025-03-11_15h18.54.762,Tarea de decisión léxica,2024.2.5,Win32,60.24096386,,,,,,,,,,,,,,,,,,,,,,,343.2819,344.4462,a,1,0.4951,1,344.4464,344.9463,,,,,,271,FEM,WORD,AGR,150,señal,,la,,0.4951,,344.9464,344.9465,-0.274739583,-0.32421875,0,0,0,,0,123,123,270,1,refal,,,,
,,,,,,5f9afa6dffa5e21329cf3f6e,676192165fb32c2e1fb7aee6,67d0b59cd4effcd1d475725b,2025-03-11_15h18.54.762,Tarea de decisión léxica,2024.2.5,Win32,60.24096386,,,,,,,,,,,,,,,,,,,,,,,344.9476,346.1638,l,1,0.5608,1,346.164,346.6632,,,,,,428,FEM,NOWORD,AGR,150,oseva,,la,,0.5608,,346.6633,346.6634,-0.274739583,-0.32421875,0,0,0,,0,124,124,427,1,oreja,,,,
,,,,,,5f9afa6dffa5e21329cf3f6e,676192165fb32c2e1fb7aee6,67d0b59cd4effcd1d475725b,2025-03-11_15h18.54.762,Tarea de decisión léxica,2024.2.5,Win32,60.24096386,,,,,,,,,,,,,,,,,,,,,,,346.6645,347.8464,l,1,0.5014,1,347.8465,348.3465,,,,,,4,FEM,NOWORD,AGR,150,dica,,la,,0.5014,,348.3466,348.3466,-0.274739583,-0.32421875,0,0,0,,0,125,125,3,1,vida,,,,
,,,,,,5f9afa6dffa5e21329cf3f6e,676192165fb32c2e1fb7aee6,67d0b59cd4effcd1d475725b,2025-03-11_15h18.54.762,Tarea de decisión léxica,2024.2.5,Win32,60.24096386,,,,,,,,,,,,,,,,,,,,,,,348.3476,349.3466,a,1,0.3258,1,349.3467,349.8467,,,,,,131,FEM,WORD,DIS,150,mina,,el,,0.3258,,349.8468,349.8469,-0.274739583,-0.32421875,0,0,0,,0,126,126,130,1,fada,,,,
,,,,,,5f9afa6dffa5e21329cf3f6e,676192165fb32c2e1fb7aee6,67d0b59cd4effcd1d475725b,2025-03-11_15h18.54.762,Tarea de decisión léxica,2024.2.5,Win32,60.24096386,,,,,,,,,,,,,,,,,,,,,,,349.8479,350.9803,l,1,0.4585,1,350.9804,351.4801,,,,,,10,MAS,NOWORD,DIS,150,sibo,,la,,0.4585,,351.4809,351.4813,-0.274739583,-0.32421875,0,0,0,,0,127,127,9,1,tipo,,,,
,,,,,,5f9afa6dffa5e21329cf3f6e,676192165fb32c2e1fb7aee6,67d0b59cd4effcd1d475725b,2025-03-11_15h18.54.762,Tarea de decisión léxica,2024.2.5,Win32,60.24096386,,,,,,,,,,,,,,,,,,,,,,,351.4818,352.7973,l,1,0.6379,1,352.7974,353.2971,,,,,,82,FEM,NOWORD,DIS,150,vasa,,el,,0.6379,,353.2972,353.2973,-0.274739583,-0.32421875,0,0,0,,0,128,128,81,1,dama,,,,
,,,,,,5f9afa6dffa5e21329cf3f6e,676192165fb32c2e1fb7aee6,67d0b59cd4effcd1d475725b,2025-03-11_15h18.54.762,Tarea de decisión léxica,2024.2.5,Win32,60.24096386,,,,,,,,,,,,,,,,,,,,,,,353.2987,354.3304,a,0,0.35,0,354.3312,354.8309,,,,,,250,FEM,NOWORD,DIS,150,plane,,el,,0.35,,354.831,354.831,-0.274739583,-0.32421875,0,0,0,,0,129,129,249,1,clase,,,,
,,,,,,5f9afa6dffa5e21329cf3f6e,676192165fb32c2e1fb7aee6,67d0b59cd4effcd1d475725b,2025-03-11_15h18.54.762,Tarea de decisión léxica,2024.2.5,Win32,60.24096386,,,,,,,,,,,,,,,,,,,,,,,354.8321,355.931,a,1,0.4173,1,355.9318,356.431,,,,,,333,FEM,WORD,DIS,150,tarea,,el,,0.4173,,356.431,356.4312,-0.274739583,-0.32421875,0,0,0,,0,130,130,332,1,dalea,,,,
,,,,,,5f9afa6dffa5e21329cf3f6e,676192165fb32c2e1fb7aee6,67d0b59cd4effcd1d475725b,2025-03-11_15h18.54.762,Tarea de decisión léxica,2024.2.5,Win32,60.24096386,,,,,,,,,,,,,,,,,,,,,,,356.4321,357.5974,a,1,0.4882,1,357.5976,358.0976,,,,,,121,MAS,WORD,AGR,150,hoyo,,el,,0.4882,,358.0987,358.0993,-0.274739583,-0.32421875,0,0,0,,0,131,131,120,1,bomo,,,,
,,,,,,5f9afa6dffa5e21329cf3f6e,676192165fb32c2e1fb7aee6,67d0b59cd4effcd1d475725b,2025-03-11_15h18.54.762,Tarea de decisión léxica,2024.2.5,Win32,60.24096386,,,,,,,,,,,,,,,,,,,,,,,358.0999,359.2311,a,1,0.4472,1,359.2312,359.7311,,,,,,43,FEM,WORD,DIS,150,pena,,el,,0.4472,,359.7313,359.7313,-0.274739583,-0.32421875,0,0,0,,0,132,132,42,1,meda,,,,
,,,,,,5f9afa6dffa5e21329cf3f6e,676192165fb32c2e1fb7aee6,67d0b59cd4effcd1d475725b,2025-03-11_15h18.54.762,Tarea de decisión léxica,2024.2.5,Win32,60.24096386,,,,,,,,,,,,,,,,,,,,,,,359.7321,360.7809,l,1,0.367,1,360.781,361.2813,,,,,,122,MAS,NOWORD,DIS,150,bomo,,la,,0.367,,361.2814,361.2815,-0.274739583,-0.32421875,0,0,0,,0,133,133,121,1,hoyo,,,,
,,,,,,5f9afa6dffa5e21329cf3f6e,676192165fb32c2e1fb7aee6,67d0b59cd4effcd1d475725b,2025-03-11_15h18.54.762,Tarea de decisión léxica,2024.2.5,Win32,60.24096386,,,,,,,,,,,,,,,,,,,,,,,361.2824,362.4151,l,1,0.4628,1,362.4151,362.9147,,,,,,136,MAS,NOWORD,AGR,150,geso,,el,,0.4628,,362.9148,362.9149,-0.274739583,-0.32421875,0,0,0,,0,134,134,135,1,tubo,,,,
,,,,,,5f9afa6dffa5e21329cf3f6e,676192165fb32c2e1fb7aee6,67d0b59cd4effcd1d475725b,2025-03-11_15h18.54.762,Tarea de decisión léxica,2024.2.5,Win32,60.24096386,,,,,,,,,,,,,,,,,,,,,,,362.9158,363.9981,a,0,0.4099,0,363.9988,364.4982,,,,,,138,MAS,NOWORD,DIS,150,pamo,,la,,0.4099,,364.4983,364.4984,-0.274739583,-0.32421875,0,0,0,,0,135,135,137,1,nene,,,,
,,,,,,5f9afa6dffa5e21329cf3f6e,676192165fb32c2e1fb7aee6,67d0b59cd4effcd1d475725b,2025-03-11_15h18.54.762,Tarea de decisión léxica,2024.2.5,Win32,60.24096386,,,,,,,,,,,,,,,,,,,,,,,364.4998,365.6149,a,1,0.4424,1,365.6161,366.1151,,,,,,323,FEM,WORD,DIS,150,cinta,,el,,0.4424,,366.1164,366.1171,-0.274739583,-0.32421875,0,0,0,,0,136,136,322,1,certa,,,,
,,,,,,5f9afa6dffa5e21329cf3f6e,676192165fb32c2e1fb7aee6,67d0b59cd4effcd1d475725b,2025-03-11_15h18.54.762,Tarea de decisión léxica,2024.2.5,Win32,60.24096386,,,,,,,,,,,,,,,,,,,,,,,366.1178,367.165,a,1,0.3783,1,367.165,367.665,,,,,,147,FEM,WORD,AGR,150,hoja,,la,,0.3783,,367.6651,367.6652,-0.274739583,-0.32421875,0,0,0,,0,137,137,146,1,pama,,,,
,,,,,,5f9afa6dffa5e21329cf3f6e,676192165fb32c2e1fb7aee6,67d0b59cd4effcd1d475725b,2025-03-11_15h18.54.762,Tarea de decisión léxica,2024.2.5,Win32,60.24096386,,,,,,,,,,,,,,,,,,,,,,,367.6665,368.7986,l,1,0.45,1,368.7986,369.2991,,,,,,30,MAS,NOWORD,DIS,150,pono,,la,,0.45,,369.2992,369.2993,-0.274739583,-0.32421875,0,0,0,,0,138,138,29,1,modo,,,,
,,,,,,5f9afa6dffa5e21329cf3f6e,676192165fb32c2e1fb7aee6,67d0b59cd4effcd1d475725b,2025-03-11_15h18.54.762,Tarea de decisión léxica,2024.2.5,Win32,60.24096386,,,,,,,,,,,,,,,,,,,,,,,369.3006,370.4155,l,1,0.4357,1,370.4157,370.9154,,,,,,18,FEM,NOWORD,DIS,150,paba,,el,,0.4357,,370.9155,370.9156,-0.274739583,-0.32421875,0,0,0,,0,139,139,17,1,mamá,,,,
,,,,,,5f9afa6dffa5e21329cf3f6e,676192165fb32c2e1fb7aee6,67d0b59cd4effcd1d475725b,2025-03-11_15h18.54.762,Tarea de decisión léxica,2024.2.5,Win32,60.24096386,,,,,,,,,,,,,,,,,,,,,,,370.9167,371.9825,a,1,0.3955,1,371.9827,372.4824,,,,,,415,FEM,WORD,DIS,150,jaula,,el,,0.3955,,372.4825,372.4827,-0.274739583,-0.32421875,0,0,0,,0,140,140,414,1,juira,,,,
,,,,,,5f9afa6dffa5e21329cf3f6e,676192165fb32c2e1fb7aee6,67d0b59cd4effcd1d475725b,2025-03-11_15h18.54.762,Tarea de decisión léxica,2024.2.5,Win32,60.24096386,,,,,,,,,,,,,,,,,,,,,,,372.4836,373.5661,l,1,0.405,1,373.5663,374.0662,,,,,,156,FEM,NOWORD,AGR,150,luma,,la,,0.405,,374.067,374.0674,-0.274739583,-0.32421875,0,0,0,,0,141,141,155,1,fuga,,,,
,,,,,,5f9afa6dffa5e21329cf3f6e,676192165fb32c2e1fb7aee6,67d0b59cd4effcd1d475725b,2025-03-11_15h18.54.762,Tarea de decisión léxica,2024.2.5,Win32,60.24096386,,,,,,,,,,,,,,,,,,,,,,,374.0679,375.1492,a,1,0.401,1,375.1493,375.6493,,,,,,91,FEM,WORD,DIS,150,taza,,el,,0.401,,375.6495,375.6496,-0.274739583,-0.32421875,0,0,0,,0,142,142,90,1,sava,,,,
,,,,,,5f9afa6dffa5e21329cf3f6e,676192165fb32c2e1fb7aee6,67d0b59cd4effcd1d475725b,2025-03-11_15h18.54.762,Tarea de decisión léxica,2024.2.5,Win32,60.24096386,,,,,,,,,,,,,,,,,,,,,,,375.6504,376.7833,a,1,0.4507,1,376.7835,377.2831,,,,,,127,MAS,WORD,AGR,150,pico,,el,,0.4507,,377.2831,377.2833,-0.274739583,-0.32421875,0,0,0,,0,143,143,126,1,itio,,,,
,,,,,,5f9afa6dffa5e21329cf3f6e,676192165fb32c2e1fb7aee6,67d0b59cd4effcd1d475725b,2025-03-11_15h18.54.762,Tarea de decisión léxica,2024.2.5,Win32,60.24096386,,,,,,,,,,,,,,,,,,,,,,,377.2841,378.3825,l,1,0.4169,1,378.3827,378.8831,,,,,,410,MAS,NOWORD,DIS,150,pafro,,la,,0.4169,,378.8832,378.8834,-0.274739583,-0.32421875,0,0,0,,0,144,144,409,1,carro,,,,
,,,,,,5f9afa6dffa5e21329cf3f6e,676192165fb32c2e1fb7aee6,67d0b59cd4effcd1d475725b,2025-03-11_15h18.54.762,Tarea de decisión léxica,2024.2.5,Win32,60.24096386,,,,,,,,,,,,,,,,,,,,,,,378.8845,379.9664,l,1,0.4093,1,379.9666,380.4664,,,,,,422,MAS,NOWORD,DIS,150,griso,,la,,0.4093,,380.4666,380.4667,-0.274739583,-0.32421875,0,0,0,,0,145,145,421,1,primo,,,,
,,,,,,5f9afa6dffa5e21329cf3f6e,676192165fb32c2e1fb7aee6,67d0b59cd4effcd1d475725b,2025-03-11_15h18.54.762,Tarea de decisión léxica,2024.2.5,Win32,60.24096386,,,,,,,,,,,,,,,,,,,,,,,380.468,381.6665,a,1,0.519,1,381.6668,382.1665,,,,,,355,FEM,WORD,DIS,150,regla,,el,,0.519,,382.1675,382.1682,-0.274739583,-0.32421875,0,0,0,,0,146,146,354,1,bepla,,,,
,,,,,,5f9afa6dffa5e21329cf3f6e,676192165fb32c2e1fb7aee6,67d0b59cd4effcd1d475725b,2025-03-11_15h18.54.762,Tarea de decisión léxica,2024.2.5,Win32,60.24096386,,,,,,,,,,,,,,,,,,,,,,,382.1687,383.2671,a,1,0.4218,1,383.2674,383.767,,,,,,47,MAS,WORD,AGR,150,club,,el,,0.4218,,383.7671,383.7672,-0.274739583,-0.32421875,0,0,0,,0,147,147,46,1,chub,,,,
,,,,,,5f9afa6dffa5e21329cf3f6e,676192165fb32c2e1fb7aee6,67d0b59cd4effcd1d475725b,2025-03-11_15h18.54.762,Tarea de decisión léxica,2024.2.5,Win32,60.24096386,,,,,,,,,,,,,,,,,,,,,,,383.7683,384.8838,a,1,0.4413,1,384.8839,385.3836,,,,,,187,MAS,WORD,AGR,150,mito,,el,,0.4413,,385.3837,385.3838,-0.274739583,-0.32421875,0,0,0,,0,148,148,186,1,suto,,,,
,,,,,,5f9afa6dffa5e21329cf3f6e,676192165fb32c2e1fb7aee6,67d0b59cd4effcd1d475725b,2025-03-11_15h18.54.762,Tarea de decisión léxica,2024.2.5,Win32,60.24096386,,,,,,,,,,,,,,,,,,,,,,,385.3847,386.6005,l,1,0.5339,1,386.6007,387.1005,,,,,,360,MAS,NOWORD,AGR,150,cacer,,el,,0.5339,,387.1006,387.1007,-0.274739583,-0.32421875,0,0,0,,0,149,149,359,1,calor,,,,
,,,,,,5f9afa6dffa5e21329cf3f6e,676192165fb32c2e1fb7aee6,67d0b59cd4effcd1d475725b,2025-03-11_15h18.54.762,Tarea de decisión léxica,2024.2.5,Win32,60.24096386,,,,,,,,,,,,,,,,,,,,,,,387.1016,388.2342,l,1,0.4506,1,388.2344,388.734,,,,,,284,MAS,NOWORD,AGR,150,tuevo,,el,,0.4506,,388.7341,388.7342,-0.274739583,-0.32421875,0,0,0,,0,150,150,283,1,sueño,,,,
,,,,,,5f9afa6dffa5e21329cf3f6e,676192165fb32c2e1fb7aee6,67d0b59cd4effcd1d475725b,2025-03-11_15h18.54.762,Tarea de decisión léxica,2024.2.5,Win32,60.24096386,,,,,,,,,,,,,,,,,,,,,,,388.7356,389.784,a,1,0.3787,1,389.7842,390.2842,,,,,,433,MAS,WORD,AGR,150,disco,,el,,0.3787,,390.2854,390.2862,-0.274739583,-0.32421875,0,0,0,,0,151,151,432,1,durco,,,,
,,,,,,5f9afa6dffa5e21329cf3f6e,676192165fb32c2e1fb7aee6,67d0b59cd4effcd1d475725b,2025-03-11_15h18.54.762,Tarea de decisión léxica,2024.2.5,Win32,60.24096386,,,,,,,,,,,,,,,,,,,,,,,390.2867,391.4178,l,1,0.4542,1,391.418,391.9181,,,,,,320,MAS,NOWORD,AGR,150,tuero,,el,,0.4542,,391.9182,391.9185,-0.274739583,-0.32421875,0,0,0,,0,152,152,319,1,suelo,,,,
,,,,,,5f9afa6dffa5e21329cf3f6e,676192165fb32c2e1fb7aee6,67d0b59cd4effcd1d475725b,2025-03-11_15h18.54.762,Tarea de decisión léxica,2024.2.5,Win32,60.24096386,,,,,,,,,,,,,,,,,,,,,,,391.9195,392.9846,a,1,0.3919,1,392.9846,393.4846,,,,,,117,MAS,WORD,AGR,150,palo,,el,,0.3919,,393.4847,393.4847,-0.274739583,-0.32421875,0,0,0,,0,153,153,116,1,movo,,,,
,,,,,,5f9afa6dffa5e21329cf3f6e,676192165fb32c2e1fb7aee6,67d0b59cd4effcd1d475725b,2025-03-11_15h18.54.762,Tarea de decisión léxica,2024.2.5,Win32,60.24096386,,,,,,,,,,,,,,,,,,,,,,,393.4865,394.5679,l,1,0.4107,1,394.568,395.068,,,,,,414,FEM,NOWORD,DIS,150,bieda,,el,,0.4107,,395.068,395.0683,-0.274739583,-0.32421875,0,0,0,,0,154,154,413,1,rueda,,,,
,,,,,,5f9afa6dffa5e21329cf3f6e,676192165fb32c2e1fb7aee6,67d0b59cd4effcd1d475725b,2025-03-11_15h18.54.762,Tarea de decisión léxica,2024.2.5,Win32,60.24096386,,,,,,,,,,,,,,,,,,,,,,,395.0694,396.0681,a,1,0.3273,1,396.0682,396.5684,,,,,,251,MAS,WORD,AGR,150,señor,,el,,0.3273,,396.5694,396.5701,-0.274739583,-0.32421875,0,0,0,,0,155,155,250,1,refor,,,,
,,,,,,5f9afa6dffa5e21329cf3f6e,676192165fb32c2e1fb7aee6,67d0b59cd4effcd1d475725b,2025-03-11_15h18.54.762,Tarea de decisión léxica,2024.2.5,Win32,60.24096386,,,,,,,,,,,,,,,,,,,,,,,396.5708,397.685,l,1,0.4416,1,397.6851,398.1849,,,,,,350,MAS,NOWORD,DIS,150,cosir,,la,,0.4416,,398.185,398.1851,-0.274739583,-0.32421875,0,0,0,,0,156,156,349,1,color,,,,
,,,,,,5f9afa6dffa5e21329cf3f6e,676192165fb32c2e1fb7aee6,67d0b59cd4effcd1d475725b,2025-03-11_15h18.54.762,Tarea de decisión léxica,2024.2.5,Win32,60.24096386,,,,,,,,,,,,,,,,,,,,,,,398.1862,399.3689,l,1,0.5005,1,399.369,399.8689,,,,,,192,FEM,NOWORD,AGR,150,bila,,la,,0.5005,,399.8689,399.869,-0.274739583,-0.32421875,0,0,0,,0,157,157,191,1,pila,,,,
,,,,,,5f9afa6dffa5e21329cf3f6e,676192165fb32c2e1fb7aee6,67d0b59cd4effcd1d475725b,2025-03-11_15h18.54.762,Tarea de decisión léxica,2024.2.5,Win32,60.24096386,,,,,,,,,,,,,,,,,,,,,,,399.8704,401.1022,l,1,0.558,1,401.1024,401.6023,,,,,,456,MAS,NOWORD,AGR,150,riaso,,el,,0.558,,401.6024,401.6024,-0.274739583,-0.32421875,0,0,0,,0,158,158,455,1,reino,,,,
,,,,,,5f9afa6dffa5e21329cf3f6e,676192165fb32c2e1fb7aee6,67d0b59cd4effcd1d475725b,2025-03-11_15h18.54.762,Tarea de decisión léxica,2024.2.5,Win32,60.24096386,,,,,,,,,,,,,,,,,,,,,,,401.6038,402.8352,a,1,0.5489,1,402.8353,403.3357,,,,,,217,MAS,WORD,AGR,150,luto,,el,,0.5489,,403.3358,403.336,-0.274739583,-0.32421875,0,0,0,,0,159,159,216,1,budo,,,,
,,,,,,5f9afa6dffa5e21329cf3f6e,676192165fb32c2e1fb7aee6,67d0b59cd4effcd1d475725b,2025-03-11_15h18.54.762,Tarea de decisión léxica,2024.2.5,Win32,60.24096386,,,,,,,,,,,,,,,,,,,,,,,403.3375,404.3523,a,1,0.336,1,404.3524,404.8524,,,,,,221,FEM,WORD,DIS,150,mula,,el,,0.336,,404.8534,410.0531,-0.274739583,-0.32421875,0,0,0,space,0,160,160,220,1,puca,5.1756,,,
,,,,,,5f9afa6dffa5e21329cf3f6e,676192165fb32c2e1fb7aee6,67d0b59cd4effcd1d475725b,2025-03-11_15h18.54.762,Tarea de decisión léxica,2024.2.5,Win32,60.24096386,,,,,,,,,,,,,,,,,,,,,,,410.0545,411.2196,l,1,0.4945,1,411.2198,411.72,,,,,,368,MAS,NOWORD,AGR,150,rerob,,el,,0.4945,,411.7201,411.7202,-0.274739583,-0.32421875,0,0,0,,0,161,161,367,1,reloj,,,,
,,,,,,5f9afa6dffa5e21329cf3f6e,676192165fb32c2e1fb7aee6,67d0b59cd4effcd1d475725b,2025-03-11_15h18.54.762,Tarea de decisión léxica,2024.2.5,Win32,60.24096386,,,,,,,,,,,,,,,,,,,,,,,411.7209,413.07,l,1,0.6751,1,413.0701,413.5699,,,,,,440,FEM,NOWORD,AGR,150,prema,,la,,0.6751,,413.57,413.5701,-0.274739583,-0.32421875,0,0,0,,0,162,162,439,1,presa,,,,
,,,,,,5f9afa6dffa5e21329cf3f6e,676192165fb32c2e1fb7aee6,67d0b59cd4effcd1d475725b,2025-03-11_15h18.54.762,Tarea de decisión léxica,2024.2.5,Win32,60.24096386,,,,,,,,,,,,,,,,,,,,,,,413.5713,414.6032,a,1,0.3552,1,414.6033,415.1037,,,,,,153,MAS,WORD,DIS,150,pato,,la,,0.3552,,415.1037,415.1038,-0.274739583,-0.32421875,0,0,0,,0,163,163,152,1,tado,,,,
,,,,,,5f9afa6dffa5e21329cf3f6e,676192165fb32c2e1fb7aee6,67d0b59cd4effcd1d475725b,2025-03-11_15h18.54.762,Tarea de decisión léxica,2024.2.5,Win32,60.24096386,,,,,,,,,,,,,,,,,,,,,,,415.1052,416.2869,a,1,0.5043,1,416.2871,416.7873,,,,,,213,FEM,WORD,AGR,150,rama,,la,,0.5043,,416.7876,416.7878,-0.274739583,-0.32421875,0,0,0,,0,164,164,212,1,bana,,,,
,,,,,,5f9afa6dffa5e21329cf3f6e,676192165fb32c2e1fb7aee6,67d0b59cd4effcd1d475725b,2025-03-11_15h18.54.762,Tarea de decisión léxica,2024.2.5,Win32,60.24096386,,,,,,,,,,,,,,,,,,,,,,,416.7892,417.9372,a,0,0.4739,0,417.9385,418.4373,,,,,,64,FEM,NOWORD,AGR,150,funa,,la,,0.4739,,418.4387,418.4398,-0.274739583,-0.32421875,0,0,0,,0,165,165,63,1,luna,,,,
,,,,,,5f9afa6dffa5e21329cf3f6e,676192165fb32c2e1fb7aee6,67d0b59cd4effcd1d475725b,2025-03-11_15h18.54.762,Tarea de decisión léxica,2024.2.5,Win32,60.24096386,,,,,,,,,,,,,,,,,,,,,,,418.4406,419.4707,a,1,0.3515,1,419.4719,419.9704,,,,,,119,MAS,WORD,DIS,150,pozo,,la,,0.3515,,419.9706,419.9707,-0.274739583,-0.32421875,0,0,0,,0,166,166,118,1,hooy,,,,
,,,,,,5f9afa6dffa5e21329cf3f6e,676192165fb32c2e1fb7aee6,67d0b59cd4effcd1d475725b,2025-03-11_15h18.54.762,Tarea de decisión léxica,2024.2.5,Win32,60.24096386,,,,,,,,,,,,,,,,,,,,,,,419.9718,421.1208,a,1,0.4687,1,421.1209,421.6212,,,,,,173,FEM,WORD,DIS,150,rosa,,el,,0.4687,,421.6213,421.6215,-0.274739583,-0.32421875,0,0,0,,0,167,167,172,1,boma,,,,
,,,,,,5f9afa6dffa5e21329cf3f6e,676192165fb32c2e1fb7aee6,67d0b59cd4effcd1d475725b,2025-03-11_15h18.54.762,Tarea de decisión léxica,2024.2.5,Win32,60.24096386,,,,,,,,,,,,,,,,,,,,,,,421.6228,422.5879,a,1,0.2907,1,422.588,423.0879,,,,,,321,MAS,WORD,DIS,150,banco,,la,,0.2907,,423.0881,423.0883,-0.274739583,-0.32421875,0,0,0,,0,168,168,320,1,rarco,,,,
,,,,,,5f9afa6dffa5e21329cf3f6e,676192165fb32c2e1fb7aee6,67d0b59cd4effcd1d475725b,2025-03-11_15h18.54.762,Tarea de decisión léxica,2024.2.5,Win32,60.24096386,,,,,,,,,,,,,,,,,,,,,,,423.0896,424.4049,l,0,0.6342,0,424.4057,424.9044,,,,,,37,MAS,WORD,AGR,150,rato,,el,,0.6342,,424.9045,424.9046,-0.274739583,-0.32421875,0,0,0,,0,169,169,36,1,gaco,,,,
,,,,,,5f9afa6dffa5e21329cf3f6e,676192165fb32c2e1fb7aee6,67d0b59cd4effcd1d475725b,2025-03-11_15h18.54.762,Tarea de decisión léxica,2024.2.5,Win32,60.24096386,,,,,,,,,,,,,,,,,,,,,,,424.9055,426.0882,l,1,0.5107,1,426.089,426.5882,,,,,,140,MAS,NOWORD,AGR,150,nila,,el,,0.5107,,426.5896,426.5905,-0.274739583,-0.32421875,0,0,0,,0,170,170,139,1,mago,,,,
,,,,,,5f9afa6dffa5e21329cf3f6e,676192165fb32c2e1fb7aee6,67d0b59cd4effcd1d475725b,2025-03-11_15h18.54.762,Tarea de decisión léxica,2024.2.5,Win32,60.24096386,,,,,,,,,,,,,,,,,,,,,,,426.5913,427.6381,a,1,0.3744,1,427.6383,428.1384,,,,,,279,FEM,WORD,AGR,150,prisa,,la,,0.3744,,428.1384,428.1385,-0.274739583,-0.32421875,0,0,0,,0,171,171,278,1,grina,,,,
,,,,,,5f9afa6dffa5e21329cf3f6e,676192165fb32c2e1fb7aee6,67d0b59cd4effcd1d475725b,2025-03-11_15h18.54.762,Tarea de decisión léxica,2024.2.5,Win32,60.24096386,,,,,,,,,,,,,,,,,,,,,,,428.1393,429.1746,a,1,0.365,1,429.1747,429.6718,,,,,,109,MAS,WORD,AGR,150,rayo,,el,,0.365,,429.6718,429.672,-0.274739583,-0.32421875,0,0,0,,0,172,172,108,1,suno,,,,
,,,,,,5f9afa6dffa5e21329cf3f6e,676192165fb32c2e1fb7aee6,67d0b59cd4effcd1d475725b,2025-03-11_15h18.54.762,Tarea de decisión léxica,2024.2.5,Win32,60.24096386,,,,,,,,,,,,,,,,,,,,,,,429.6734,430.7218,a,1,0.367,1,430.722,431.2221,,,,,,381,MAS,WORD,DIS,150,humor,,la,,0.367,,431.2221,431.2223,-0.274739583,-0.32421875,0,0,0,,0,173,173,380,1,nusor,,,,
,,,,,,5f9afa6dffa5e21329cf3f6e,676192165fb32c2e1fb7aee6,67d0b59cd4effcd1d475725b,2025-03-11_15h18.54.762,Tarea de decisión léxica,2024.2.5,Win32,60.24096386,,,,,,,,,,,,,,,,,,,,,,,431.2233,432.1723,a,1,0.2712,1,432.1724,432.6723,,,,,,205,FEM,WORD,AGR,150,rana,,la,,0.2712,,432.6724,432.6725,-0.274739583,-0.32421875,0,0,0,,0,174,174,204,1,bara,,,,
,,,,,,5f9afa6dffa5e21329cf3f6e,676192165fb32c2e1fb7aee6,67d0b59cd4effcd1d475725b,2025-03-11_15h18.54.762,Tarea de decisión léxica,2024.2.5,Win32,60.24096386,,,,,,,,,,,,,,,,,,,,,,,432.6735,433.7389,a,1,0.3841,1,433.7391,434.2388,,,,,,41,FEM,WORD,AGR,150,nave,,la,,0.3841,,434.24,434.2409,-0.274739583,-0.32421875,0,0,0,,0,175,175,40,1,haje,,,,
,,,,,,5f9afa6dffa5e21329cf3f6e,676192165fb32c2e1fb7aee6,67d0b59cd4effcd1d475725b,2025-03-11_15h18.54.762,Tarea de decisión léxica,2024.2.5,Win32,60.24096386,,,,,,,,,,,,,,,,,,,,,,,434.2417,435.5225,l,1,0.6036,1,435.5226,436.0224,,,,,,2,FEM,NOWORD,DIS,150,mada,,el,,0.6036,,436.0225,436.0226,-0.274739583,-0.32421875,0,0,0,,0,176,176,1,1,casa,,,,
,,,,,,5f9afa6dffa5e21329cf3f6e,676192165fb32c2e1fb7aee6,67d0b59cd4effcd1d475725b,2025-03-11_15h18.54.762,Tarea de decisión léxica,2024.2.5,Win32,60.24096386,,,,,,,,,,,,,,,,,,,,,,,436.0238,437.1562,l,1,0.4627,1,437.1565,437.6558,,,,,,62,FEM,NOWORD,DIS,150,efla,,el,,0.4627,,437.6559,437.6561,-0.274739583,-0.32421875,0,0,0,,0,177,177,61,1,obra,,,,
,,,,,,5f9afa6dffa5e21329cf3f6e,676192165fb32c2e1fb7aee6,67d0b59cd4effcd1d475725b,2025-03-11_15h18.54.762,Tarea de decisión léxica,2024.2.5,Win32,60.24096386,,,,,,,,,,,,,,,,,,,,,,,437.6569,438.8389,l,1,0.5098,1,438.839,439.3391,,,,,,134,FEM,NOWORD,DIS,150,vesa,,el,,0.5098,,439.3391,439.3391,-0.274739583,-0.32421875,0,0,0,,0,178,178,133,1,vaca,,,,
,,,,,,5f9afa6dffa5e21329cf3f6e,676192165fb32c2e1fb7aee6,67d0b59cd4effcd1d475725b,2025-03-11_15h18.54.762,Tarea de decisión léxica,2024.2.5,Win32,60.24096386,,,,,,,,,,,,,,,,,,,,,,,439.3403,440.7394,a,0,0.7268,0,440.7404,441.2393,,,,,,28,MAS,NOWORD,AGR,150,ravo,,el,,0.7268,,441.2406,441.2413,-0.274739583,-0.32421875,0,0,0,,0,179,179,27,1,baño,,,,
,,,,,,5f9afa6dffa5e21329cf3f6e,676192165fb32c2e1fb7aee6,67d0b59cd4effcd1d475725b,2025-03-11_15h18.54.762,Tarea de decisión léxica,2024.2.5,Win32,60.24096386,,,,,,,,,,,,,,,,,,,,,,,441.242,442.4567,l,1,0.5396,1,442.4574,442.9565,,,,,,74,MAS,NOWORD,DIS,150,omio,,la,,0.5396,,442.9565,442.9567,-0.274739583,-0.32421875,0,0,0,,0,180,180,73,1,odio,,,,
,,,,,,5f9afa6dffa5e21329cf3f6e,676192165fb32c2e1fb7aee6,67d0b59cd4effcd1d475725b,2025-03-11_15h18.54.762,Tarea de decisión léxica,2024.2.5,Win32,60.24096386,,,,,,,,,,,,,,,,,,,,,,,442.9577,444.0229,a,1,0.4082,1,444.0231,444.5231,,,,,,389,MAS,WORD,AGR,150,cerdo,,el,,0.4082,,444.5232,444.5233,-0.274739583,-0.32421875,0,0,0,,0,181,181,388,1,cenco,,,,
,,,,,,5f9afa6dffa5e21329cf3f6e,676192165fb32c2e1fb7aee6,67d0b59cd4effcd1d475725b,2025-03-11_15h18.54.762,Tarea de decisión léxica,2024.2.5,Win32,60.24096386,,,,,,,,,,,,,,,,,,,,,,,444.5241,445.6073,a,1,0.4128,1,445.6074,446.107,,,,,,155,FEM,WORD,DIS,150,fuga,,el,,0.4128,,446.1071,446.1072,-0.274739583,-0.32421875,0,0,0,,0,182,182,154,1,luma,,,,
,,,,,,5f9afa6dffa5e21329cf3f6e,676192165fb32c2e1fb7aee6,67d0b59cd4effcd1d475725b,2025-03-11_15h18.54.762,Tarea de decisión léxica,2024.2.5,Win32,60.24096386,,,,,,,,,,,,,,,,,,,,,,,446.1079,447.1905,a,1,0.4054,1,447.1906,447.6904,,,,,,479,MAS,WORD,DIS,150,rumbo,,la,,0.4054,,447.6905,447.6906,-0.274739583,-0.32421875,0,0,0,,0,183,183,478,1,rimpo,,,,
,,,,,,5f9afa6dffa5e21329cf3f6e,676192165fb32c2e1fb7aee6,67d0b59cd4effcd1d475725b,2025-03-11_15h18.54.762,Tarea de decisión léxica,2024.2.5,Win32,60.24096386,,,,,,,,,,,,,,,,,,,,,,,447.6919,448.8905,l,1,0.5177,1,448.8906,449.3906,,,,,,52,FEM,NOWORD,AGR,150,mava,,la,,0.5177,,449.392,449.3928,-0.274739583,-0.32421875,0,0,0,,0,184,184,51,1,caja,,,,
,,,,,,5f9afa6dffa5e21329cf3f6e,676192165fb32c2e1fb7aee6,67d0b59cd4effcd1d475725b,2025-03-11_15h18.54.762,Tarea de decisión léxica,2024.2.5,Win32,60.24096386,,,,,,,,,,,,,,,,,,,,,,,449.3936,450.5074,a,1,0.4341,1,450.5075,451.007,,,,,,163,FEM,WORD,AGR,150,fama,,la,,0.4341,,451.0071,451.0072,-0.274739583,-0.32421875,0,0,0,,0,185,185,162,1,laga,,,,
,,,,,,5f9afa6dffa5e21329cf3f6e,676192165fb32c2e1fb7aee6,67d0b59cd4effcd1d475725b,2025-03-11_15h18.54.762,Tarea de decisión léxica,2024.2.5,Win32,60.24096386,,,,,,,,,,,,,,,,,,,,,,,451.0082,452.0077,a,1,0.3282,1,452.0078,452.5076,,,,,,349,MAS,WORD,AGR,150,color,,el,,0.3282,,452.5077,452.5078,-0.274739583,-0.32421875,0,0,0,,0,186,186,348,1,cosir,,,,
,,,,,,5f9afa6dffa5e21329cf3f6e,676192165fb32c2e1fb7aee6,67d0b59cd4effcd1d475725b,2025-03-11_15h18.54.762,Tarea de decisión léxica,2024.2.5,Win32,60.24096386,,,,,,,,,,,,,,,,,,,,,,,452.5088,453.5743,l,1,0.3939,1,453.5745,454.0743,,,,,,120,MAS,NOWORD,AGR,150,hooy,,el,,0.3939,,454.0744,454.0745,-0.274739583,-0.32421875,0,0,0,,0,187,187,119,1,pozo,,,,
,,,,,,5f9afa6dffa5e21329cf3f6e,676192165fb32c2e1fb7aee6,67d0b59cd4effcd1d475725b,2025-03-11_15h18.54.762,Tarea de decisión léxica,2024.2.5,Win32,60.24096386,,,,,,,,,,,,,,,,,,,,,,,454.0758,455.0744,a,1,0.317,1,455.0745,455.5744,,,,,,199,MAS,WORD,DIS,150,lazo,,la,,0.317,,455.5745,455.5746,-0.274739583,-0.32421875,0,0,0,,0,188,188,198,1,fano,,,,
,,,,,,5f9afa6dffa5e21329cf3f6e,676192165fb32c2e1fb7aee6,67d0b59cd4effcd1d475725b,2025-03-11_15h18.54.762,Tarea de decisión léxica,2024.2.5,Win32,60.24096386,,,,,,,,,,,,,,,,,,,,,,,455.5756,456.6246,a,1,0.3681,1,456.6248,457.125,,,,,,397,FEM,WORD,AGR,150,tribu,,la,,0.3681,,457.1263,457.127,-0.274739583,-0.32421875,0,0,0,,0,189,189,396,1,trigi,,,,
,,,,,,5f9afa6dffa5e21329cf3f6e,676192165fb32c2e1fb7aee6,67d0b59cd4effcd1d475725b,2025-03-11_15h18.54.762,Tarea de decisión léxica,2024.2.5,Win32,60.24096386,,,,,,,,,,,,,,,,,,,,,,,457.1277,458.0915,a,1,0.2882,1,458.0917,458.5919,,,,,,309,FEM,WORD,AGR,150,silla,,la,,0.2882,,458.592,458.592,-0.274739583,-0.32421875,0,0,0,,0,190,190,308,1,tirra,,,,
,,,,,,5f9afa6dffa5e21329cf3f6e,676192165fb32c2e1fb7aee6,67d0b59cd4effcd1d475725b,2025-03-11_15h18.54.762,Tarea de decisión léxica,2024.2.5,Win32,60.24096386,,,,,,,,,,,,,,,,,,,,,,,458.5933,459.5749,a,1,0.3028,1,459.5751,460.0749,,,,,,283,MAS,WORD,AGR,150,sueño,,el,,0.3028,,460.075,460.0752,-0.274739583,-0.32421875,0,0,0,,0,191,191,282,1,tuevo,,,,
,,,,,,5f9afa6dffa5e21329cf3f6e,676192165fb32c2e1fb7aee6,67d0b59cd4effcd1d475725b,2025-03-11_15h18.54.762,Tarea de decisión léxica,2024.2.5,Win32,60.24096386,,,,,,,,,,,,,,,,,,,,,,,460.0761,461.0584,a,1,0.3024,1,461.0585,461.5584,,,,,,99,MAS,WORD,DIS,150,lobo,,la,,0.3024,,461.5584,461.5586,-0.274739583,-0.32421875,0,0,0,,0,192,192,98,1,soro,,,,
,,,,,,5f9afa6dffa5e21329cf3f6e,676192165fb32c2e1fb7aee6,67d0b59cd4effcd1d475725b,2025-03-11_15h18.54.762,Tarea de decisión léxica,2024.2.5,Win32,60.24096386,,,,,,,,,,,,,,,,,,,,,,,461.5598,462.6254,l,1,0.3957,1,462.6256,463.1252,,,,,,70,FEM,NOWORD,DIS,150,ñola,,el,,0.3957,,463.1254,463.1254,-0.274739583,-0.32421875,0,0,0,,0,193,193,69,1,zona,,,,
,,,,,,5f9afa6dffa5e21329cf3f6e,676192165fb32c2e1fb7aee6,67d0b59cd4effcd1d475725b,2025-03-11_15h18.54.762,Tarea de decisión léxica,2024.2.5,Win32,60.24096386,,,,,,,,,,,,,,,,,,,,,,,463.1266,464.3422,l,1,0.5342,1,464.3423,464.842,,,,,,78,MAS,NOWORD,DIS,150,fodo,,la,,0.5342,,464.8431,464.8436,-0.274739583,-0.32421875,0,0,0,,0,194,194,77,1,loco,,,,
,,,,,,5f9afa6dffa5e21329cf3f6e,676192165fb32c2e1fb7aee6,67d0b59cd4effcd1d475725b,2025-03-11_15h18.54.762,Tarea de decisión léxica,2024.2.5,Win32,60.24096386,,,,,,,,,,,,,,,,,,,,,,,464.844,465.9423,l,1,0.4171,1,465.9424,466.4423,,,,,,76,MAS,NOWORD,AGR,150,ocer,,el,,0.4171,,466.4425,466.4426,-0.274739583,-0.32421875,0,0,0,,0,195,195,75,1,olor,,,,
,,,,,,5f9afa6dffa5e21329cf3f6e,676192165fb32c2e1fb7aee6,67d0b59cd4effcd1d475725b,2025-03-11_15h18.54.762,Tarea de decisión léxica,2024.2.5,Win32,60.24096386,,,,,,,,,,,,,,,,,,,,,,,466.4437,467.4924,a,1,0.367,1,467.4925,467.9926,,,,,,345,FEM,WORD,AGR,150,arena,,la,,0.367,,467.9927,467.9927,-0.274739583,-0.32421875,0,0,0,,0,196,196,344,1,anera,,,,
,,,,,,5f9afa6dffa5e21329cf3f6e,676192165fb32c2e1fb7aee6,67d0b59cd4effcd1d475725b,2025-03-11_15h18.54.762,Tarea de decisión léxica,2024.2.5,Win32,60.24096386,,,,,,,,,,,,,,,,,,,,,,,467.9935,469.0758,a,1,0.411,1,469.0759,469.5759,,,,,,363,FEM,WORD,AGR,150,deuda,,la,,0.411,,469.5761,469.5764,-0.274739583,-0.32421875,0,0,0,,0,197,197,362,1,veida,,,,
,,,,,,5f9afa6dffa5e21329cf3f6e,676192165fb32c2e1fb7aee6,67d0b59cd4effcd1d475725b,2025-03-11_15h18.54.762,Tarea de decisión léxica,2024.2.5,Win32,60.24096386,,,,,,,,,,,,,,,,,,,,,,,469.5775,470.5427,a,1,0.285,1,470.5428,471.0426,,,,,,409,MAS,WORD,AGR,150,carro,,el,,0.285,,471.0426,471.0428,-0.274739583,-0.32421875,0,0,0,,0,198,198,408,1,pafro,,,,
,,,,,,5f9afa6dffa5e21329cf3f6e,676192165fb32c2e1fb7aee6,67d0b59cd4effcd1d475725b,2025-03-11_15h18.54.762,Tarea de decisión léxica,2024.2.5,Win32,60.24096386,,,,,,,,,,,,,,,,,,,,,,,471.0439,471.9761,a,0,0.2678,0,471.9769,472.4762,,,,,,214,FEM,NOWORD,DIS,150,bana,,el,,0.2678,,472.4772,472.4779,-0.274739583,-0.32421875,0,0,0,,0,199,199,213,1,rama,,,,
,,,,,,5f9afa6dffa5e21329cf3f6e,676192165fb32c2e1fb7aee6,67d0b59cd4effcd1d475725b,2025-03-11_15h18.54.762,Tarea de decisión léxica,2024.2.5,Win32,60.24096386,,,,,,,,,,,,,,,,,,,,,,,472.4786,473.7265,l,1,0.5675,1,473.7271,474.2265,,,,,,330,MAS,NOWORD,DIS,150,nueno,,la,,0.5675,,474.2266,474.2267,-0.274739583,-0.32421875,0,0,0,,0,200,200,329,1,hueso,,,,
,,,,,,5f9afa6dffa5e21329cf3f6e,676192165fb32c2e1fb7aee6,67d0b59cd4effcd1d475725b,2025-03-11_15h18.54.762,Tarea de decisión léxica,2024.2.5,Win32,60.24096386,,,,,,,,,,,,,,,,,,,,,,,474.2277,475.2932,a,1,0.3863,1,475.2934,475.7932,,,,,,277,MAS,WORD,AGR,150,fuego,,el,,0.3863,,475.7933,475.7934,-0.274739583,-0.32421875,0,0,0,,0,201,201,276,1,vuemo,,,,
,,,,,,5f9afa6dffa5e21329cf3f6e,676192165fb32c2e1fb7aee6,67d0b59cd4effcd1d475725b,2025-03-11_15h18.54.762,Tarea de decisión léxica,2024.2.5,Win32,60.24096386,,,,,,,,,,,,,,,,,,,,,,,475.7951,476.7435,a,1,0.2674,1,476.7436,477.2433,,,,,,359,MAS,WORD,AGR,150,calor,,el,,0.2674,,477.2434,477.2435,-0.274739583,-0.32421875,0,0,0,,0,202,202,358,1,cacer,,,,
,,,,,,5f9afa6dffa5e21329cf3f6e,676192165fb32c2e1fb7aee6,67d0b59cd4effcd1d475725b,2025-03-11_15h18.54.762,Tarea de decisión léxica,2024.2.5,Win32,60.24096386,,,,,,,,,,,,,,,,,,,,,,,477.2443,478.3766,l,1,0.4576,1,478.3768,478.8769,,,,,,204,FEM,NOWORD,AGR,150,beja,,la,,0.4576,,478.8777,478.878,-0.274739583,-0.32421875,0,0,0,,0,203,203,203,1,leña,,,,
,,,,,,5f9afa6dffa5e21329cf3f6e,676192165fb32c2e1fb7aee6,67d0b59cd4effcd1d475725b,2025-03-11_15h18.54.762,Tarea de decisión léxica,2024.2.5,Win32,60.24096386,,,,,,,,,,,,,,,,,,,,,,,478.8784,480.2771,l,1,0.7243,1,480.2773,480.777,,,,,,182,FEM,NOWORD,DIS,150,teda,,el,,0.7243,,480.7771,480.7773,-0.274739583,-0.32421875,0,0,0,,0,204,204,181,1,seda,,,,
,,,,,,5f9afa6dffa5e21329cf3f6e,676192165fb32c2e1fb7aee6,67d0b59cd4effcd1d475725b,2025-03-11_15h18.54.762,Tarea de decisión léxica,2024.2.5,Win32,60.24096386,,,,,,,,,,,,,,,,,,,,,,,480.7785,481.8269,a,1,0.3738,1,481.827,482.3273,,,,,,401,MAS,WORD,DIS,150,polvo,,la,,0.3738,,482.3274,482.3274,-0.274739583,-0.32421875,0,0,0,,0,205,205,400,1,pirvo,,,,
,,,,,,5f9afa6dffa5e21329cf3f6e,676192165fb32c2e1fb7aee6,67d0b59cd4effcd1d475725b,2025-03-11_15h18.54.762,Tarea de decisión léxica,2024.2.5,Win32,60.24096386,,,,,,,,,,,,,,,,,,,,,,,482.3285,483.5107,l,1,0.4997,1,483.5109,484.0108,,,,,,176,FEM,NOWORD,AGR,150,hosa,,la,,0.4997,,484.0109,484.011,-0.274739583,-0.32421875,0,0,0,,0,206,206,175,1,goma,,,,
,,,,,,5f9afa6dffa5e21329cf3f6e,676192165fb32c2e1fb7aee6,67d0b59cd4effcd1d475725b,2025-03-11_15h18.54.762,Tarea de decisión léxica,2024.2.5,Win32,60.24096386,,,,,,,,,,,,,,,,,,,,,,,484.0118,485.3109,l,1,0.6194,1,485.311,485.8111,,,,,,54,FEM,NOWORD,DIS,150,rora,,el,,0.6194,,485.8111,485.8113,-0.274739583,-0.32421875,0,0,0,,0,207,207,53,1,boda,,,,
,,,,,,5f9afa6dffa5e21329cf3f6e,676192165fb32c2e1fb7aee6,67d0b59cd4effcd1d475725b,2025-03-11_15h18.54.762,Tarea de decisión léxica,2024.2.5,Win32,60.24096386,,,,,,,,,,,,,,,,,,,,,,,485.8122,486.8438,a,1,0.3609,1,486.844,487.3442,,,,,,455,MAS,WORD,DIS,150,reino,,la,,0.3609,,487.3454,487.3462,-0.274739583,-0.32421875,0,0,0,,0,208,208,454,1,riaso,,,,
,,,,,,5f9afa6dffa5e21329cf3f6e,676192165fb32c2e1fb7aee6,67d0b59cd4effcd1d475725b,2025-03-11_15h18.54.762,Tarea de decisión léxica,2024.2.5,Win32,60.24096386,,,,,,,,,,,,,,,,,,,,,,,487.3468,488.3277,a,1,0.306,1,488.3278,488.8281,,,,,,215,FEM,WORD,DIS,150,raíz,,el,,0.306,,488.8281,488.8283,-0.274739583,-0.32421875,0,0,0,,0,209,209,214,1,raua,,,,
,,,,,,5f9afa6dffa5e21329cf3f6e,676192165fb32c2e1fb7aee6,67d0b59cd4effcd1d475725b,2025-03-11_15h18.54.762,Tarea de decisión léxica,2024.2.5,Win32,60.24096386,,,,,,,,,,,,,,,,,,,,,,,488.8293,489.8113,a,1,0.31,1,489.8114,490.3113,,,,,,59,FEM,WORD,AGR,150,sala,,la,,0.31,,490.3114,490.3115,-0.274739583,-0.32421875,0,0,0,,0,210,210,58,1,tafa,,,,
,,,,,,5f9afa6dffa5e21329cf3f6e,676192165fb32c2e1fb7aee6,67d0b59cd4effcd1d475725b,2025-03-11_15h18.54.762,Tarea de decisión léxica,2024.2.5,Win32,60.24096386,,,,,,,,,,,,,,,,,,,,,,,490.3129,491.345,a,1,0.3508,1,491.3452,491.8451,,,,,,301,FEM,WORD,DIS,150,banda,,el,,0.3508,,491.8453,491.8455,-0.274739583,-0.32421875,0,0,0,,0,211,211,300,1,ranga,,,,
,,,,,,5f9afa6dffa5e21329cf3f6e,676192165fb32c2e1fb7aee6,67d0b59cd4effcd1d475725b,2025-03-11_15h18.54.762,Tarea de decisión léxica,2024.2.5,Win32,60.24096386,,,,,,,,,,,,,,,,,,,,,,,491.8467,492.8115,a,1,0.2931,1,492.8116,493.3118,,,,,,357,FEM,WORD,AGR,150,bruja,,la,,0.2931,,493.3118,493.312,-0.274739583,-0.32421875,0,0,0,,0,212,212,356,1,gruba,,,,
,,,,,,5f9afa6dffa5e21329cf3f6e,676192165fb32c2e1fb7aee6,67d0b59cd4effcd1d475725b,2025-03-11_15h18.54.762,Tarea de decisión léxica,2024.2.5,Win32,60.24096386,,,,,,,,,,,,,,,,,,,,,,,493.3133,494.445,l,1,0.4533,1,494.4451,494.9457,,,,,,308,MAS,NOWORD,AGR,150,holol,,el,,0.4533,,494.947,494.9479,-0.274739583,-0.32421875,0,0,0,,0,213,213,307,1,hotel,,,,
,,,,,,5f9afa6dffa5e21329cf3f6e,676192165fb32c2e1fb7aee6,67d0b59cd4effcd1d475725b,2025-03-11_15h18.54.762,Tarea de decisión léxica,2024.2.5,Win32,60.24096386,,,,,,,,,,,,,,,,,,,,,,,494.9489,496.0784,a,0,0.4619,0,496.0796,496.5786,,,,,,462,FEM,NOWORD,DIS,150,pagra,,el,,0.4619,,496.5787,496.5788,-0.274739583,-0.32421875,0,0,0,,0,214,214,461,1,tabla,,,,
,,,,,,5f9afa6dffa5e21329cf3f6e,676192165fb32c2e1fb7aee6,67d0b59cd4effcd1d475725b,2025-03-11_15h18.54.762,Tarea de decisión léxica,2024.2.5,Win32,60.24096386,,,,,,,,,,,,,,,,,,,,,,,496.58,497.6121,a,1,0.3556,1,497.6132,498.1122,,,,,,463,FEM,WORD,DIS,150,cabra,,el,,0.3556,,498.1124,498.1124,-0.274739583,-0.32421875,0,0,0,,0,215,215,462,1,matla,,,,
,,,,,,5f9afa6dffa5e21329cf3f6e,676192165fb32c2e1fb7aee6,67d0b59cd4effcd1d475725b,2025-03-11_15h18.54.762,Tarea de decisión léxica,2024.2.5,Win32,60.24096386,,,,,,,,,,,,,,,,,,,,,,,498.1136,499.0956,a,0,0.3009,0,499.0963,499.5955,,,,,,386,FEM,NOWORD,DIS,150,febra,,el,,0.3009,,499.5956,499.5957,-0.274739583,-0.32421875,0,0,0,,0,216,216,385,1,letra,,,,
,,,,,,5f9afa6dffa5e21329cf3f6e,676192165fb32c2e1fb7aee6,67d0b59cd4effcd1d475725b,2025-03-11_15h18.54.762,Tarea de decisión léxica,2024.2.5,Win32,60.24096386,,,,,,,,,,,,,,,,,,,,,,,499.5969,500.979,l,1,0.7072,1,500.9798,501.4793,,,,,,154,MAS,NOWORD,DIS,150,tado,,la,,0.7072,,501.4793,501.4794,-0.274739583,-0.32421875,0,0,0,,0,217,217,153,1,pato,,,,
,,,,,,5f9afa6dffa5e21329cf3f6e,676192165fb32c2e1fb7aee6,67d0b59cd4effcd1d475725b,2025-03-11_15h18.54.762,Tarea de decisión léxica,2024.2.5,Win32,60.24096386,,,,,,,,,,,,,,,,,,,,,,,501.4805,502.5627,a,1,0.4107,1,502.5628,503.0628,,,,,,45,FEM,WORD,AGR,150,mesa,,la,,0.4107,,503.0638,503.0645,-0.274739583,-0.32421875,0,0,0,,0,218,218,44,1,pema,,,,
,,,,,,5f9afa6dffa5e21329cf3f6e,676192165fb32c2e1fb7aee6,67d0b59cd4effcd1d475725b,2025-03-11_15h18.54.762,Tarea de decisión léxica,2024.2.5,Win32,60.24096386,,,,,,,,,,,,,,,,,,,,,,,503.0651,504.1296,a,1,0.3867,1,504.1298,504.6299,,,,,,431,MAS,WORD,DIS,150,motor,,la,,0.3867,,504.63,504.6301,-0.274739583,-0.32421875,0,0,0,,0,219,219,430,1,tetor,,,,
,,,,,,5f9afa6dffa5e21329cf3f6e,676192165fb32c2e1fb7aee6,67d0b59cd4effcd1d475725b,2025-03-11_15h18.54.762,Tarea de decisión léxica,2024.2.5,Win32,60.24096386,,,,,,,,,,,,,,,,,,,,,,,504.6314,505.7295,l,1,0.4218,1,505.7297,506.2298,,,,,,56,MAS,NOWORD,AGR,150,jado,,el,,0.4218,,506.2298,506.23,-0.274739583,-0.32421875,0,0,0,,0,220,220,55,1,gato,,,,
,,,,,,5f9afa6dffa5e21329cf3f6e,676192165fb32c2e1fb7aee6,67d0b59cd4effcd1d475725b,2025-03-11_15h18.54.762,Tarea de decisión léxica,2024.2.5,Win32,60.24096386,,,,,,,,,,,,,,,,,,,,,,,506.2309,507.4964,a,1,0.5944,1,507.4965,508.0003,,,,,,159,MAS,WORD,DIS,150,giro,,la,,0.5944,,508.0003,508.0004,-0.274739583,-0.32421875,0,0,0,,0,221,221,158,1,bilo,,,,
,,,,,,5f9afa6dffa5e21329cf3f6e,676192165fb32c2e1fb7aee6,67d0b59cd4effcd1d475725b,2025-03-11_15h18.54.762,Tarea de decisión léxica,2024.2.5,Win32,60.24096386,,,,,,,,,,,,,,,,,,,,,,,508.0014,509.0133,a,1,0.3333,1,509.0135,509.5132,,,,,,29,MAS,WORD,AGR,150,modo,,el,,0.3333,,509.5133,509.5134,-0.274739583,-0.32421875,0,0,0,,0,222,222,28,1,pono,,,,
,,,,,,5f9afa6dffa5e21329cf3f6e,676192165fb32c2e1fb7aee6,67d0b59cd4effcd1d475725b,2025-03-11_15h18.54.762,Tarea de decisión léxica,2024.2.5,Win32,60.24096386,,,,,,,,,,,,,,,,,,,,,,,509.5143,510.5801,a,0,0.3836,0,510.5808,511.0802,,,,,,310,FEM,NOWORD,DIS,150,tirra,,el,,0.3836,,511.081,511.0816,-0.274739583,-0.32421875,0,0,0,,0,223,223,309,1,silla,,,,
,,,,,,5f9afa6dffa5e21329cf3f6e,676192165fb32c2e1fb7aee6,67d0b59cd4effcd1d475725b,2025-03-11_15h18.54.762,Tarea de decisión léxica,2024.2.5,Win32,60.24096386,,,,,,,,,,,,,,,,,,,,,,,511.0822,512.1803,a,1,0.4239,1,512.1812,512.6804,,,,,,97,MAS,WORD,AGR,150,mono,,el,,0.4239,,512.6805,512.6806,-0.274739583,-0.32421875,0,0,0,,0,224,224,96,1,fopo,,,,
,,,,,,5f9afa6dffa5e21329cf3f6e,676192165fb32c2e1fb7aee6,67d0b59cd4effcd1d475725b,2025-03-11_15h18.54.762,Tarea de decisión léxica,2024.2.5,Win32,60.24096386,,,,,,,,,,,,,,,,,,,,,,,512.6818,513.8304,a,1,0.4717,1,513.8306,514.3304,,,,,,261,MAS,WORD,AGR,150,sitio,,el,,0.4717,,514.3305,514.3305,-0.274739583,-0.32421875,0,0,0,,0,225,225,260,1,titio,,,,
,,,,,,5f9afa6dffa5e21329cf3f6e,676192165fb32c2e1fb7aee6,67d0b59cd4effcd1d475725b,2025-03-11_15h18.54.762,Tarea de decisión léxica,2024.2.5,Win32,60.24096386,,,,,,,,,,,,,,,,,,,,,,,514.3313,515.4134,l,1,0.4107,1,515.4134,515.9144,,,,,,72,FEM,NOWORD,AGR,150,urla,,la,,0.4107,,515.9145,515.9148,-0.274739583,-0.32421875,0,0,0,,0,226,226,71,1,isla,,,,
,,,,,,5f9afa6dffa5e21329cf3f6e,676192165fb32c2e1fb7aee6,67d0b59cd4effcd1d475725b,2025-03-11_15h18.54.762,Tarea de decisión léxica,2024.2.5,Win32,60.24096386,,,,,,,,,,,,,,,,,,,,,,,515.9161,517.2141,l,0,0.6269,0,517.2147,517.714,,,,,,353,FEM,WORD,AGR,150,celda,,la,,0.6269,,517.715,517.7156,-0.274739583,-0.32421875,0,0,0,,0,227,227,352,1,cezca,,,,
,,,,,,5f9afa6dffa5e21329cf3f6e,676192165fb32c2e1fb7aee6,67d0b59cd4effcd1d475725b,2025-03-11_15h18.54.762,Tarea de decisión léxica,2024.2.5,Win32,60.24096386,,,,,,,,,,,,,,,,,,,,,,,517.7162,518.8311,a,1,0.4394,1,518.832,519.3311,,,,,,263,FEM,WORD,AGR,150,vista,,la,,0.4394,,519.3313,519.3313,-0.274739583,-0.32421875,0,0,0,,0,228,228,262,1,dosta,,,,
,,,,,,5f9afa6dffa5e21329cf3f6e,676192165fb32c2e1fb7aee6,67d0b59cd4effcd1d475725b,2025-03-11_15h18.54.762,Tarea de decisión léxica,2024.2.5,Win32,60.24096386,,,,,,,,,,,,,,,,,,,,,,,519.3324,520.5142,a,1,0.5118,1,520.5144,521.0147,,,,,,11,MAS,WORD,AGR,150,lado,,el,,0.5118,,521.0148,521.0149,-0.274739583,-0.32421875,0,0,0,,0,229,229,10,1,bapo,,,,
,,,,,,5f9afa6dffa5e21329cf3f6e,676192165fb32c2e1fb7aee6,67d0b59cd4effcd1d475725b,2025-03-11_15h18.54.762,Tarea de decisión léxica,2024.2.5,Win32,60.24096386,,,,,,,,,,,,,,,,,,,,,,,521.0161,522.2313,a,0,0.5446,0,522.2322,522.7314,,,,,,144,MAS,NOWORD,AGR,150,pezo,,el,,0.5446,,522.7315,522.7316,-0.274739583,-0.32421875,0,0,0,,0,230,230,143,1,pavo,,,,
,,,,,,5f9afa6dffa5e21329cf3f6e,676192165fb32c2e1fb7aee6,67d0b59cd4effcd1d475725b,2025-03-11_15h18.54.762,Tarea de decisión léxica,2024.2.5,Win32,60.24096386,,,,,,,,,,,,,,,,,,,,,,,522.7328,523.9848,l,1,0.5824,1,523.9856,524.4816,,,,,,342,MAS,NOWORD,DIS,150,daror,,la,,0.5824,,524.4816,524.4817,-0.274739583,-0.32421875,0,0,0,,0,231,231,341,1,valor,,,,
,,,,,,5f9afa6dffa5e21329cf3f6e,676192165fb32c2e1fb7aee6,67d0b59cd4effcd1d475725b,2025-03-11_15h18.54.762,Tarea de decisión léxica,2024.2.5,Win32,60.24096386,,,,,,,,,,,,,,,,,,,,,,,524.4825,525.5817,a,1,0.4192,1,525.5818,526.0819,,,,,,329,MAS,WORD,DIS,150,hueso,,la,,0.4192,,526.0831,526.0839,-0.274739583,-0.32421875,0,0,0,,0,232,232,328,1,nueno,,,,
,,,,,,5f9afa6dffa5e21329cf3f6e,676192165fb32c2e1fb7aee6,67d0b59cd4effcd1d475725b,2025-03-11_15h18.54.762,Tarea de decisión léxica,2024.2.5,Win32,60.24096386,,,,,,,,,,,,,,,,,,,,,,,526.0847,527.232,l,1,0.4746,1,527.2321,527.7322,,,,,,306,MAS,NOWORD,DIS,150,adiol,,la,,0.4746,,527.7323,527.7324,-0.274739583,-0.32421875,0,0,0,,0,233,233,305,1,avión,,,,
,,,,,,5f9afa6dffa5e21329cf3f6e,676192165fb32c2e1fb7aee6,67d0b59cd4effcd1d475725b,2025-03-11_15h18.54.762,Tarea de decisión léxica,2024.2.5,Win32,60.24096386,,,,,,,,,,,,,,,,,,,,,,,527.734,529.0654,a,1,0.6602,1,529.0655,529.5654,,,,,,191,FEM,WORD,DIS,150,pila,,el,,0.6602,,529.5656,529.5656,-0.274739583,-0.32421875,0,0,0,,0,234,234,190,1,bila,,,,
,,,,,,5f9afa6dffa5e21329cf3f6e,676192165fb32c2e1fb7aee6,67d0b59cd4effcd1d475725b,2025-03-11_15h18.54.762,Tarea de decisión léxica,2024.2.5,Win32,60.24096386,,,,,,,,,,,,,,,,,,,,,,,529.5666,530.6657,a,1,0.4214,1,530.6658,531.1657,,,,,,7,MAS,WORD,AGR,150,hijo,,el,,0.4214,,531.1659,531.166,-0.274739583,-0.32421875,0,0,0,,0,235,235,6,1,nivo,,,,
,,,,,,5f9afa6dffa5e21329cf3f6e,676192165fb32c2e1fb7aee6,67d0b59cd4effcd1d475725b,2025-03-11_15h18.54.762,Tarea de decisión léxica,2024.2.5,Win32,60.24096386,,,,,,,,,,,,,,,,,,,,,,,531.167,532.299,l,1,0.4511,1,532.2991,532.7993,,,,,,212,FEM,NOWORD,AGR,150,joad,,la,,0.4511,,532.7994,532.7994,-0.274739583,-0.32421875,0,0,0,,0,236,236,211,1,joya,,,,
,,,,,,5f9afa6dffa5e21329cf3f6e,676192165fb32c2e1fb7aee6,67d0b59cd4effcd1d475725b,2025-03-11_15h18.54.762,Tarea de decisión léxica,2024.2.5,Win32,60.24096386,,,,,,,,,,,,,,,,,,,,,,,532.8007,533.9825,l,1,0.5127,1,533.9827,534.4825,,,,,,146,MAS,NOWORD,DIS,150,nobo,,la,,0.5127,,534.4838,534.4844,-0.274739583,-0.32421875,0,0,0,,0,237,237,145,1,león,,,,
,,,,,,5f9afa6dffa5e21329cf3f6e,676192165fb32c2e1fb7aee6,67d0b59cd4effcd1d475725b,2025-03-11_15h18.54.762,Tarea de decisión léxica,2024.2.5,Win32,60.24096386,,,,,,,,,,,,,,,,,,,,,,,534.4854,535.8161,l,1,0.6512,1,535.8162,536.3163,,,,,,280,FEM,NOWORD,AGR,150,grina,,la,,0.6512,,536.3164,536.3166,-0.274739583,-0.32421875,0,0,0,,0,238,238,279,1,prisa,,,,
,,,,,,5f9afa6dffa5e21329cf3f6e,676192165fb32c2e1fb7aee6,67d0b59cd4effcd1d475725b,2025-03-11_15h18.54.762,Tarea de decisión léxica,2024.2.5,Win32,60.24096386,,,,,,,,,,,,,,,,,,,,,,,536.3176,537.3998,l,1,0.401,1,537.4,537.8996,,,,,,22,MAS,NOWORD,DIS,150,blan,,la,,0.401,,537.8996,537.8998,-0.274739583,-0.32421875,0,0,0,,0,239,239,21,1,plan,,,,
,,,,,,5f9afa6dffa5e21329cf3f6e,676192165fb32c2e1fb7aee6,67d0b59cd4effcd1d475725b,2025-03-11_15h18.54.762,Tarea de decisión léxica,2024.2.5,Win32,60.24096386,,,,,,,,,,,,,,,,,,,,,,,537.9012,538.9832,l,1,0.4022,1,538.9834,539.4834,,,,,,170,MAS,NOWORD,DIS,150,mibo,,la,,0.4022,,539.4835,539.4837,-0.274739583,-0.32421875,0,0,0,,0,240,240,169,1,cubo,,,,
,,,,,,5f9afa6dffa5e21329cf3f6e,676192165fb32c2e1fb7aee6,67d0b59cd4effcd1d475725b,2025-03-11_15h18.54.762,Tarea de decisión léxica,2024.2.5,Win32,60.24096386,,,,,,,,,,,,,,,,,,,,,,,539.4848,540.5499,a,1,0.3931,1,540.55,541.0502,,,,,,403,FEM,WORD,DIS,150,prima,,el,,0.3931,,541.0502,541.0504,-0.274739583,-0.32421875,0,0,0,,0,241,241,402,1,grisa,,,,
,,,,,,5f9afa6dffa5e21329cf3f6e,676192165fb32c2e1fb7aee6,67d0b59cd4effcd1d475725b,2025-03-11_15h18.54.762,Tarea de decisión léxica,2024.2.5,Win32,60.24096386,,,,,,,,,,,,,,,,,,,,,,,541.0522,542.1668,l,1,0.4369,1,542.167,542.667,,,,,,178,MAS,NOWORD,DIS,150,bito,,la,,0.4369,,542.6678,542.6682,-0.274739583,-0.32421875,0,0,0,,0,242,242,177,1,reto,,,,
,,,,,,5f9afa6dffa5e21329cf3f6e,676192165fb32c2e1fb7aee6,67d0b59cd4effcd1d475725b,2025-03-11_15h18.54.762,Tarea de decisión léxica,2024.2.5,Win32,60.24096386,,,,,,,,,,,,,,,,,,,,,,,542.6685,543.8668,l,1,0.5215,1,543.867,544.3672,,,,,,276,MAS,NOWORD,AGR,150,musto,,el,,0.5215,,544.3673,544.3674,-0.274739583,-0.32421875,0,0,0,,0,243,243,275,1,punto,,,,
,,,,,,5f9afa6dffa5e21329cf3f6e,676192165fb32c2e1fb7aee6,67d0b59cd4effcd1d475725b,2025-03-11_15h18.54.762,Tarea de decisión léxica,2024.2.5,Win32,60.24096386,,,,,,,,,,,,,,,,,,,,,,,544.3684,545.5172,l,1,0.4674,1,545.5173,546.017,,,,,,338,MAS,NOWORD,DIS,150,nuejo,,la,,0.4674,,546.0171,546.0172,-0.274739583,-0.32421875,0,0,0,,0,244,244,337,1,huevo,,,,
,,,,,,5f9afa6dffa5e21329cf3f6e,676192165fb32c2e1fb7aee6,67d0b59cd4effcd1d475725b,2025-03-11_15h18.54.762,Tarea de decisión léxica,2024.2.5,Win32,60.24096386,,,,,,,,,,,,,,,,,,,,,,,546.0182,547.3008,l,1,0.6012,1,547.3009,547.8007,,,,,,26,FEM,NOWORD,DIS,150,paza,,el,,0.6012,,547.8009,547.801,-0.274739583,-0.32421875,0,0,0,,0,245,245,25,1,cama,,,,
,,,,,,5f9afa6dffa5e21329cf3f6e,676192165fb32c2e1fb7aee6,67d0b59cd4effcd1d475725b,2025-03-11_15h18.54.762,Tarea de decisión léxica,2024.2.5,Win32,60.24096386,,,,,,,,,,,,,,,,,,,,,,,547.8025,548.8676,a,1,0.3838,1,548.8677,549.3675,,,,,,287,FEM,WORD,DIS,150,lista,,el,,0.3838,,549.3676,549.3677,-0.274739583,-0.32421875,0,0,0,,0,246,246,286,1,fosta,,,,
,,,,,,5f9afa6dffa5e21329cf3f6e,676192165fb32c2e1fb7aee6,67d0b59cd4effcd1d475725b,2025-03-11_15h18.54.762,Tarea de decisión léxica,2024.2.5,Win32,60.24096386,,,,,,,,,,,,,,,,,,,,,,,549.3687,550.5009,a,1,0.4541,1,550.5011,551.001,,,,,,335,FEM,WORD,AGR,150,costa,,la,,0.4541,,551.0019,551.0026,-0.274739583,-0.32421875,0,0,0,,0,247,247,334,1,pesta,,,,
,,,,,,5f9afa6dffa5e21329cf3f6e,676192165fb32c2e1fb7aee6,67d0b59cd4effcd1d475725b,2025-03-11_15h18.54.762,Tarea de decisión léxica,2024.2.5,Win32,60.24096386,,,,,,,,,,,,,,,,,,,,,,,551.0032,552.1842,l,1,0.505,1,552.1844,552.685,,,,,,66,MAS,NOWORD,DIS,150,nios,,la,,0.505,,552.685,552.6851,-0.274739583,-0.32421875,0,0,0,,0,248,248,65,1,dios,,,,
,,,,,,5f9afa6dffa5e21329cf3f6e,676192165fb32c2e1fb7aee6,67d0b59cd4effcd1d475725b,2025-03-11_15h18.54.762,Tarea de decisión léxica,2024.2.5,Win32,60.24096386,,,,,,,,,,,,,,,,,,,,,,,552.686,553.818,l,0,0.4503,0,553.819,554.3182,,,,,,69,FEM,WORD,AGR,150,zona,,la,,0.4503,,554.3182,554.3184,-0.274739583,-0.32421875,0,0,0,,0,249,249,68,1,ñola,,,,
,,,,,,5f9afa6dffa5e21329cf3f6e,676192165fb32c2e1fb7aee6,67d0b59cd4effcd1d475725b,2025-03-11_15h18.54.762,Tarea de decisión léxica,2024.2.5,Win32,60.24096386,,,,,,,,,,,,,,,,,,,,,,,554.3197,555.3516,a,1,0.359,1,555.3523,555.8519,,,,,,93,FEM,WORD,AGR,150,bola,,la,,0.359,,555.8519,555.852,-0.274739583,-0.32421875,0,0,0,,0,250,250,92,1,rona,,,,
,,,,,,5f9afa6dffa5e21329cf3f6e,676192165fb32c2e1fb7aee6,67d0b59cd4effcd1d475725b,2025-03-11_15h18.54.762,Tarea de decisión léxica,2024.2.5,Win32,60.24096386,,,,,,,,,,,,,,,,,,,,,,,555.853,557.0182,l,1,0.4844,1,557.0184,557.5188,,,,,,476,FEM,NOWORD,AGR,150,mucta,,la,,0.4844,,557.5198,557.5206,-0.274739583,-0.32421875,0,0,0,,0,251,251,475,1,manta,,,,
,,,,,,5f9afa6dffa5e21329cf3f6e,676192165fb32c2e1fb7aee6,67d0b59cd4effcd1d475725b,2025-03-11_15h18.54.762,Tarea de decisión léxica,2024.2.5,Win32,60.24096386,,,,,,,,,,,,,,,,,,,,,,,557.5213,558.8352,l,1,0.6419,1,558.8353,559.3353,,,,,,472,FEM,NOWORD,AGR,150,prana,,la,,0.6419,,559.3354,559.3355,-0.274739583,-0.32421875,0,0,0,,0,252,252,471,1,grasa,,,,
,,,,,,5f9afa6dffa5e21329cf3f6e,676192165fb32c2e1fb7aee6,67d0b59cd4effcd1d475725b,2025-03-11_15h18.54.762,Tarea de decisión léxica,2024.2.5,Win32,60.24096386,,,,,,,,,,,,,,,,,,,,,,,559.3366,560.5019,l,1,0.4937,1,560.5021,561.0022,,,,,,446,MAS,NOWORD,DIS,150,ascor,,la,,0.4937,,561.0023,561.0024,-0.274739583,-0.32421875,0,0,0,,0,253,253,445,1,actor,,,,
,,,,,,5f9afa6dffa5e21329cf3f6e,676192165fb32c2e1fb7aee6,67d0b59cd4effcd1d475725b,2025-03-11_15h18.54.762,Tarea de decisión léxica,2024.2.5,Win32,60.24096386,,,,,,,,,,,,,,,,,,,,,,,561.0032,562.0022,a,1,0.3258,1,562.0025,562.5021,,,,,,457,MAS,WORD,AGR,150,plato,,el,,0.3258,,562.5022,562.5024,-0.274739583,-0.32421875,0,0,0,,0,254,254,456,1,glaco,,,,
,,,,,,5f9afa6dffa5e21329cf3f6e,676192165fb32c2e1fb7aee6,67d0b59cd4effcd1d475725b,2025-03-11_15h18.54.762,Tarea de decisión léxica,2024.2.5,Win32,60.24096386,,,,,,,,,,,,,,,,,,,,,,,562.5035,563.919,l,1,0.7405,1,563.9192,564.4192,,,,,,406,FEM,NOWORD,DIS,150,rarra,,el,,0.7405,,564.4193,564.4194,-0.274739583,-0.32421875,0,0,0,,0,255,255,405,1,barra,,,,
,,,,,,5f9afa6dffa5e21329cf3f6e,676192165fb32c2e1fb7aee6,67d0b59cd4effcd1d475725b,2025-03-11_15h18.54.762,Tarea de decisión léxica,2024.2.5,Win32,60.24096386,,,,,,,,,,,,,,,,,,,,,,,564.4203,565.5525,a,1,0.4628,1,565.5526,566.0527,,,,,,17,FEM,WORD,DIS,150,mamá,,el,,0.4628,,566.0536,566.0542,-0.274739583,-0.32421875,0,0,0,,0,256,256,16,1,paba,,,,
,,,,,,5f9afa6dffa5e21329cf3f6e,676192165fb32c2e1fb7aee6,67d0b59cd4effcd1d475725b,2025-03-11_15h18.54.762,Tarea de decisión léxica,2024.2.5,Win32,60.24096386,,,,,,,,,,,,,,,,,,,,,,,566.0551,567.2532,l,1,0.5169,1,567.2534,567.7528,,,,,,200,MAS,NOWORD,AGR,150,fano,,el,,0.5169,,567.7528,567.753,-0.274739583,-0.32421875,0,0,0,,0,257,257,199,1,lazo,,,,
,,,,,,5f9afa6dffa5e21329cf3f6e,676192165fb32c2e1fb7aee6,67d0b59cd4effcd1d475725b,2025-03-11_15h18.54.762,Tarea de decisión léxica,2024.2.5,Win32,60.24096386,,,,,,,,,,,,,,,,,,,,,,,567.7541,568.8035,a,1,0.3637,1,568.8035,569.3031,,,,,,71,FEM,WORD,DIS,150,isla,,el,,0.3637,,569.3032,569.3033,-0.274739583,-0.32421875,0,0,0,,0,258,258,70,1,urla,,,,
,,,,,,5f9afa6dffa5e21329cf3f6e,676192165fb32c2e1fb7aee6,67d0b59cd4effcd1d475725b,2025-03-11_15h18.54.762,Tarea de decisión léxica,2024.2.5,Win32,60.24096386,,,,,,,,,,,,,,,,,,,,,,,569.3045,570.2863,a,1,0.3078,1,570.2865,570.7864,,,,,,275,MAS,WORD,DIS,150,punto,,la,,0.3078,,570.7864,570.7866,-0.274739583,-0.32421875,0,0,0,,0,259,259,274,1,musto,,,,
,,,,,,5f9afa6dffa5e21329cf3f6e,676192165fb32c2e1fb7aee6,67d0b59cd4effcd1d475725b,2025-03-11_15h18.54.762,Tarea de decisión léxica,2024.2.5,Win32,60.24096386,,,,,,,,,,,,,,,,,,,,,,,570.7874,571.9862,l,1,0.5259,1,571.9864,572.4867,,,,,,142,FEM,NOWORD,DIS,150,sina,,el,,0.5259,,572.4868,572.487,-0.274739583,-0.32421875,0,0,0,,0,260,260,141,1,cruz,,,,
,,,,,,5f9afa6dffa5e21329cf3f6e,676192165fb32c2e1fb7aee6,67d0b59cd4effcd1d475725b,2025-03-11_15h18.54.762,Tarea de decisión léxica,2024.2.5,Win32,60.24096386,,,,,,,,,,,,,,,,,,,,,,,572.4882,573.5033,a,1,0.3267,1,573.5034,574.0036,,,,,,81,FEM,WORD,DIS,150,dama,,el,,0.3267,,574.0054,574.0063,-0.274739583,-0.32421875,0,0,0,,0,261,261,80,1,vasa,,,,
,,,,,,5f9afa6dffa5e21329cf3f6e,676192165fb32c2e1fb7aee6,67d0b59cd4effcd1d475725b,2025-03-11_15h18.54.762,Tarea de decisión léxica,2024.2.5,Win32,60.24096386,,,,,,,,,,,,,,,,,,,,,,,574.0071,575.1203,l,1,0.4339,1,575.1204,575.6202,,,,,,68,FEM,NOWORD,AGR,150,gesa,,la,,0.4339,,575.6203,575.6205,-0.274739583,-0.32421875,0,0,0,,0,262,262,67,1,nena,,,,
,,,,,,5f9afa6dffa5e21329cf3f6e,676192165fb32c2e1fb7aee6,67d0b59cd4effcd1d475725b,2025-03-11_15h18.54.762,Tarea de decisión léxica,2024.2.5,Win32,60.24096386,,,,,,,,,,,,,,,,,,,,,,,575.6214,576.7206,a,1,0.4173,1,576.7208,577.2201,,,,,,237,MAS,WORD,AGR,150,nudo,,el,,0.4173,,577.2202,577.2203,-0.274739583,-0.32421875,0,0,0,,0,263,263,236,1,huco,,,,
,,,,,,5f9afa6dffa5e21329cf3f6e,676192165fb32c2e1fb7aee6,67d0b59cd4effcd1d475725b,2025-03-11_15h18.54.762,Tarea de decisión léxica,2024.2.5,Win32,60.24096386,,,,,,,,,,,,,,,,,,,,,,,577.2212,578.3707,l,1,0.4545,1,578.3709,578.8706,,,,,,260,MAS,NOWORD,AGR,150,jaumo,,el,,0.4545,,578.8707,578.8708,-0.274739583,-0.32421875,0,0,0,,0,264,264,259,1,juego,,,,
