counterbalancing_condition,consent_prescreening.block_1/declare_consent,consent_prescreening.block_1/age_years,consent_prescreening.block_1/gender,consent_prescreening.block_1/language_disorder,consent_prescreening.block_1/first_language,PROLIFIC_PID,STUDY_ID,SESSION_ID,date,expName,psychopyVersion,OS,frameRate,check_prescreening_answers.started,check_prescreening_answers.stopped,Instructions.started,Instructions.stopped,instr_done_keyboard.keys,instr_done_touch.x,instr_done_touch.y,instr_done_touch.leftButton,instr_done_touch.midButton,instr_done_touch.rightButton,instr_done_touch.clicked_name,instruction_pages.thisRepN,instruction_pages.thisTrialN,instruction_pages.thisN,instruction_pages.thisIndex,instruction_pages.ran,pageN,phase,instruct_text,has_image,instruct_image,instr_done_keyboard.rt,instr_done_keyboard.duration,presentTrial.started,presentTrial.stopped,response.keys,response.corr,rt,corr,feedback.started,feedback.stopped,practice_trials.thisRepN,practice_trials.thisTrialN,practice_trials.thisN,practice_trials.thisIndex,practice_trials.ran,TrialID,Gender,StimulusType,Condition,PrimeDuration,Prime,len,Flanker,corrAns,response.rt,response.duration,Break.started,Break.stopped,break_done_touch.x,break_done_touch.y,break_done_touch.leftButton,break_done_touch.midButton,break_done_touch.rightButton,break_done_keyboard.keys,experiment_trials.thisRepN,experiment_trials.thisTrialN,experiment_trials.thisN,experiment_trials.thisIndex,experiment_trials.ran,PairedWith,break_done_keyboard.rt,break_done_keyboard.duration,End.started,End.stopped
0,"[""over_18"",""comfortable"",""read_info"",""consent_given""]",22,F,"[""none""]","[""spanish""]",5fd1ddefbdcc381f5ace15d4,676192165fb32c2e1fb7aee6,67d1e7fc38f520190175ebe9,2025-03-12_21h01.12.945,Tarea de decisión léxica,2024.2.5,MacIntel,119.047619,,,,,,,,,,,,,,,,,,,,,,,,,,,,,,,,,,,,,,,,,,,,,,,,,,,,,,,,,,,,,,,,,
,,,,,,5fd1ddefbdcc381f5ace15d4,676192165fb32c2e1fb7aee6,67d1e7fc38f520190175ebe9,2025-03-12_21h01.12.945,Tarea de decisión léxica,2024.2.5,MacIntel,119.047619,60.0963,60.0965,,,,,,,,,,,,,,,,,,,,,,,,,,,,,,,,,,,,,,,,,,,,,,,,,,,,,,,,,,,,,,,
,,,,,,5fd1ddefbdcc381f5ace15d4,676192165fb32c2e1fb7aee6,67d1e7fc38f520190175ebe9,2025-03-12_21h01.12.945,Tarea de decisión léxica,2024.2.5,MacIntel,119.047619,,,60.1171,73.5887,,-0.117437066,-0.401815683,1,0,0,instr_done_button,0,0,0,0,1,1,instructions,"INSTRUCCIONES
Va a realizar una prueba de decisión léxica. Desde el comienzo de la prueba mire siempre al centro de la pantalla. Se presentará una serie de cadenas de letras, una a la vez, en la pantalla. Su tarea consiste en determinar si cada cadena de letras constituye una palabra real en español o una no-palabra (una secuencia de letras que no constituye una palabra real). 

Pulse la tecla ESPACIO para continuar.",0,keyboardresponseNW.png,,,,,,,,,,,,,,,,,,,,,,,,,,,,,,,,,,,,,,,,,,,,
,,,,,,5fd1ddefbdcc381f5ace15d4,676192165fb32c2e1fb7aee6,67d1e7fc38f520190175ebe9,2025-03-12_21h01.12.945,Tarea de decisión léxica,2024.2.5,MacIntel,119.047619,,,73.5909,75.2735,space,-0.114934172,-0.302155671,0,0,0,,0,1,1,1,1,2,instructions,"El procedimiento es el siguiente: Aparecerán dos barras verticales posicionadas en el centro de la pantalla, separadas por un pequeño espacio.Por favor, enfoque su atención en el espacio entre las barras. Esto preparará sus ojos para la siguiente cadena de letras, que aparecerá entre las dos barras durante un instante.

Pulse la tecla ESPACIO para continuar.",0,keyboardresponseNW.png,1.6691,,,,,,,,,,,,,,,,,,,,,,,,,,,,,,,,,,,,,,,,,,,
,,,,,,5fd1ddefbdcc381f5ace15d4,676192165fb32c2e1fb7aee6,67d1e7fc38f520190175ebe9,2025-03-12_21h01.12.945,Tarea de decisión léxica,2024.2.5,MacIntel,119.047619,,,75.2747,86.0677,space,-0.114934172,-0.302155671,0,0,0,,0,2,2,2,1,3,instructions,"En el teclado de su dispositivo, pulse la tecla ""L"" si la cadena de letras es una palabra real en español (por ejemplo: ""mano"") y la tecla ""A"" si la cadena de letras es una no-palabra (por ejemplo: ""minu"").
Pulse la tecla ESPACIO para continuar.",1,keyboardresponseNW.png,10.7607,,,,,,,,,,,,,,,,,,,,,,,,,,,,,,,,,,,,,,,,,,,
,,,,,,5fd1ddefbdcc381f5ace15d4,676192165fb32c2e1fb7aee6,67d1e7fc38f520190175ebe9,2025-03-12_21h01.12.945,Tarea de decisión léxica,2024.2.5,MacIntel,119.047619,,,86.0694,95.9268,space,-0.114934172,-0.302155671,0,0,0,,0,3,3,3,1,4,instructions,"Es muy importante que responda con la mayor rapidez y precisión posibles. Si no responde dentro de 2 segundos, aparecerá el mensaje ""Muy lento"" y el experimento pasará a la siguiente palabra. Inmediatamente después de su respuesta se indicará si fue correcta o no. Los primeros 15 intentos serán de práctica y habrá dos descansos durante la prueba.

Pulse la tecla ESPACIO  para iniciar la parte de práctica.",0,keyboardresponseNW.png,9.8455,,,,,,,,,,,,,,,,,,,,,,,,,,,,,,,,,,,,,,,,,,,
,,,,,,5fd1ddefbdcc381f5ace15d4,676192165fb32c2e1fb7aee6,67d1e7fc38f520190175ebe9,2025-03-12_21h01.12.945,Tarea de decisión léxica,2024.2.5,MacIntel,119.047619,,,,,,,,,,,,,,,,,,,,,,,,95.9443,98.5896,,0,,-1,98.5902,99.0886,0,0,0,4,1,1005,MAS,NOWORD,DIS,150,nobad,5,la,a,,,,,,,,,,,,,,,,,,,,
,,,,,,5fd1ddefbdcc381f5ace15d4,676192165fb32c2e1fb7aee6,67d1e7fc38f520190175ebe9,2025-03-12_21h01.12.945,Tarea de decisión léxica,2024.2.5,MacIntel,119.047619,,,,,,,,,,,,,,,,,,,,,,,,99.0898,101.7386,,0,,-1,101.7387,102.2391,0,1,1,9,1,1010,MAS,WORD,DIS,150,video,5,la,l,,,,,,,,,,,,,,,,,,,,
,,,,,,5fd1ddefbdcc381f5ace15d4,676192165fb32c2e1fb7aee6,67d1e7fc38f520190175ebe9,2025-03-12_21h01.12.945,Tarea de decisión léxica,2024.2.5,MacIntel,119.047619,,,,,,,,,,,,,,,,,,,,,,,,102.2412,103.7129,l,1,0.8104,1,103.731,104.2137,0,2,2,6,1,1007,MAS,WORD,DIS,150,masa,4,la,l,0.8104,,,,,,,,,,,,,,,,,,,
,,,,,,5fd1ddefbdcc381f5ace15d4,676192165fb32c2e1fb7aee6,67d1e7fc38f520190175ebe9,2025-03-12_21h01.12.945,Tarea de decisión léxica,2024.2.5,MacIntel,119.047619,,,,,,,,,,,,,,,,,,,,,,,,104.2154,105.5976,a,1,0.7169,1,105.5977,106.0974,0,3,3,0,1,1001,FEM,NOWORD,AGR,150,croz,4,la,a,0.7169,,,,,,,,,,,,,,,,,,,
,,,,,,5fd1ddefbdcc381f5ace15d4,676192165fb32c2e1fb7aee6,67d1e7fc38f520190175ebe9,2025-03-12_21h01.12.945,Tarea de decisión léxica,2024.2.5,MacIntel,119.047619,,,,,,,,,,,,,,,,,,,,,,,,106.0991,107.4062,a,1,0.6451,1,107.4064,107.9052,0,4,4,3,1,1004,FEM,NOWORD,AGR,150,bireo,5,la,a,0.6451,,,,,,,,,,,,,,,,,,,
,,,,,,5fd1ddefbdcc381f5ace15d4,676192165fb32c2e1fb7aee6,67d1e7fc38f520190175ebe9,2025-03-12_21h01.12.945,Tarea de decisión léxica,2024.2.5,MacIntel,119.047619,,,,,,,,,,,,,,,,,,,,,,,,107.9063,109.0386,l,1,0.4679,1,109.0387,109.5393,0,5,5,5,1,1006,FEM,WORD,AGR,150,cara,4,la,l,0.4679,,,,,,,,,,,,,,,,,,,
,,,,,,5fd1ddefbdcc381f5ace15d4,676192165fb32c2e1fb7aee6,67d1e7fc38f520190175ebe9,2025-03-12_21h01.12.945,Tarea de decisión léxica,2024.2.5,MacIntel,119.047619,,,,,,,,,,,,,,,,,,,,,,,,109.5412,111.3398,l,1,1.1353,1,111.3403,111.8394,0,6,6,8,1,1009,FEM,WORD,AGR,150,viejo,5,la,l,1.1353,,,,,,,,,,,,,,,,,,,
,,,,,,5fd1ddefbdcc381f5ace15d4,676192165fb32c2e1fb7aee6,67d1e7fc38f520190175ebe9,2025-03-12_21h01.12.945,Tarea de decisión léxica,2024.2.5,MacIntel,119.047619,,,,,,,,,,,,,,,,,,,,,,,,111.8412,113.4303,l,1,0.9233,1,113.4304,113.9309,0,7,7,7,1,1008,MAS,WORD,DIS,150,frío,4,la,l,0.9233,,,,,,,,,,,,,,,,,,,
,,,,,,5fd1ddefbdcc381f5ace15d4,676192165fb32c2e1fb7aee6,67d1e7fc38f520190175ebe9,2025-03-12_21h01.12.945,Tarea de decisión léxica,2024.2.5,MacIntel,119.047619,,,,,,,,,,,,,,,,,,,,,,,,113.9325,115.5303,a,1,0.9354,1,115.5304,116.0309,0,8,8,1,1,1002,FEM,NOWORD,DIS,150,mabo,4,el,a,0.9354,,,,,,,,,,,,,,,,,,,
,,,,,,5fd1ddefbdcc381f5ace15d4,676192165fb32c2e1fb7aee6,67d1e7fc38f520190175ebe9,2025-03-12_21h01.12.945,Tarea de decisión léxica,2024.2.5,MacIntel,119.047619,,,,,,,,,,,,,,,,,,,,,,,,116.0327,117.2304,a,1,0.5346,1,117.2306,117.7306,0,9,9,2,1,1003,FEM,NOWORD,DIS,150,muvor,5,el,a,0.5346,,,,,,,,,,,,,,,,,,,
,,,,,,5fd1ddefbdcc381f5ace15d4,676192165fb32c2e1fb7aee6,67d1e7fc38f520190175ebe9,2025-03-12_21h01.12.945,Tarea de decisión léxica,2024.2.5,MacIntel,119.047619,,,122.3912,127.4807,space,-0.114934172,-0.302155671,0,0,0,,,,,,,,,,,,5.0786,,127.5163,128.9094,l,1,0.7343,1,128.9096,129.4087,,,,,,225,MAS,WORD,DIS,150,lodo,,la,,0.7343,,129.4094,129.4138,-0.114934172,-0.302155671,0,0,0,,0,0,0,224,1,boco,,,,
,,,,,,5fd1ddefbdcc381f5ace15d4,676192165fb32c2e1fb7aee6,67d1e7fc38f520190175ebe9,2025-03-12_21h01.12.945,Tarea de decisión léxica,2024.2.5,MacIntel,119.047619,,,,,,,,,,,,,,,,,,,,,,,,129.4157,130.6093,l,1,0.5359,1,130.6095,131.1092,,,,,,53,FEM,WORD,DIS,150,boda,,el,,0.5359,,131.1094,131.1096,-0.114934172,-0.302155671,0,0,0,,0,1,1,52,1,rora,,,,
,,,,,,5fd1ddefbdcc381f5ace15d4,676192165fb32c2e1fb7aee6,67d1e7fc38f520190175ebe9,2025-03-12_21h01.12.945,Tarea de decisión léxica,2024.2.5,MacIntel,119.047619,,,,,,,,,,,,,,,,,,,,,,,,131.1113,132.1846,l,1,0.4098,1,132.1847,132.6849,,,,,,265,FEM,WORD,DIS,150,mitad,,el,,0.4098,,132.6872,132.6886,-0.114934172,-0.302155671,0,0,0,,0,2,2,264,1,pitat,,,,
,,,,,,5fd1ddefbdcc381f5ace15d4,676192165fb32c2e1fb7aee6,67d1e7fc38f520190175ebe9,2025-03-12_21h01.12.945,Tarea de decisión léxica,2024.2.5,MacIntel,119.047619,,,,,,,,,,,,,,,,,,,,,,,,132.6893,133.901,a,1,0.5538,1,133.9012,134.4014,,,,,,4,FEM,NOWORD,AGR,150,dica,,la,,0.5538,,134.4016,134.4018,-0.114934172,-0.302155671,0,0,0,,0,3,3,3,1,vida,,,,
,,,,,,5fd1ddefbdcc381f5ace15d4,676192165fb32c2e1fb7aee6,67d1e7fc38f520190175ebe9,2025-03-12_21h01.12.945,Tarea de decisión léxica,2024.2.5,MacIntel,119.047619,,,,,,,,,,,,,,,,,,,,,,,,134.4036,135.5763,l,1,0.5108,1,135.5764,136.0767,,,,,,295,MAS,WORD,DIS,150,dolor,,la,,0.5108,,136.0768,136.077,-0.114934172,-0.302155671,0,0,0,,0,4,4,294,1,goler,,,,
,,,,,,5fd1ddefbdcc381f5ace15d4,676192165fb32c2e1fb7aee6,67d1e7fc38f520190175ebe9,2025-03-12_21h01.12.945,Tarea de decisión léxica,2024.2.5,MacIntel,119.047619,,,,,,,,,,,,,,,,,,,,,,,,136.0786,137.3346,a,1,0.5915,1,137.3347,137.8343,,,,,,330,MAS,NOWORD,DIS,150,nueno,,la,,0.5915,,137.8345,137.8347,-0.114934172,-0.302155671,0,0,0,,0,5,5,329,1,hueso,,,,
,,,,,,5fd1ddefbdcc381f5ace15d4,676192165fb32c2e1fb7aee6,67d1e7fc38f520190175ebe9,2025-03-12_21h01.12.945,Tarea de decisión léxica,2024.2.5,MacIntel,119.047619,,,,,,,,,,,,,,,,,,,,,,,,137.8363,139.0088,l,1,0.5045,1,139.0089,139.5097,,,,,,167,FEM,WORD,AGR,150,jefa,,la,,0.5045,,139.51,139.5102,-0.114934172,-0.302155671,0,0,0,,0,6,6,166,1,zifa,,,,
,,,,,,5fd1ddefbdcc381f5ace15d4,676192165fb32c2e1fb7aee6,67d1e7fc38f520190175ebe9,2025-03-12_21h01.12.945,Tarea de decisión léxica,2024.2.5,MacIntel,119.047619,,,,,,,,,,,,,,,,,,,,,,,,139.5118,140.86,a,1,0.6891,1,140.8602,141.3593,,,,,,372,FEM,NOWORD,AGR,150,mosta,,la,,0.6891,,141.361,141.3624,-0.114934172,-0.302155671,0,0,0,,0,7,7,371,1,pasta,,,,
,,,,,,5fd1ddefbdcc381f5ace15d4,676192165fb32c2e1fb7aee6,67d1e7fc38f520190175ebe9,2025-03-12_21h01.12.945,Tarea de decisión léxica,2024.2.5,MacIntel,119.047619,,,,,,,,,,,,,,,,,,,,,,,,141.3635,142.5263,l,1,0.4984,1,142.5264,143.0266,,,,,,143,MAS,WORD,DIS,150,pavo,,la,,0.4984,,143.0269,143.0276,-0.114934172,-0.302155671,0,0,0,,0,8,8,142,1,pezo,,,,
,,,,,,5fd1ddefbdcc381f5ace15d4,676192165fb32c2e1fb7aee6,67d1e7fc38f520190175ebe9,2025-03-12_21h01.12.945,Tarea de decisión léxica,2024.2.5,MacIntel,119.047619,,,,,,,,,,,,,,,,,,,,,,,,143.0289,144.2349,a,1,0.5468,1,144.2351,144.7344,,,,,,12,MAS,NOWORD,AGR,150,bapo,,el,,0.5468,,144.7345,144.7347,-0.114934172,-0.302155671,0,0,0,,0,9,9,11,1,lado,,,,
,,,,,,5fd1ddefbdcc381f5ace15d4,676192165fb32c2e1fb7aee6,67d1e7fc38f520190175ebe9,2025-03-12_21h01.12.945,Tarea de decisión léxica,2024.2.5,MacIntel,119.047619,,,,,,,,,,,,,,,,,,,,,,,,144.7362,145.76,l,1,0.3611,1,145.7601,146.2595,,,,,,131,FEM,WORD,DIS,150,mina,,el,,0.3611,,146.2596,146.2598,-0.114934172,-0.302155671,0,0,0,,0,10,10,130,1,fada,,,,
,,,,,,5fd1ddefbdcc381f5ace15d4,676192165fb32c2e1fb7aee6,67d1e7fc38f520190175ebe9,2025-03-12_21h01.12.945,Tarea de decisión léxica,2024.2.5,MacIntel,119.047619,,,,,,,,,,,,,,,,,,,,,,,,146.2617,147.3607,a,1,0.437,1,147.3608,147.8593,,,,,,122,MAS,NOWORD,DIS,150,bomo,,la,,0.437,,147.8596,147.8598,-0.114934172,-0.302155671,0,0,0,,0,11,11,121,1,hoyo,,,,
,,,,,,5fd1ddefbdcc381f5ace15d4,676192165fb32c2e1fb7aee6,67d1e7fc38f520190175ebe9,2025-03-12_21h01.12.945,Tarea de decisión léxica,2024.2.5,MacIntel,119.047619,,,,,,,,,,,,,,,,,,,,,,,,147.8601,149.1429,l,0,0.6131,0,149.144,149.6437,,,,,,128,MAS,NOWORD,AGR,150,itio,,el,,0.6131,,149.6438,149.6438,-0.114934172,-0.302155671,0,0,0,,0,12,12,127,1,pico,,,,
,,,,,,5fd1ddefbdcc381f5ace15d4,676192165fb32c2e1fb7aee6,67d1e7fc38f520190175ebe9,2025-03-12_21h01.12.945,Tarea de decisión léxica,2024.2.5,MacIntel,119.047619,,,,,,,,,,,,,,,,,,,,,,,,149.6454,150.6763,l,0,0.369,0,150.6764,151.1767,,,,,,288,FEM,NOWORD,AGR,150,fosta,,la,,0.369,,151.1767,151.1769,-0.114934172,-0.302155671,0,0,0,,0,13,13,287,1,lista,,,,
,,,,,,5fd1ddefbdcc381f5ace15d4,676192165fb32c2e1fb7aee6,67d1e7fc38f520190175ebe9,2025-03-12_21h01.12.945,Tarea de decisión léxica,2024.2.5,MacIntel,119.047619,,,,,,,,,,,,,,,,,,,,,,,,151.1789,152.2345,l,1,0.3938,1,152.2351,152.735,,,,,,421,MAS,WORD,DIS,150,primo,,la,,0.3938,,152.7351,152.7352,-0.114934172,-0.302155671,0,0,0,,0,14,14,420,1,griso,,,,
,,,,,,5fd1ddefbdcc381f5ace15d4,676192165fb32c2e1fb7aee6,67d1e7fc38f520190175ebe9,2025-03-12_21h01.12.945,Tarea de decisión léxica,2024.2.5,MacIntel,119.047619,,,,,,,,,,,,,,,,,,,,,,,,152.7368,153.8443,a,1,0.4465,1,153.8445,154.3434,,,,,,350,MAS,NOWORD,DIS,150,cosir,,la,,0.4465,,154.3435,154.3437,-0.114934172,-0.302155671,0,0,0,,0,15,15,349,1,color,,,,
,,,,,,5fd1ddefbdcc381f5ace15d4,676192165fb32c2e1fb7aee6,67d1e7fc38f520190175ebe9,2025-03-12_21h01.12.945,Tarea de decisión léxica,2024.2.5,MacIntel,119.047619,,,,,,,,,,,,,,,,,,,,,,,,154.3453,155.4779,a,1,0.4715,1,155.4781,155.9764,,,,,,68,FEM,NOWORD,AGR,150,gesa,,la,,0.4715,,155.978,155.9791,-0.114934172,-0.302155671,0,0,0,,0,16,16,67,1,nena,,,,
,,,,,,5fd1ddefbdcc381f5ace15d4,676192165fb32c2e1fb7aee6,67d1e7fc38f520190175ebe9,2025-03-12_21h01.12.945,Tarea de decisión léxica,2024.2.5,MacIntel,119.047619,,,,,,,,,,,,,,,,,,,,,,,,155.9804,157.193,a,1,0.5482,1,157.1931,157.6933,,,,,,228,MAS,NOWORD,AGR,150,laro,,el,,0.5482,,157.6934,157.6935,-0.114934172,-0.302155671,0,0,0,,0,17,17,227,1,faro,,,,
,,,,,,5fd1ddefbdcc381f5ace15d4,676192165fb32c2e1fb7aee6,67d1e7fc38f520190175ebe9,2025-03-12_21h01.12.945,Tarea de decisión léxica,2024.2.5,MacIntel,119.047619,,,,,,,,,,,,,,,,,,,,,,,,157.6953,158.7516,l,1,0.3928,1,158.7519,159.2508,,,,,,277,MAS,WORD,AGR,150,fuego,,el,,0.3928,,159.2508,159.2509,-0.114934172,-0.302155671,0,0,0,,0,18,18,276,1,vuemo,,,,
,,,,,,5fd1ddefbdcc381f5ace15d4,676192165fb32c2e1fb7aee6,67d1e7fc38f520190175ebe9,2025-03-12_21h01.12.945,Tarea de decisión léxica,2024.2.5,MacIntel,119.047619,,,,,,,,,,,,,,,,,,,,,,,,159.2518,160.3384,a,1,0.4299,1,160.3385,160.835,,,,,,220,FEM,NOWORD,AGR,150,miva,,la,,0.4299,,160.8351,160.8352,-0.114934172,-0.302155671,0,0,0,,0,19,19,219,1,pipa,,,,
,,,,,,5fd1ddefbdcc381f5ace15d4,676192165fb32c2e1fb7aee6,67d1e7fc38f520190175ebe9,2025-03-12_21h01.12.945,Tarea de decisión léxica,2024.2.5,MacIntel,119.047619,,,,,,,,,,,,,,,,,,,,,,,,160.8368,161.7357,l,1,0.2387,1,161.7359,162.2351,,,,,,279,FEM,WORD,AGR,150,prisa,,la,,0.2387,,162.2352,162.2353,-0.114934172,-0.302155671,0,0,0,,0,20,20,278,1,grina,,,,
,,,,,,5fd1ddefbdcc381f5ace15d4,676192165fb32c2e1fb7aee6,67d1e7fc38f520190175ebe9,2025-03-12_21h01.12.945,Tarea de decisión léxica,2024.2.5,MacIntel,119.047619,,,,,,,,,,,,,,,,,,,,,,,,162.238,163.3929,a,1,0.4943,1,163.3931,163.8927,,,,,,98,MAS,NOWORD,DIS,150,fopo,,la,,0.4943,,163.8937,163.8946,-0.114934172,-0.302155671,0,0,0,,0,21,21,97,1,mono,,,,
,,,,,,5fd1ddefbdcc381f5ace15d4,676192165fb32c2e1fb7aee6,67d1e7fc38f520190175ebe9,2025-03-12_21h01.12.945,Tarea de decisión léxica,2024.2.5,MacIntel,119.047619,,,,,,,,,,,,,,,,,,,,,,,,163.8951,165.0347,a,1,0.4729,1,165.0348,165.5351,,,,,,246,FEM,NOWORD,DIS,150,pafle,,el,,0.4729,,165.5353,165.5354,-0.114934172,-0.302155671,0,0,0,,0,22,22,245,1,madre,,,,
,,,,,,5fd1ddefbdcc381f5ace15d4,676192165fb32c2e1fb7aee6,67d1e7fc38f520190175ebe9,2025-03-12_21h01.12.945,Tarea de decisión léxica,2024.2.5,MacIntel,119.047619,,,,,,,,,,,,,,,,,,,,,,,,165.5372,166.7846,a,1,0.5859,1,166.7847,167.2854,,,,,,432,MAS,NOWORD,AGR,150,tetor,,el,,0.5859,,167.2854,167.2856,-0.114934172,-0.302155671,0,0,0,,0,23,23,431,1,motor,,,,
,,,,,,5fd1ddefbdcc381f5ace15d4,676192165fb32c2e1fb7aee6,67d1e7fc38f520190175ebe9,2025-03-12_21h01.12.945,Tarea de decisión léxica,2024.2.5,MacIntel,119.047619,,,,,,,,,,,,,,,,,,,,,,,,167.287,168.3694,l,1,0.4227,1,168.3695,168.8681,,,,,,227,MAS,WORD,AGR,150,faro,,el,,0.4227,,168.8682,168.8683,-0.114934172,-0.302155671,0,0,0,,0,24,24,226,1,laro,,,,
,,,,,,5fd1ddefbdcc381f5ace15d4,676192165fb32c2e1fb7aee6,67d1e7fc38f520190175ebe9,2025-03-12_21h01.12.945,Tarea de decisión léxica,2024.2.5,MacIntel,119.047619,,,,,,,,,,,,,,,,,,,,,,,,168.8699,170.0591,l,1,0.5248,1,170.0592,170.5598,,,,,,73,MAS,WORD,AGR,150,odio,,el,,0.5248,,170.56,170.5601,-0.114934172,-0.302155671,0,0,0,,0,25,25,72,1,omio,,,,
,,,,,,5fd1ddefbdcc381f5ace15d4,676192165fb32c2e1fb7aee6,67d1e7fc38f520190175ebe9,2025-03-12_21h01.12.945,Tarea de decisión léxica,2024.2.5,MacIntel,119.047619,,,,,,,,,,,,,,,,,,,,,,,,170.5615,171.6853,a,1,0.4613,1,171.6855,172.1846,,,,,,476,FEM,NOWORD,AGR,150,mucta,,la,,0.4613,,172.1867,172.1879,-0.114934172,-0.302155671,0,0,0,,0,26,26,475,1,manta,,,,
,,,,,,5fd1ddefbdcc381f5ace15d4,676192165fb32c2e1fb7aee6,67d1e7fc38f520190175ebe9,2025-03-12_21h01.12.945,Tarea de decisión léxica,2024.2.5,MacIntel,119.047619,,,,,,,,,,,,,,,,,,,,,,,,172.1886,173.159,l,0,0.3091,0,173.1599,173.6589,,,,,,196,FEM,NOWORD,AGR,150,sira,,la,,0.3091,,173.6589,173.6591,-0.114934172,-0.302155671,0,0,0,,0,27,27,195,1,tela,,,,
,,,,,,5fd1ddefbdcc381f5ace15d4,676192165fb32c2e1fb7aee6,67d1e7fc38f520190175ebe9,2025-03-12_21h01.12.945,Tarea de decisión léxica,2024.2.5,MacIntel,119.047619,,,,,,,,,,,,,,,,,,,,,,,,173.6608,174.8345,a,1,0.5109,1,174.8354,175.335,,,,,,136,MAS,NOWORD,AGR,150,geso,,el,,0.5109,,175.3351,175.3352,-0.114934172,-0.302155671,0,0,0,,0,28,28,135,1,tubo,,,,
,,,,,,5fd1ddefbdcc381f5ace15d4,676192165fb32c2e1fb7aee6,67d1e7fc38f520190175ebe9,2025-03-12_21h01.12.945,Tarea de decisión léxica,2024.2.5,MacIntel,119.047619,,,,,,,,,,,,,,,,,,,,,,,,175.3372,176.4515,a,1,0.4479,1,176.4516,176.9517,,,,,,76,MAS,NOWORD,AGR,150,ocer,,el,,0.4479,,176.9519,176.9521,-0.114934172,-0.302155671,0,0,0,,0,29,29,75,1,olor,,,,
,,,,,,5fd1ddefbdcc381f5ace15d4,676192165fb32c2e1fb7aee6,67d1e7fc38f520190175ebe9,2025-03-12_21h01.12.945,Tarea de decisión léxica,2024.2.5,MacIntel,119.047619,,,,,,,,,,,,,,,,,,,,,,,,176.9537,178.1679,a,1,0.5445,1,178.1681,178.6683,,,,,,234,FEM,NOWORD,DIS,150,fasa,,el,,0.5445,,178.6684,178.6686,-0.114934172,-0.302155671,0,0,0,,0,30,30,233,1,lana,,,,
,,,,,,5fd1ddefbdcc381f5ace15d4,676192165fb32c2e1fb7aee6,67d1e7fc38f520190175ebe9,2025-03-12_21h01.12.945,Tarea de decisión léxica,2024.2.5,MacIntel,119.047619,,,,,,,,,,,,,,,,,,,,,,,,178.6702,179.7598,l,1,0.4247,1,179.7598,180.2604,,,,,,317,FEM,WORD,AGR,150,playa,,la,,0.4247,,180.2631,180.2639,-0.114934172,-0.302155671,0,0,0,,0,31,31,316,1,plaad,,,,
,,,,,,5fd1ddefbdcc381f5ace15d4,676192165fb32c2e1fb7aee6,67d1e7fc38f520190175ebe9,2025-03-12_21h01.12.945,Tarea de decisión léxica,2024.2.5,MacIntel,119.047619,,,,,,,,,,,,,,,,,,,,,,,,180.2645,181.3679,a,1,0.4398,1,181.3679,181.8685,,,,,,384,FEM,NOWORD,AGR,150,brame,,la,,0.4398,,181.8687,181.8688,-0.114934172,-0.302155671,0,0,0,,0,32,32,383,1,frase,,,,
,,,,,,5fd1ddefbdcc381f5ace15d4,676192165fb32c2e1fb7aee6,67d1e7fc38f520190175ebe9,2025-03-12_21h01.12.945,Tarea de decisión léxica,2024.2.5,MacIntel,119.047619,,,,,,,,,,,,,,,,,,,,,,,,181.8703,183.0019,a,1,0.4655,1,183.0021,183.5018,,,,,,326,FEM,NOWORD,DIS,150,mabia,,el,,0.4655,,183.5019,183.502,-0.114934172,-0.302155671,0,0,0,,0,33,33,325,1,magia,,,,
,,,,,,5fd1ddefbdcc381f5ace15d4,676192165fb32c2e1fb7aee6,67d1e7fc38f520190175ebe9,2025-03-12_21h01.12.945,Tarea de decisión léxica,2024.2.5,MacIntel,119.047619,,,,,,,,,,,,,,,,,,,,,,,,183.5039,184.6266,a,1,0.4606,1,184.6267,185.1256,,,,,,34,FEM,NOWORD,DIS,150,loda,,el,,0.4606,,185.1258,185.1258,-0.114934172,-0.302155671,0,0,0,,0,34,34,33,1,boca,,,,
,,,,,,5fd1ddefbdcc381f5ace15d4,676192165fb32c2e1fb7aee6,67d1e7fc38f520190175ebe9,2025-03-12_21h01.12.945,Tarea de decisión léxica,2024.2.5,MacIntel,119.047619,,,,,,,,,,,,,,,,,,,,,,,,185.1275,186.2764,l,1,0.4834,1,186.2766,186.7766,,,,,,121,MAS,WORD,AGR,150,hoyo,,el,,0.4834,,186.7784,186.7797,-0.114934172,-0.302155671,0,0,0,,0,35,35,120,1,bomo,,,,
,,,,,,5fd1ddefbdcc381f5ace15d4,676192165fb32c2e1fb7aee6,67d1e7fc38f520190175ebe9,2025-03-12_21h01.12.945,Tarea de decisión léxica,2024.2.5,MacIntel,119.047619,,,,,,,,,,,,,,,,,,,,,,,,186.7809,187.8777,a,1,0.4371,1,187.8778,188.3762,,,,,,316,FEM,NOWORD,AGR,150,riosa,,la,,0.4371,,188.3763,188.3764,-0.114934172,-0.302155671,0,0,0,,0,36,36,315,1,reina,,,,
,,,,,,5fd1ddefbdcc381f5ace15d4,676192165fb32c2e1fb7aee6,67d1e7fc38f520190175ebe9,2025-03-12_21h01.12.945,Tarea de decisión léxica,2024.2.5,MacIntel,119.047619,,,,,,,,,,,,,,,,,,,,,,,,188.3771,189.4005,l,1,0.3601,1,189.4006,189.9018,,,,,,69,FEM,WORD,AGR,150,zona,,la,,0.3601,,189.902,189.9021,-0.114934172,-0.302155671,0,0,0,,0,37,37,68,1,ñola,,,,
,,,,,,5fd1ddefbdcc381f5ace15d4,676192165fb32c2e1fb7aee6,67d1e7fc38f520190175ebe9,2025-03-12_21h01.12.945,Tarea de decisión léxica,2024.2.5,MacIntel,119.047619,,,,,,,,,,,,,,,,,,,,,,,,189.9037,191.043,l,1,0.472,1,191.0431,191.5433,,,,,,371,FEM,WORD,AGR,150,pasta,,la,,0.472,,191.5433,191.5434,-0.114934172,-0.302155671,0,0,0,,0,38,38,370,1,mosta,,,,
,,,,,,5fd1ddefbdcc381f5ace15d4,676192165fb32c2e1fb7aee6,67d1e7fc38f520190175ebe9,2025-03-12_21h01.12.945,Tarea de decisión léxica,2024.2.5,MacIntel,119.047619,,,,,,,,,,,,,,,,,,,,,,,,191.5458,192.4763,l,1,0.2696,1,192.4764,192.9766,,,,,,199,MAS,WORD,DIS,150,lazo,,la,,0.2696,,192.9768,192.9769,-0.114934172,-0.302155671,0,0,0,,0,39,39,198,1,fano,,,,
,,,,,,5fd1ddefbdcc381f5ace15d4,676192165fb32c2e1fb7aee6,67d1e7fc38f520190175ebe9,2025-03-12_21h01.12.945,Tarea de decisión léxica,2024.2.5,MacIntel,119.047619,,,,,,,,,,,,,,,,,,,,,,,,192.9784,194.0348,a,1,0.3942,1,194.0349,194.5343,,,,,,262,MAS,NOWORD,DIS,150,titio,,la,,0.3942,,194.5366,194.5379,-0.114934172,-0.302155671,0,0,0,,0,40,40,261,1,sitio,,,,
,,,,,,5fd1ddefbdcc381f5ace15d4,676192165fb32c2e1fb7aee6,67d1e7fc38f520190175ebe9,2025-03-12_21h01.12.945,Tarea de decisión léxica,2024.2.5,MacIntel,119.047619,,,,,,,,,,,,,,,,,,,,,,,,194.5393,195.509,l,1,0.3053,1,195.5092,196.009,,,,,,247,FEM,WORD,DIS,150,chica,,el,,0.3053,,196.0092,196.0093,-0.114934172,-0.302155671,0,0,0,,0,41,41,246,1,trida,,,,
,,,,,,5fd1ddefbdcc381f5ace15d4,676192165fb32c2e1fb7aee6,67d1e7fc38f520190175ebe9,2025-03-12_21h01.12.945,Tarea de decisión léxica,2024.2.5,MacIntel,119.047619,,,,,,,,,,,,,,,,,,,,,,,,196.0107,197.0266,l,1,0.3508,1,197.0267,197.5263,,,,,,347,FEM,WORD,DIS,150,pieza,,el,,0.3508,,197.5264,197.5265,-0.114934172,-0.302155671,0,0,0,,0,42,42,346,1,mueza,,,,
,,,,,,5fd1ddefbdcc381f5ace15d4,676192165fb32c2e1fb7aee6,67d1e7fc38f520190175ebe9,2025-03-12_21h01.12.945,Tarea de decisión léxica,2024.2.5,MacIntel,119.047619,,,,,,,,,,,,,,,,,,,,,,,,197.5275,198.7014,a,1,0.5078,1,198.7015,199.2019,,,,,,308,MAS,NOWORD,AGR,150,holol,,el,,0.5078,,199.2019,199.202,-0.114934172,-0.302155671,0,0,0,,0,43,43,307,1,hotel,,,,
,,,,,,5fd1ddefbdcc381f5ace15d4,676192165fb32c2e1fb7aee6,67d1e7fc38f520190175ebe9,2025-03-12_21h01.12.945,Tarea de decisión léxica,2024.2.5,MacIntel,119.047619,,,,,,,,,,,,,,,,,,,,,,,,199.2036,200.1432,a,1,0.2784,1,200.1433,200.6434,,,,,,446,MAS,NOWORD,DIS,150,ascor,,la,,0.2784,,200.6436,200.6437,-0.114934172,-0.302155671,0,0,0,,0,44,44,445,1,actor,,,,
,,,,,,5fd1ddefbdcc381f5ace15d4,676192165fb32c2e1fb7aee6,67d1e7fc38f520190175ebe9,2025-03-12_21h01.12.945,Tarea de decisión léxica,2024.2.5,MacIntel,119.047619,,,,,,,,,,,,,,,,,,,,,,,,200.6451,201.6927,l,1,0.386,1,201.6928,202.1936,,,,,,45,FEM,WORD,AGR,150,mesa,,la,,0.386,,202.195,202.1961,-0.114934172,-0.302155671,0,0,0,,0,45,45,44,1,pema,,,,
,,,,,,5fd1ddefbdcc381f5ace15d4,676192165fb32c2e1fb7aee6,67d1e7fc38f520190175ebe9,2025-03-12_21h01.12.945,Tarea de decisión léxica,2024.2.5,MacIntel,119.047619,,,,,,,,,,,,,,,,,,,,,,,,202.1974,203.2432,l,1,0.382,1,203.2432,203.7422,,,,,,307,MAS,WORD,DIS,150,hotel,,la,,0.382,,203.7423,203.7423,-0.114934172,-0.302155671,0,0,0,,0,46,46,306,1,holol,,,,
,,,,,,5fd1ddefbdcc381f5ace15d4,676192165fb32c2e1fb7aee6,67d1e7fc38f520190175ebe9,2025-03-12_21h01.12.945,Tarea de decisión léxica,2024.2.5,MacIntel,119.047619,,,,,,,,,,,,,,,,,,,,,,,,203.7433,204.7264,l,1,0.3188,1,204.7265,205.2269,,,,,,431,MAS,WORD,DIS,150,motor,,la,,0.3188,,205.227,205.2272,-0.114934172,-0.302155671,0,0,0,,0,47,47,430,1,tetor,,,,
,,,,,,5fd1ddefbdcc381f5ace15d4,676192165fb32c2e1fb7aee6,67d1e7fc38f520190175ebe9,2025-03-12_21h01.12.945,Tarea de decisión léxica,2024.2.5,MacIntel,119.047619,,,,,,,,,,,,,,,,,,,,,,,,205.2287,206.5014,a,1,0.6101,1,206.5015,207.0024,,,,,,450,FEM,NOWORD,DIS,150,crusa,,el,,0.6101,,207.0025,207.0026,-0.114934172,-0.302155671,0,0,0,,0,48,48,449,1,pluma,,,,
,,,,,,5fd1ddefbdcc381f5ace15d4,676192165fb32c2e1fb7aee6,67d1e7fc38f520190175ebe9,2025-03-12_21h01.12.945,Tarea de decisión léxica,2024.2.5,MacIntel,119.047619,,,,,,,,,,,,,,,,,,,,,,,,207.0044,208.043,a,1,0.3738,1,208.0431,208.543,,,,,,50,FEM,NOWORD,DIS,150,ecat,,el,,0.3738,,208.543,208.5431,-0.114934172,-0.302155671,0,0,0,,0,49,49,49,1,edad,,,,
,,,,,,5fd1ddefbdcc381f5ace15d4,676192165fb32c2e1fb7aee6,67d1e7fc38f520190175ebe9,2025-03-12_21h01.12.945,Tarea de decisión léxica,2024.2.5,MacIntel,119.047619,,,,,,,,,,,,,,,,,,,,,,,,208.5441,209.7012,l,1,0.4921,1,209.7013,210.2014,,,,,,175,FEM,WORD,AGR,150,goma,,la,,0.4921,,210.2022,210.2029,-0.114934172,-0.302155671,0,0,0,,0,50,50,174,1,hosa,,,,
,,,,,,5fd1ddefbdcc381f5ace15d4,676192165fb32c2e1fb7aee6,67d1e7fc38f520190175ebe9,2025-03-12_21h01.12.945,Tarea de decisión léxica,2024.2.5,MacIntel,119.047619,,,,,,,,,,,,,,,,,,,,,,,,210.2036,211.3515,l,1,0.4853,1,211.3516,211.8518,,,,,,415,FEM,WORD,DIS,150,jaula,,el,,0.4853,,211.8519,211.852,-0.114934172,-0.302155671,0,0,0,,0,51,51,414,1,juira,,,,
,,,,,,5fd1ddefbdcc381f5ace15d4,676192165fb32c2e1fb7aee6,67d1e7fc38f520190175ebe9,2025-03-12_21h01.12.945,Tarea de decisión léxica,2024.2.5,MacIntel,119.047619,,,,,,,,,,,,,,,,,,,,,,,,211.8535,212.9847,l,0,0.4658,0,212.9857,213.4853,,,,,,422,MAS,NOWORD,DIS,150,griso,,la,,0.4658,,213.4856,213.4858,-0.114934172,-0.302155671,0,0,0,,0,52,52,421,1,primo,,,,
,,,,,,5fd1ddefbdcc381f5ace15d4,676192165fb32c2e1fb7aee6,67d1e7fc38f520190175ebe9,2025-03-12_21h01.12.945,Tarea de decisión léxica,2024.2.5,MacIntel,119.047619,,,,,,,,,,,,,,,,,,,,,,,,213.4878,214.5269,a,1,0.3746,1,214.5286,215.0256,,,,,,166,FEM,NOWORD,DIS,150,dera,,el,,0.3746,,215.0257,215.0257,-0.114934172,-0.302155671,0,0,0,,0,53,53,165,1,vela,,,,
,,,,,,5fd1ddefbdcc381f5ace15d4,676192165fb32c2e1fb7aee6,67d1e7fc38f520190175ebe9,2025-03-12_21h01.12.945,Tarea de decisión léxica,2024.2.5,MacIntel,119.047619,,,,,,,,,,,,,,,,,,,,,,,,215.0264,216.1925,l,1,0.5071,1,216.1925,216.6931,,,,,,55,MAS,WORD,DIS,150,gato,,la,,0.5071,,216.6931,216.6932,-0.114934172,-0.302155671,0,0,0,,0,54,54,54,1,jado,,,,
,,,,,,5fd1ddefbdcc381f5ace15d4,676192165fb32c2e1fb7aee6,67d1e7fc38f520190175ebe9,2025-03-12_21h01.12.945,Tarea de decisión léxica,2024.2.5,MacIntel,119.047619,,,,,,,,,,,,,,,,,,,,,,,,216.6945,217.8177,a,1,0.4633,1,217.8178,218.3186,,,,,,172,MAS,NOWORD,AGR,150,niro,,el,,0.4633,,218.3201,218.3211,-0.114934172,-0.302155671,0,0,0,,0,55,55,171,1,hilo,,,,
,,,,,,5fd1ddefbdcc381f5ace15d4,676192165fb32c2e1fb7aee6,67d1e7fc38f520190175ebe9,2025-03-12_21h01.12.945,Tarea de decisión léxica,2024.2.5,MacIntel,119.047619,,,,,,,,,,,,,,,,,,,,,,,,218.3223,219.4675,a,1,0.4832,1,219.4677,219.9687,,,,,,86,MAS,NOWORD,DIS,150,babo,,la,,0.4832,,219.9689,219.969,-0.114934172,-0.302155671,0,0,0,,0,56,56,85,1,lago,,,,
,,,,,,5fd1ddefbdcc381f5ace15d4,676192165fb32c2e1fb7aee6,67d1e7fc38f520190175ebe9,2025-03-12_21h01.12.945,Tarea de decisión léxica,2024.2.5,MacIntel,119.047619,,,,,,,,,,,,,,,,,,,,,,,,219.971,221.1098,a,1,0.4737,1,221.1099,221.6101,,,,,,280,FEM,NOWORD,AGR,150,grina,,la,,0.4737,,221.6102,221.6103,-0.114934172,-0.302155671,0,0,0,,0,57,57,279,1,prisa,,,,
,,,,,,5fd1ddefbdcc381f5ace15d4,676192165fb32c2e1fb7aee6,67d1e7fc38f520190175ebe9,2025-03-12_21h01.12.945,Tarea de decisión léxica,2024.2.5,MacIntel,119.047619,,,,,,,,,,,,,,,,,,,,,,,,221.6116,222.6683,l,1,0.3939,1,222.6685,223.1685,,,,,,173,FEM,WORD,DIS,150,rosa,,el,,0.3939,,223.1686,223.1687,-0.114934172,-0.302155671,0,0,0,,0,58,58,172,1,boma,,,,
,,,,,,5fd1ddefbdcc381f5ace15d4,676192165fb32c2e1fb7aee6,67d1e7fc38f520190175ebe9,2025-03-12_21h01.12.945,Tarea de decisión léxica,2024.2.5,MacIntel,119.047619,,,,,,,,,,,,,,,,,,,,,,,,223.1703,224.3346,a,1,0.5031,1,224.3348,224.8353,,,,,,448,MAS,NOWORD,AGR,150,buaso,,el,,0.5031,,224.8367,224.8379,-0.114934172,-0.302155671,0,0,0,,0,59,59,447,1,bolso,,,,
,,,,,,5fd1ddefbdcc381f5ace15d4,676192165fb32c2e1fb7aee6,67d1e7fc38f520190175ebe9,2025-03-12_21h01.12.945,Tarea de decisión léxica,2024.2.5,MacIntel,119.047619,,,,,,,,,,,,,,,,,,,,,,,,224.8391,226.1015,a,1,0.6043,1,226.1017,226.6015,,,,,,256,MAS,NOWORD,AGR,150,mauco,,el,,0.6043,,226.6017,226.6017,-0.114934172,-0.302155671,0,0,0,,0,60,60,255,1,miedo,,,,
,,,,,,5fd1ddefbdcc381f5ace15d4,676192165fb32c2e1fb7aee6,67d1e7fc38f520190175ebe9,2025-03-12_21h01.12.945,Tarea de decisión léxica,2024.2.5,MacIntel,119.047619,,,,,,,,,,,,,,,,,,,,,,,,226.6026,227.9349,a,1,0.6731,1,227.9349,228.4353,,,,,,170,MAS,NOWORD,DIS,150,mibo,,la,,0.6731,,228.4355,228.4357,-0.114934172,-0.302155671,0,0,0,,0,61,61,169,1,cubo,,,,
,,,,,,5fd1ddefbdcc381f5ace15d4,676192165fb32c2e1fb7aee6,67d1e7fc38f520190175ebe9,2025-03-12_21h01.12.945,Tarea de decisión léxica,2024.2.5,MacIntel,119.047619,,,,,,,,,,,,,,,,,,,,,,,,228.4374,229.5423,l,1,0.4437,1,229.5425,230.0428,,,,,,309,FEM,WORD,AGR,150,silla,,la,,0.4437,,230.0429,230.043,-0.114934172,-0.302155671,0,0,0,,0,62,62,308,1,tirra,,,,
,,,,,,5fd1ddefbdcc381f5ace15d4,676192165fb32c2e1fb7aee6,67d1e7fc38f520190175ebe9,2025-03-12_21h01.12.945,Tarea de decisión léxica,2024.2.5,MacIntel,119.047619,,,,,,,,,,,,,,,,,,,,,,,,230.0446,231.0183,l,1,0.3139,1,231.0186,231.5181,,,,,,457,MAS,WORD,AGR,150,plato,,el,,0.3139,,231.5182,231.5183,-0.114934172,-0.302155671,0,0,0,,0,63,63,456,1,glaco,,,,
,,,,,,5fd1ddefbdcc381f5ace15d4,676192165fb32c2e1fb7aee6,67d1e7fc38f520190175ebe9,2025-03-12_21h01.12.945,Tarea de decisión léxica,2024.2.5,MacIntel,119.047619,,,,,,,,,,,,,,,,,,,,,,,,231.5192,232.6183,l,1,0.4342,1,232.6184,233.1181,,,,,,47,MAS,WORD,AGR,150,club,,el,,0.4342,,233.1197,233.1207,-0.114934172,-0.302155671,0,0,0,,0,64,64,46,1,chub,,,,
,,,,,,5fd1ddefbdcc381f5ace15d4,676192165fb32c2e1fb7aee6,67d1e7fc38f520190175ebe9,2025-03-12_21h01.12.945,Tarea de decisión léxica,2024.2.5,MacIntel,119.047619,,,,,,,,,,,,,,,,,,,,,,,,233.1216,234.1604,l,1,0.3718,1,234.1605,234.6603,,,,,,207,MAS,WORD,AGR,150,kilo,,el,,0.3718,,234.6604,234.6605,-0.114934172,-0.302155671,0,0,0,,0,65,65,206,1,kedo,,,,
,,,,,,5fd1ddefbdcc381f5ace15d4,676192165fb32c2e1fb7aee6,67d1e7fc38f520190175ebe9,2025-03-12_21h01.12.945,Tarea de decisión léxica,2024.2.5,MacIntel,119.047619,,,,,,,,,,,,,,,,,,,,,,,,234.6617,235.6347,l,1,0.309,1,235.6347,236.1353,,,,,,369,MAS,WORD,AGR,150,ruido,,el,,0.309,,236.1354,236.1356,-0.114934172,-0.302155671,0,0,0,,0,66,66,368,1,rioco,,,,
,,,,,,5fd1ddefbdcc381f5ace15d4,676192165fb32c2e1fb7aee6,67d1e7fc38f520190175ebe9,2025-03-12_21h01.12.945,Tarea de decisión léxica,2024.2.5,MacIntel,119.047619,,,,,,,,,,,,,,,,,,,,,,,,236.1371,237.1516,l,1,0.3519,1,237.1517,237.6517,,,,,,189,MAS,WORD,DIS,150,puño,,la,,0.3519,,237.6517,237.6519,-0.114934172,-0.302155671,0,0,0,,0,67,67,188,1,muvo,,,,
,,,,,,5fd1ddefbdcc381f5ace15d4,676192165fb32c2e1fb7aee6,67d1e7fc38f520190175ebe9,2025-03-12_21h01.12.945,Tarea de decisión léxica,2024.2.5,MacIntel,119.047619,,,,,,,,,,,,,,,,,,,,,,,,237.6534,238.7765,l,1,0.4582,1,238.7765,239.277,,,,,,161,MAS,WORD,AGR,150,coro,,el,,0.4582,,239.2772,239.2773,-0.114934172,-0.302155671,0,0,0,,0,68,68,160,1,bopo,,,,
,,,,,,5fd1ddefbdcc381f5ace15d4,676192165fb32c2e1fb7aee6,67d1e7fc38f520190175ebe9,2025-03-12_21h01.12.945,Tarea de decisión léxica,2024.2.5,MacIntel,119.047619,,,,,,,,,,,,,,,,,,,,,,,,239.2789,240.2934,l,1,0.3534,1,240.2936,240.7933,,,,,,419,MAS,WORD,AGR,150,truco,,el,,0.3534,,240.7947,240.7958,-0.114934172,-0.302155671,0,0,0,,0,69,69,418,1,chudo,,,,
,,,,,,5fd1ddefbdcc381f5ace15d4,676192165fb32c2e1fb7aee6,67d1e7fc38f520190175ebe9,2025-03-12_21h01.12.945,Tarea de decisión léxica,2024.2.5,MacIntel,119.047619,,,,,,,,,,,,,,,,,,,,,,,,240.7967,241.8515,a,1,0.3915,1,241.8517,242.3517,,,,,,286,MAS,NOWORD,DIS,150,echor,,la,,0.3915,,242.3517,242.3518,-0.114934172,-0.302155671,0,0,0,,0,70,70,285,1,error,,,,
,,,,,,5fd1ddefbdcc381f5ace15d4,676192165fb32c2e1fb7aee6,67d1e7fc38f520190175ebe9,2025-03-12_21h01.12.945,Tarea de decisión léxica,2024.2.5,MacIntel,119.047619,,,,,,,,,,,,,,,,,,,,,,,,242.3529,243.5101,l,1,0.4916,1,243.5103,244.0103,,,,,,63,FEM,WORD,AGR,150,luna,,la,,0.4916,,244.0104,244.0106,-0.114934172,-0.302155671,0,0,0,,0,71,71,62,1,funa,,,,
,,,,,,5fd1ddefbdcc381f5ace15d4,676192165fb32c2e1fb7aee6,67d1e7fc38f520190175ebe9,2025-03-12_21h01.12.945,Tarea de decisión léxica,2024.2.5,MacIntel,119.047619,,,,,,,,,,,,,,,,,,,,,,,,244.0123,245.1017,l,1,0.4239,1,245.1018,245.6019,,,,,,33,FEM,WORD,DIS,150,boca,,el,,0.4239,,245.6021,245.6022,-0.114934172,-0.302155671,0,0,0,,0,72,72,32,1,loda,,,,
,,,,,,5fd1ddefbdcc381f5ace15d4,676192165fb32c2e1fb7aee6,67d1e7fc38f520190175ebe9,2025-03-12_21h01.12.945,Tarea de decisión léxica,2024.2.5,MacIntel,119.047619,,,,,,,,,,,,,,,,,,,,,,,,245.6037,246.6183,l,1,0.3494,1,246.6184,247.1186,,,,,,119,MAS,WORD,DIS,150,pozo,,la,,0.3494,,247.1187,247.1189,-0.114934172,-0.302155671,0,0,0,,0,73,73,118,1,hooy,,,,
,,,,,,5fd1ddefbdcc381f5ace15d4,676192165fb32c2e1fb7aee6,67d1e7fc38f520190175ebe9,2025-03-12_21h01.12.945,Tarea de decisión léxica,2024.2.5,MacIntel,119.047619,,,,,,,,,,,,,,,,,,,,,,,,247.1209,248.135,a,1,0.3491,1,248.1351,248.636,,,,,,42,FEM,NOWORD,DIS,150,haje,,el,,0.3491,,248.6379,248.6393,-0.114934172,-0.302155671,0,0,0,,0,74,74,41,1,nave,,,,
,,,,,,5fd1ddefbdcc381f5ace15d4,676192165fb32c2e1fb7aee6,67d1e7fc38f520190175ebe9,2025-03-12_21h01.12.945,Tarea de decisión léxica,2024.2.5,MacIntel,119.047619,,,,,,,,,,,,,,,,,,,,,,,,248.6404,249.6183,l,1,0.3167,1,249.6184,250.1181,,,,,,321,MAS,WORD,DIS,150,banco,,la,,0.3167,,250.1182,250.1184,-0.114934172,-0.302155671,0,0,0,,0,75,75,320,1,rarco,,,,
,,,,,,5fd1ddefbdcc381f5ace15d4,676192165fb32c2e1fb7aee6,67d1e7fc38f520190175ebe9,2025-03-12_21h01.12.945,Tarea de decisión léxica,2024.2.5,MacIntel,119.047619,,,,,,,,,,,,,,,,,,,,,,,,250.1203,251.268,a,1,0.4824,1,251.2681,251.7683,,,,,,282,MAS,NOWORD,DIS,150,cauro,,la,,0.4824,,251.7683,251.7684,-0.114934172,-0.302155671,0,0,0,,0,76,76,281,1,cielo,,,,
,,,,,,5fd1ddefbdcc381f5ace15d4,676192165fb32c2e1fb7aee6,67d1e7fc38f520190175ebe9,2025-03-12_21h01.12.945,Tarea de decisión léxica,2024.2.5,MacIntel,119.047619,,,,,,,,,,,,,,,,,,,,,,,,251.7693,252.8268,l,0,0.3938,0,252.8277,253.3266,,,,,,140,MAS,NOWORD,AGR,150,nila,,el,,0.3938,,253.3266,253.3269,-0.114934172,-0.302155671,0,0,0,,0,77,77,139,1,mago,,,,
,,,,,,5fd1ddefbdcc381f5ace15d4,676192165fb32c2e1fb7aee6,67d1e7fc38f520190175ebe9,2025-03-12_21h01.12.945,Tarea de decisión léxica,2024.2.5,MacIntel,119.047619,,,,,,,,,,,,,,,,,,,,,,,,253.3283,254.4101,a,1,0.4167,1,254.411,254.9102,,,,,,442,FEM,NOWORD,DIS,150,telza,,el,,0.4167,,254.9103,254.9104,-0.114934172,-0.302155671,0,0,0,,0,78,78,441,1,selva,,,,
,,,,,,5fd1ddefbdcc381f5ace15d4,676192165fb32c2e1fb7aee6,67d1e7fc38f520190175ebe9,2025-03-12_21h01.12.945,Tarea de decisión léxica,2024.2.5,MacIntel,119.047619,,,,,,,,,,,,,,,,,,,,,,,,254.9121,255.96,l,1,0.3871,1,255.9601,256.4605,,,,,,353,FEM,WORD,AGR,150,celda,,la,,0.3871,,256.462,256.463,-0.114934172,-0.302155671,0,0,0,,0,79,79,352,1,cezca,,,,
,,,,,,5fd1ddefbdcc381f5ace15d4,676192165fb32c2e1fb7aee6,67d1e7fc38f520190175ebe9,2025-03-12_21h01.12.945,Tarea de decisión léxica,2024.2.5,MacIntel,119.047619,,,,,,,,,,,,,,,,,,,,,,,,256.4638,257.453,l,1,0.3305,1,257.4531,257.9517,,,,,,11,MAS,WORD,AGR,150,lado,,el,,0.3305,,257.9517,257.9518,-0.114934172,-0.302155671,0,0,0,,0,80,80,10,1,bapo,,,,
,,,,,,5fd1ddefbdcc381f5ace15d4,676192165fb32c2e1fb7aee6,67d1e7fc38f520190175ebe9,2025-03-12_21h01.12.945,Tarea de decisión léxica,2024.2.5,MacIntel,119.047619,,,,,,,,,,,,,,,,,,,,,,,,257.9528,258.9348,l,1,0.3145,1,258.9349,259.4358,,,,,,51,FEM,WORD,AGR,150,caja,,la,,0.3145,,259.4361,259.4362,-0.114934172,-0.302155671,0,0,0,,0,81,81,50,1,mava,,,,
,,,,,,5fd1ddefbdcc381f5ace15d4,676192165fb32c2e1fb7aee6,67d1e7fc38f520190175ebe9,2025-03-12_21h01.12.945,Tarea de decisión léxica,2024.2.5,MacIntel,119.047619,,,,,,,,,,,,,,,,,,,,,,,,259.438,260.5687,a,1,0.4654,1,260.5689,261.0685,,,,,,322,MAS,NOWORD,DIS,150,rarco,,la,,0.4654,,261.0687,261.0689,-0.114934172,-0.302155671,0,0,0,,0,82,82,321,1,banco,,,,
,,,,,,5fd1ddefbdcc381f5ace15d4,676192165fb32c2e1fb7aee6,67d1e7fc38f520190175ebe9,2025-03-12_21h01.12.945,Tarea de decisión léxica,2024.2.5,MacIntel,119.047619,,,,,,,,,,,,,,,,,,,,,,,,261.0709,262.1104,l,1,0.3791,1,262.1106,262.6101,,,,,,399,MAS,WORD,AGR,150,techo,,el,,0.3791,,262.611,262.6117,-0.114934172,-0.302155671,0,0,0,,0,83,83,398,1,serro,,,,
,,,,,,5fd1ddefbdcc381f5ace15d4,676192165fb32c2e1fb7aee6,67d1e7fc38f520190175ebe9,2025-03-12_21h01.12.945,Tarea de decisión léxica,2024.2.5,MacIntel,119.047619,,,,,,,,,,,,,,,,,,,,,,,,262.6123,263.6844,a,1,0.4076,1,263.6845,264.1854,,,,,,242,MAS,NOWORD,DIS,150,mirdo,,la,,0.4076,,264.1855,264.1858,-0.114934172,-0.302155671,0,0,0,,0,84,84,241,1,mundo,,,,
,,,,,,5fd1ddefbdcc381f5ace15d4,676192165fb32c2e1fb7aee6,67d1e7fc38f520190175ebe9,2025-03-12_21h01.12.945,Tarea de decisión léxica,2024.2.5,MacIntel,119.047619,,,,,,,,,,,,,,,,,,,,,,,,264.188,265.1929,l,1,0.3413,1,265.193,265.6936,,,,,,159,MAS,WORD,DIS,150,giro,,la,,0.3413,,265.6937,265.6938,-0.114934172,-0.302155671,0,0,0,,0,85,85,158,1,bilo,,,,
,,,,,,5fd1ddefbdcc381f5ace15d4,676192165fb32c2e1fb7aee6,67d1e7fc38f520190175ebe9,2025-03-12_21h01.12.945,Tarea de decisión léxica,2024.2.5,MacIntel,119.047619,,,,,,,,,,,,,,,,,,,,,,,,265.6947,267.0176,a,1,0.658,1,267.0178,267.519,,,,,,336,FEM,NOWORD,AGR,150,pesta,,la,,0.658,,267.519,267.5191,-0.114934172,-0.302155671,0,0,0,,0,86,86,335,1,costa,,,,
,,,,,,5fd1ddefbdcc381f5ace15d4,676192165fb32c2e1fb7aee6,67d1e7fc38f520190175ebe9,2025-03-12_21h01.12.945,Tarea de decisión léxica,2024.2.5,MacIntel,119.047619,,,,,,,,,,,,,,,,,,,,,,,,267.5208,268.7104,a,1,0.5294,1,268.7105,269.2105,,,,,,404,FEM,NOWORD,AGR,150,grisa,,la,,0.5294,,269.2107,269.2108,-0.114934172,-0.302155671,0,0,0,,0,87,87,403,1,prima,,,,
,,,,,,5fd1ddefbdcc381f5ace15d4,676192165fb32c2e1fb7aee6,67d1e7fc38f520190175ebe9,2025-03-12_21h01.12.945,Tarea de decisión léxica,2024.2.5,MacIntel,119.047619,,,,,,,,,,,,,,,,,,,,,,,,269.2126,270.2269,l,1,0.3504,1,270.227,270.7273,,,,,,145,MAS,WORD,AGR,150,león,,el,,0.3504,,270.729,270.7302,-0.114934172,-0.302155671,0,0,0,,0,88,88,144,1,nobo,,,,
,,,,,,5fd1ddefbdcc381f5ace15d4,676192165fb32c2e1fb7aee6,67d1e7fc38f520190175ebe9,2025-03-12_21h01.12.945,Tarea de decisión léxica,2024.2.5,MacIntel,119.047619,,,,,,,,,,,,,,,,,,,,,,,,270.7313,271.8114,a,1,0.4232,1,271.8116,272.3099,,,,,,444,MAS,NOWORD,AGR,150,taron,,el,,0.4232,,272.3099,272.31,-0.114934172,-0.302155671,0,0,0,,0,89,89,443,1,salón,,,,
,,,,,,5fd1ddefbdcc381f5ace15d4,676192165fb32c2e1fb7aee6,67d1e7fc38f520190175ebe9,2025-03-12_21h01.12.945,Tarea de decisión léxica,2024.2.5,MacIntel,119.047619,,,,,,,,,,,,,,,,,,,,,,,,272.3107,273.4266,a,1,0.4516,1,273.4268,273.9271,,,,,,388,FEM,NOWORD,AGR,150,bresa,,la,,0.4516,,273.9271,273.9273,-0.114934172,-0.302155671,0,0,0,,0,90,90,387,1,crema,,,,
,,,,,,5fd1ddefbdcc381f5ace15d4,676192165fb32c2e1fb7aee6,67d1e7fc38f520190175ebe9,2025-03-12_21h01.12.945,Tarea de decisión léxica,2024.2.5,MacIntel,119.047619,,,,,,,,,,,,,,,,,,,,,,,,273.9291,275.1529,a,0,0.5637,0,275.1543,275.652,,,,,,177,MAS,WORD,DIS,150,reto,,la,,0.5637,,275.6522,275.6523,-0.114934172,-0.302155671,0,0,0,,0,91,91,176,1,bito,,,,
,,,,,,5fd1ddefbdcc381f5ace15d4,676192165fb32c2e1fb7aee6,67d1e7fc38f520190175ebe9,2025-03-12_21h01.12.945,Tarea de decisión léxica,2024.2.5,MacIntel,119.047619,,,,,,,,,,,,,,,,,,,,,,,,275.6536,276.8613,a,1,0.5455,1,276.8625,277.3607,,,,,,320,MAS,NOWORD,AGR,150,tuero,,el,,0.5455,,277.3608,277.3609,-0.114934172,-0.302155671,0,0,0,,0,92,92,319,1,suelo,,,,
,,,,,,5fd1ddefbdcc381f5ace15d4,676192165fb32c2e1fb7aee6,67d1e7fc38f520190175ebe9,2025-03-12_21h01.12.945,Tarea de decisión léxica,2024.2.5,MacIntel,119.047619,,,,,,,,,,,,,,,,,,,,,,,,277.3625,278.56,a,1,0.5312,1,278.5601,279.0601,,,,,,158,MAS,NOWORD,DIS,150,hico,,la,,0.5312,,279.0611,279.0617,-0.114934172,-0.302155671,0,0,0,,0,93,93,157,1,nido,,,,
,,,,,,5fd1ddefbdcc381f5ace15d4,676192165fb32c2e1fb7aee6,67d1e7fc38f520190175ebe9,2025-03-12_21h01.12.945,Tarea de decisión léxica,2024.2.5,MacIntel,119.047619,,,,,,,,,,,,,,,,,,,,,,,,279.0623,280.2519,a,1,0.5244,1,280.252,280.7521,,,,,,332,MAS,NOWORD,AGR,150,erato,,el,,0.5244,,280.7523,280.7524,-0.114934172,-0.302155671,0,0,0,,0,94,94,331,1,éxito,,,,
,,,,,,5fd1ddefbdcc381f5ace15d4,676192165fb32c2e1fb7aee6,67d1e7fc38f520190175ebe9,2025-03-12_21h01.12.945,Tarea de decisión léxica,2024.2.5,MacIntel,119.047619,,,,,,,,,,,,,,,,,,,,,,,,280.7537,281.918,a,1,0.5004,1,281.9182,282.4197,,,,,,230,MAS,NOWORD,DIS,150,ador,,la,,0.5004,,282.4198,282.4199,-0.114934172,-0.302155671,0,0,0,,0,95,95,229,1,amor,,,,
,,,,,,5fd1ddefbdcc381f5ace15d4,676192165fb32c2e1fb7aee6,67d1e7fc38f520190175ebe9,2025-03-12_21h01.12.945,Tarea de decisión léxica,2024.2.5,MacIntel,119.047619,,,,,,,,,,,,,,,,,,,,,,,,282.422,283.3929,l,1,0.3109,1,283.3931,283.8928,,,,,,249,FEM,WORD,AGR,150,clase,,la,,0.3109,,283.8929,283.8931,-0.114934172,-0.302155671,0,0,0,,0,96,96,248,1,plane,,,,
,,,,,,5fd1ddefbdcc381f5ace15d4,676192165fb32c2e1fb7aee6,67d1e7fc38f520190175ebe9,2025-03-12_21h01.12.945,Tarea de decisión léxica,2024.2.5,MacIntel,119.047619,,,,,,,,,,,,,,,,,,,,,,,,283.8946,284.8769,l,1,0.3245,1,284.877,285.3773,,,,,,359,MAS,WORD,AGR,150,calor,,el,,0.3245,,285.3774,285.3776,-0.114934172,-0.302155671,0,0,0,,0,97,97,358,1,cacer,,,,
,,,,,,5fd1ddefbdcc381f5ace15d4,676192165fb32c2e1fb7aee6,67d1e7fc38f520190175ebe9,2025-03-12_21h01.12.945,Tarea de decisión léxica,2024.2.5,MacIntel,119.047619,,,,,,,,,,,,,,,,,,,,,,,,285.3791,286.4015,a,1,0.3605,1,286.4016,286.9021,,,,,,252,MAS,NOWORD,AGR,150,refor,,el,,0.3605,,286.9035,286.9045,-0.114934172,-0.302155671,0,0,0,,0,98,98,251,1,señor,,,,
,,,,,,5fd1ddefbdcc381f5ace15d4,676192165fb32c2e1fb7aee6,67d1e7fc38f520190175ebe9,2025-03-12_21h01.12.945,Tarea de decisión léxica,2024.2.5,MacIntel,119.047619,,,,,,,,,,,,,,,,,,,,,,,,286.9054,287.8769,a,0,0.3079,0,287.8778,288.3772,,,,,,425,FEM,WORD,DIS,150,viuda,,el,,0.3079,,288.3774,288.3775,-0.114934172,-0.302155671,0,0,0,,0,99,99,424,1,virca,,,,
,,,,,,5fd1ddefbdcc381f5ace15d4,676192165fb32c2e1fb7aee6,67d1e7fc38f520190175ebe9,2025-03-12_21h01.12.945,Tarea de decisión léxica,2024.2.5,MacIntel,119.047619,,,,,,,,,,,,,,,,,,,,,,,,288.3794,289.5434,a,1,0.5011,1,289.5441,290.043,,,,,,352,MAS,NOWORD,AGR,150,duepo,,el,,0.5011,,290.0431,290.0434,-0.114934172,-0.302155671,0,0,0,,0,100,100,351,1,vuelo,,,,
,,,,,,5fd1ddefbdcc381f5ace15d4,676192165fb32c2e1fb7aee6,67d1e7fc38f520190175ebe9,2025-03-12_21h01.12.945,Tarea de decisión léxica,2024.2.5,MacIntel,119.047619,,,,,,,,,,,,,,,,,,,,,,,,290.0453,291.0602,l,1,0.3542,1,291.0603,291.5604,,,,,,261,MAS,WORD,AGR,150,sitio,,el,,0.3542,,291.5605,291.5607,-0.114934172,-0.302155671,0,0,0,,0,101,101,260,1,titio,,,,
,,,,,,5fd1ddefbdcc381f5ace15d4,676192165fb32c2e1fb7aee6,67d1e7fc38f520190175ebe9,2025-03-12_21h01.12.945,Tarea de decisión léxica,2024.2.5,MacIntel,119.047619,,,,,,,,,,,,,,,,,,,,,,,,291.563,292.6783,a,1,0.4556,1,292.6784,293.1768,,,,,,198,MAS,NOWORD,DIS,150,dade,,la,,0.4556,,293.1768,293.177,-0.114934172,-0.302155671,0,0,0,,0,102,102,197,1,bate,,,,
,,,,,,5fd1ddefbdcc381f5ace15d4,676192165fb32c2e1fb7aee6,67d1e7fc38f520190175ebe9,2025-03-12_21h01.12.945,Tarea de decisión léxica,2024.2.5,MacIntel,119.047619,,,,,,,,,,,,,,,,,,,,,,,,293.178,294.2857,a,1,0.4442,1,294.2858,294.7856,,,,,,334,FEM,NOWORD,DIS,150,dalea,,el,,0.4442,,294.787,294.7881,-0.114934172,-0.302155671,0,0,0,,0,103,103,333,1,tarea,,,,
,,,,,,5fd1ddefbdcc381f5ace15d4,676192165fb32c2e1fb7aee6,67d1e7fc38f520190175ebe9,2025-03-12_21h01.12.945,Tarea de decisión léxica,2024.2.5,MacIntel,119.047619,,,,,,,,,,,,,,,,,,,,,,,,294.7895,295.8011,l,1,0.3501,1,295.8012,296.302,,,,,,341,MAS,WORD,DIS,150,valor,,la,,0.3501,,296.302,296.3021,-0.114934172,-0.302155671,0,0,0,,0,104,104,340,1,daror,,,,
,,,,,,5fd1ddefbdcc381f5ace15d4,676192165fb32c2e1fb7aee6,67d1e7fc38f520190175ebe9,2025-03-12_21h01.12.945,Tarea de decisión léxica,2024.2.5,MacIntel,119.047619,,,,,,,,,,,,,,,,,,,,,,,,296.303,297.2684,a,1,0.3038,1,297.2685,297.7681,,,,,,130,MAS,NOWORD,DIS,150,pima,,la,,0.3038,,297.7683,297.7685,-0.114934172,-0.302155671,0,0,0,,0,105,105,129,1,oído,,,,
,,,,,,5fd1ddefbdcc381f5ace15d4,676192165fb32c2e1fb7aee6,67d1e7fc38f520190175ebe9,2025-03-12_21h01.12.945,Tarea de decisión léxica,2024.2.5,MacIntel,119.047619,,,,,,,,,,,,,,,,,,,,,,,,297.7699,298.8684,a,1,0.4375,1,298.8685,299.3689,,,,,,356,FEM,NOWORD,AGR,150,bepla,,la,,0.4375,,299.369,299.3691,-0.114934172,-0.302155671,0,0,0,,0,106,106,355,1,regla,,,,
,,,,,,5fd1ddefbdcc381f5ace15d4,676192165fb32c2e1fb7aee6,67d1e7fc38f520190175ebe9,2025-03-12_21h01.12.945,Tarea de decisión léxica,2024.2.5,MacIntel,119.047619,,,,,,,,,,,,,,,,,,,,,,,,299.3705,300.4186,l,1,0.3859,1,300.4187,300.9177,,,,,,81,FEM,WORD,DIS,150,dama,,el,,0.3859,,300.9187,300.9193,-0.114934172,-0.302155671,0,0,0,,0,107,107,80,1,vasa,,,,
,,,,,,5fd1ddefbdcc381f5ace15d4,676192165fb32c2e1fb7aee6,67d1e7fc38f520190175ebe9,2025-03-12_21h01.12.945,Tarea de decisión léxica,2024.2.5,MacIntel,119.047619,,,,,,,,,,,,,,,,,,,,,,,,300.9199,302.027,a,0,0.4444,0,302.0278,302.5267,,,,,,197,MAS,WORD,AGR,150,bate,,el,,0.4444,,302.5268,302.5269,-0.114934172,-0.302155671,0,0,0,,0,108,108,196,1,dade,,,,
,,,,,,5fd1ddefbdcc381f5ace15d4,676192165fb32c2e1fb7aee6,67d1e7fc38f520190175ebe9,2025-03-12_21h01.12.945,Tarea de decisión léxica,2024.2.5,MacIntel,119.047619,,,,,,,,,,,,,,,,,,,,,,,,302.5281,303.6029,a,1,0.4117,1,303.6035,304.1017,,,,,,154,MAS,NOWORD,DIS,150,tado,,la,,0.4117,,304.1018,304.102,-0.114934172,-0.302155671,0,0,0,,0,109,109,153,1,pato,,,,
,,,,,,5fd1ddefbdcc381f5ace15d4,676192165fb32c2e1fb7aee6,67d1e7fc38f520190175ebe9,2025-03-12_21h01.12.945,Tarea de decisión léxica,2024.2.5,MacIntel,119.047619,,,,,,,,,,,,,,,,,,,,,,,,304.1034,305.3275,a,1,0.5618,1,305.3277,305.8279,,,,,,458,MAS,NOWORD,DIS,150,glaco,,la,,0.5618,,305.828,305.8282,-0.114934172,-0.302155671,0,0,0,,0,110,110,457,1,plato,,,,
,,,,,,5fd1ddefbdcc381f5ace15d4,676192165fb32c2e1fb7aee6,67d1e7fc38f520190175ebe9,2025-03-12_21h01.12.945,Tarea de decisión léxica,2024.2.5,MacIntel,119.047619,,,,,,,,,,,,,,,,,,,,,,,,305.8304,306.9763,a,1,0.4827,1,306.9763,307.4767,,,,,,88,MAS,NOWORD,AGR,150,damo,,el,,0.4827,,307.4768,307.4769,-0.114934172,-0.302155671,0,0,0,,0,111,111,87,1,vaso,,,,
,,,,,,5fd1ddefbdcc381f5ace15d4,676192165fb32c2e1fb7aee6,67d1e7fc38f520190175ebe9,2025-03-12_21h01.12.945,Tarea de decisión léxica,2024.2.5,MacIntel,119.047619,,,,,,,,,,,,,,,,,,,,,,,,307.4785,308.4604,l,1,0.3158,1,308.4606,308.9607,,,,,,445,MAS,WORD,DIS,150,actor,,la,,0.3158,,308.9624,308.9636,-0.114934172,-0.302155671,0,0,0,,0,112,112,444,1,ascor,,,,
,,,,,,5fd1ddefbdcc381f5ace15d4,676192165fb32c2e1fb7aee6,67d1e7fc38f520190175ebe9,2025-03-12_21h01.12.945,Tarea de decisión léxica,2024.2.5,MacIntel,119.047619,,,,,,,,,,,,,,,,,,,,,,,,308.965,310.0445,a,1,0.4199,1,310.0446,310.5439,,,,,,254,MAS,NOWORD,DIS,150,trido,,la,,0.4199,,310.5441,310.5442,-0.114934172,-0.302155671,0,0,0,,0,113,113,253,1,chico,,,,
,,,,,,5fd1ddefbdcc381f5ace15d4,676192165fb32c2e1fb7aee6,67d1e7fc38f520190175ebe9,2025-03-12_21h01.12.945,Tarea de decisión léxica,2024.2.5,MacIntel,119.047619,,,,,,,,,,,,,,,,,,,,,,,,310.5463,311.6018,l,1,0.3935,1,311.6019,312.1024,,,,,,357,FEM,WORD,AGR,150,bruja,,la,,0.3935,,312.1025,312.1026,-0.114934172,-0.302155671,0,0,0,,0,114,114,356,1,gruba,,,,
,,,,,,5fd1ddefbdcc381f5ace15d4,676192165fb32c2e1fb7aee6,67d1e7fc38f520190175ebe9,2025-03-12_21h01.12.945,Tarea de decisión léxica,2024.2.5,MacIntel,119.047619,,,,,,,,,,,,,,,,,,,,,,,,312.1042,313.177,a,1,0.41,1,313.1772,313.6769,,,,,,36,MAS,NOWORD,AGR,150,meno,,el,,0.41,,313.677,313.677,-0.114934172,-0.302155671,0,0,0,,0,115,115,35,1,pelo,,,,
,,,,,,5fd1ddefbdcc381f5ace15d4,676192165fb32c2e1fb7aee6,67d1e7fc38f520190175ebe9,2025-03-12_21h01.12.945,Tarea de decisión léxica,2024.2.5,MacIntel,119.047619,,,,,,,,,,,,,,,,,,,,,,,,313.6781,314.7269,a,0,0.3862,0,314.7276,315.226,,,,,,213,FEM,WORD,AGR,150,rama,,la,,0.3862,,315.226,315.2261,-0.114934172,-0.302155671,0,0,0,,0,116,116,212,1,bana,,,,
,,,,,,5fd1ddefbdcc381f5ace15d4,676192165fb32c2e1fb7aee6,67d1e7fc38f520190175ebe9,2025-03-12_21h01.12.945,Tarea de decisión léxica,2024.2.5,MacIntel,119.047619,,,,,,,,,,,,,,,,,,,,,,,,315.2271,316.4095,l,1,0.5244,1,316.4102,316.9105,,,,,,387,FEM,WORD,DIS,150,crema,,el,,0.5244,,316.9119,316.9132,-0.114934172,-0.302155671,0,0,0,,0,117,117,386,1,bresa,,,,
,,,,,,5fd1ddefbdcc381f5ace15d4,676192165fb32c2e1fb7aee6,67d1e7fc38f520190175ebe9,2025-03-12_21h01.12.945,Tarea de decisión léxica,2024.2.5,MacIntel,119.047619,,,,,,,,,,,,,,,,,,,,,,,,316.914,317.9264,l,1,0.3527,1,317.9265,318.4269,,,,,,393,FEM,WORD,AGR,150,aldea,,la,,0.3527,,318.427,318.4271,-0.114934172,-0.302155671,0,0,0,,0,118,118,392,1,ashea,,,,
,,,,,,5fd1ddefbdcc381f5ace15d4,676192165fb32c2e1fb7aee6,67d1e7fc38f520190175ebe9,2025-03-12_21h01.12.945,Tarea de decisión léxica,2024.2.5,MacIntel,119.047619,,,,,,,,,,,,,,,,,,,,,,,,318.4285,319.5021,a,1,0.4129,1,319.5024,320.0023,,,,,,106,FEM,NOWORD,DIS,150,vina,,el,,0.4129,,320.0024,320.0026,-0.114934172,-0.302155671,0,0,0,,0,119,119,105,1,sopa,,,,
,,,,,,5fd1ddefbdcc381f5ace15d4,676192165fb32c2e1fb7aee6,67d1e7fc38f520190175ebe9,2025-03-12_21h01.12.945,Tarea de decisión léxica,2024.2.5,MacIntel,119.047619,,,,,,,,,,,,,,,,,,,,,,,,320.0043,321.0936,a,1,0.4282,1,321.0936,321.5941,,,,,,314,MAS,NOWORD,DIS,150,govio,,la,,0.4282,,321.5942,321.5943,-0.114934172,-0.302155671,0,0,0,,0,120,120,313,1,novio,,,,
,,,,,,5fd1ddefbdcc381f5ace15d4,676192165fb32c2e1fb7aee6,67d1e7fc38f520190175ebe9,2025-03-12_21h01.12.945,Tarea de decisión léxica,2024.2.5,MacIntel,119.047619,,,,,,,,,,,,,,,,,,,,,,,,321.5961,322.7449,l,1,0.4844,1,322.745,323.2437,,,,,,237,MAS,WORD,AGR,150,nudo,,el,,0.4844,,323.2437,323.2438,-0.114934172,-0.302155671,0,0,0,,0,121,121,236,1,huco,,,,
,,,,,,5fd1ddefbdcc381f5ace15d4,676192165fb32c2e1fb7aee6,67d1e7fc38f520190175ebe9,2025-03-12_21h01.12.945,Tarea de decisión léxica,2024.2.5,MacIntel,119.047619,,,,,,,,,,,,,,,,,,,,,,,,323.2447,324.2937,a,1,0.3845,1,324.2938,324.7931,,,,,,150,MAS,NOWORD,DIS,150,pafo,,la,,0.3845,,324.7945,324.7957,-0.114934172,-0.302155671,0,0,0,,0,122,122,149,1,cabo,,,,
,,,,,,5fd1ddefbdcc381f5ace15d4,676192165fb32c2e1fb7aee6,67d1e7fc38f520190175ebe9,2025-03-12_21h01.12.945,Tarea de decisión léxica,2024.2.5,MacIntel,119.047619,,,,,,,,,,,,,,,,,,,,,,,,324.7966,325.7939,l,1,0.3344,1,325.7941,326.2936,,,,,,183,FEM,WORD,AGR,150,raya,,la,,0.3344,,326.2937,326.2939,-0.114934172,-0.302155671,0,0,0,,0,123,123,182,1,raad,,,,
,,,,,,5fd1ddefbdcc381f5ace15d4,676192165fb32c2e1fb7aee6,67d1e7fc38f520190175ebe9,2025-03-12_21h01.12.945,Tarea de decisión léxica,2024.2.5,MacIntel,119.047619,,,,,,,,,,,,,,,,,,,,,,,,326.2955,327.3105,l,1,0.3507,1,327.3107,327.8101,,,,,,107,MAS,WORD,DIS,150,saco,,la,,0.3507,,327.8101,327.8103,-0.114934172,-0.302155671,0,0,0,,0,124,124,106,1,raot,,,,
,,,,,,5fd1ddefbdcc381f5ace15d4,676192165fb32c2e1fb7aee6,67d1e7fc38f520190175ebe9,2025-03-12_21h01.12.945,Tarea de decisión léxica,2024.2.5,MacIntel,119.047619,,,,,,,,,,,,,,,,,,,,,,,,327.8106,328.777,l,1,0.3063,1,328.7771,329.2762,,,,,,251,MAS,WORD,AGR,150,señor,,el,,0.3063,,329.2762,329.2763,-0.114934172,-0.302155671,0,0,0,,0,125,125,250,1,refor,,,,
,,,,,,5fd1ddefbdcc381f5ace15d4,676192165fb32c2e1fb7aee6,67d1e7fc38f520190175ebe9,2025-03-12_21h01.12.945,Tarea de decisión léxica,2024.2.5,MacIntel,119.047619,,,,,,,,,,,,,,,,,,,,,,,,329.2773,330.3852,a,1,0.4518,1,330.3854,330.8855,,,,,,70,FEM,NOWORD,DIS,150,ñola,,el,,0.4518,,330.8856,330.8857,-0.114934172,-0.302155671,0,0,0,,0,126,126,69,1,zona,,,,
,,,,,,5fd1ddefbdcc381f5ace15d4,676192165fb32c2e1fb7aee6,67d1e7fc38f520190175ebe9,2025-03-12_21h01.12.945,Tarea de decisión léxica,2024.2.5,MacIntel,119.047619,,,,,,,,,,,,,,,,,,,,,,,,330.8873,332.0437,a,1,0.4958,1,332.0437,332.5437,,,,,,364,FEM,NOWORD,AGR,150,veida,,la,,0.4958,,332.5451,332.5464,-0.114934172,-0.302155671,0,0,0,,0,127,127,363,1,deuda,,,,
,,,,,,5fd1ddefbdcc381f5ace15d4,676192165fb32c2e1fb7aee6,67d1e7fc38f520190175ebe9,2025-03-12_21h01.12.945,Tarea de decisión léxica,2024.2.5,MacIntel,119.047619,,,,,,,,,,,,,,,,,,,,,,,,332.5475,333.7711,a,1,0.5648,1,333.7711,334.269,,,,,,200,MAS,NOWORD,AGR,150,fano,,el,,0.5648,,334.2691,334.2693,-0.114934172,-0.302155671,0,0,0,,0,128,128,199,1,lazo,,,,
,,,,,,5fd1ddefbdcc381f5ace15d4,676192165fb32c2e1fb7aee6,67d1e7fc38f520190175ebe9,2025-03-12_21h01.12.945,Tarea de decisión léxica,2024.2.5,MacIntel,119.047619,,,,,,,,,,,,,,,,,,,,,,,,334.271,335.3271,l,1,0.3912,1,335.3273,335.8279,,,,,,297,MAS,WORD,AGR,150,grupo,,el,,0.3912,,335.8279,335.8281,-0.114934172,-0.302155671,0,0,0,,0,129,129,296,1,brubo,,,,
,,,,,,5fd1ddefbdcc381f5ace15d4,676192165fb32c2e1fb7aee6,67d1e7fc38f520190175ebe9,2025-03-12_21h01.12.945,Tarea de decisión léxica,2024.2.5,MacIntel,119.047619,,,,,,,,,,,,,,,,,,,,,,,,335.8297,336.9852,a,1,0.4918,1,336.9854,337.4855,,,,,,434,MAS,NOWORD,DIS,150,durco,,la,,0.4918,,337.4856,337.4858,-0.114934172,-0.302155671,0,0,0,,0,130,130,433,1,disco,,,,
,,,,,,5fd1ddefbdcc381f5ace15d4,676192165fb32c2e1fb7aee6,67d1e7fc38f520190175ebe9,2025-03-12_21h01.12.945,Tarea de decisión léxica,2024.2.5,MacIntel,119.047619,,,,,,,,,,,,,,,,,,,,,,,,337.4878,338.8101,a,1,0.6583,1,338.8103,339.3094,,,,,,204,FEM,NOWORD,AGR,150,beja,,la,,0.6583,,339.3098,339.3103,-0.114934172,-0.302155671,0,0,0,,0,131,131,203,1,leña,,,,
,,,,,,5fd1ddefbdcc381f5ace15d4,676192165fb32c2e1fb7aee6,67d1e7fc38f520190175ebe9,2025-03-12_21h01.12.945,Tarea de decisión léxica,2024.2.5,MacIntel,119.047619,,,,,,,,,,,,,,,,,,,,,,,,339.3106,340.5525,a,1,0.5784,1,340.5526,341.0524,,,,,,90,MAS,NOWORD,DIS,150,guso,,la,,0.5784,,341.0525,341.0528,-0.114934172,-0.302155671,0,0,0,,0,132,132,89,1,humo,,,,
,,,,,,5fd1ddefbdcc381f5ace15d4,676192165fb32c2e1fb7aee6,67d1e7fc38f520190175ebe9,2025-03-12_21h01.12.945,Tarea de decisión léxica,2024.2.5,MacIntel,119.047619,,,,,,,,,,,,,,,,,,,,,,,,341.0541,342.2772,a,1,0.5611,1,342.2773,342.777,,,,,,276,MAS,NOWORD,AGR,150,musto,,el,,0.5611,,342.7771,342.7772,-0.114934172,-0.302155671,0,0,0,,0,133,133,275,1,punto,,,,
,,,,,,5fd1ddefbdcc381f5ace15d4,676192165fb32c2e1fb7aee6,67d1e7fc38f520190175ebe9,2025-03-12_21h01.12.945,Tarea de decisión léxica,2024.2.5,MacIntel,119.047619,,,,,,,,,,,,,,,,,,,,,,,,342.778,343.8774,l,1,0.4365,1,343.8775,344.3769,,,,,,395,FEM,WORD,DIS,150,caída,,el,,0.4365,,344.377,344.377,-0.114934172,-0.302155671,0,0,0,,0,134,134,394,1,paeda,,,,
,,,,,,5fd1ddefbdcc381f5ace15d4,676192165fb32c2e1fb7aee6,67d1e7fc38f520190175ebe9,2025-03-12_21h01.12.945,Tarea de decisión léxica,2024.2.5,MacIntel,119.047619,,,,,,,,,,,,,,,,,,,,,,,,344.3784,345.6766,l,1,0.6367,1,345.6768,346.177,,,,,,473,FEM,WORD,AGR,150,feria,,la,,0.6367,,346.177,346.1772,-0.114934172,-0.302155671,0,0,0,,0,135,135,472,1,felia,,,,
,,,,,,5fd1ddefbdcc381f5ace15d4,676192165fb32c2e1fb7aee6,67d1e7fc38f520190175ebe9,2025-03-12_21h01.12.945,Tarea de decisión léxica,2024.2.5,MacIntel,119.047619,,,,,,,,,,,,,,,,,,,,,,,,346.1787,347.3106,l,1,0.472,1,347.3108,347.811,,,,,,111,MAS,WORD,DIS,150,muro,,la,,0.472,,347.8123,347.8134,-0.114934172,-0.302155671,0,0,0,,0,136,136,110,1,siro,,,,
,,,,,,5fd1ddefbdcc381f5ace15d4,676192165fb32c2e1fb7aee6,67d1e7fc38f520190175ebe9,2025-03-12_21h01.12.945,Tarea de decisión léxica,2024.2.5,MacIntel,119.047619,,,,,,,,,,,,,,,,,,,,,,,,347.8147,348.9273,a,1,0.4481,1,348.9274,349.4275,,,,,,138,MAS,NOWORD,DIS,150,pamo,,la,,0.4481,,349.4276,349.4277,-0.114934172,-0.302155671,0,0,0,,0,137,137,137,1,nene,,,,
,,,,,,5fd1ddefbdcc381f5ace15d4,676192165fb32c2e1fb7aee6,67d1e7fc38f520190175ebe9,2025-03-12_21h01.12.945,Tarea de decisión léxica,2024.2.5,MacIntel,119.047619,,,,,,,,,,,,,,,,,,,,,,,,349.429,350.6686,l,1,0.5754,1,350.6687,351.1688,,,,,,179,MAS,WORD,AGR,150,toro,,el,,0.5754,,351.1688,351.169,-0.114934172,-0.302155671,0,0,0,,0,138,138,178,1,sono,,,,
,,,,,,5fd1ddefbdcc381f5ace15d4,676192165fb32c2e1fb7aee6,67d1e7fc38f520190175ebe9,2025-03-12_21h01.12.945,Tarea de decisión léxica,2024.2.5,MacIntel,119.047619,,,,,,,,,,,,,,,,,,,,,,,,351.1705,352.303,l,1,0.4699,1,352.3031,352.8025,,,,,,67,FEM,WORD,DIS,150,nena,,el,,0.4699,,352.8027,352.8029,-0.114934172,-0.302155671,0,0,0,,0,139,139,66,1,gesa,,,,
,,,,,,5fd1ddefbdcc381f5ace15d4,676192165fb32c2e1fb7aee6,67d1e7fc38f520190175ebe9,2025-03-12_21h01.12.945,Tarea de decisión léxica,2024.2.5,MacIntel,119.047619,,,,,,,,,,,,,,,,,,,,,,,,352.8042,353.9271,a,1,0.4593,1,353.9272,354.4277,,,,,,142,FEM,NOWORD,DIS,150,sina,,el,,0.4593,,354.4279,354.428,-0.114934172,-0.302155671,0,0,0,,0,140,140,141,1,cruz,,,,
,,,,,,5fd1ddefbdcc381f5ace15d4,676192165fb32c2e1fb7aee6,67d1e7fc38f520190175ebe9,2025-03-12_21h01.12.945,Tarea de decisión léxica,2024.2.5,MacIntel,119.047619,,,,,,,,,,,,,,,,,,,,,,,,354.43,355.5938,a,1,0.5008,1,355.5939,356.0941,,,,,,454,FEM,NOWORD,DIS,150,pafia,,el,,0.5008,,356.0957,356.0969,-0.114934172,-0.302155671,0,0,0,,0,141,141,453,1,mafia,,,,
,,,,,,5fd1ddefbdcc381f5ace15d4,676192165fb32c2e1fb7aee6,67d1e7fc38f520190175ebe9,2025-03-12_21h01.12.945,Tarea de decisión léxica,2024.2.5,MacIntel,119.047619,,,,,,,,,,,,,,,,,,,,,,,,356.0978,357.3202,a,1,0.5642,1,357.3203,357.8189,,,,,,430,FEM,NOWORD,DIS,150,tenta,,el,,0.5642,,357.819,357.8191,-0.114934172,-0.302155671,0,0,0,,0,142,142,429,1,tarta,,,,
,,,,,,5fd1ddefbdcc381f5ace15d4,676192165fb32c2e1fb7aee6,67d1e7fc38f520190175ebe9,2025-03-12_21h01.12.945,Tarea de decisión léxica,2024.2.5,MacIntel,119.047619,,,,,,,,,,,,,,,,,,,,,,,,357.8204,358.8938,l,1,0.4088,1,358.8939,359.3945,,,,,,153,MAS,WORD,DIS,150,pato,,la,,0.4088,,359.3945,359.3947,-0.114934172,-0.302155671,0,0,0,,0,143,143,152,1,tado,,,,
,,,,,,5fd1ddefbdcc381f5ace15d4,676192165fb32c2e1fb7aee6,67d1e7fc38f520190175ebe9,2025-03-12_21h01.12.945,Tarea de decisión léxica,2024.2.5,MacIntel,119.047619,,,,,,,,,,,,,,,,,,,,,,,,359.3961,360.4106,l,1,0.3513,1,360.4107,360.9109,,,,,,163,FEM,WORD,AGR,150,fama,,la,,0.3513,,360.911,360.9112,-0.114934172,-0.302155671,0,0,0,,0,144,144,162,1,laga,,,,
,,,,,,5fd1ddefbdcc381f5ace15d4,676192165fb32c2e1fb7aee6,67d1e7fc38f520190175ebe9,2025-03-12_21h01.12.945,Tarea de decisión léxica,2024.2.5,MacIntel,119.047619,,,,,,,,,,,,,,,,,,,,,,,,360.9129,361.9938,a,1,0.4147,1,361.9938,362.4941,,,,,,390,MAS,NOWORD,DIS,150,cenco,,la,,0.4147,,362.4942,362.4943,-0.114934172,-0.302155671,0,0,0,,0,145,145,389,1,cerdo,,,,
,,,,,,5fd1ddefbdcc381f5ace15d4,676192165fb32c2e1fb7aee6,67d1e7fc38f520190175ebe9,2025-03-12_21h01.12.945,Tarea de decisión léxica,2024.2.5,MacIntel,119.047619,,,,,,,,,,,,,,,,,,,,,,,,362.4958,363.671,a,1,0.5132,1,363.6712,364.1691,,,,,,472,FEM,NOWORD,AGR,150,prana,,la,,0.5132,,364.1712,364.1726,-0.114934172,-0.302155671,0,0,0,,0,146,146,471,1,grasa,,,,
,,,,,,5fd1ddefbdcc381f5ace15d4,676192165fb32c2e1fb7aee6,67d1e7fc38f520190175ebe9,2025-03-12_21h01.12.945,Tarea de decisión léxica,2024.2.5,MacIntel,119.047619,,,,,,,,,,,,,,,,,,,,,,,,364.1733,365.2439,l,1,0.4114,1,365.244,365.7435,,,,,,243,MAS,WORD,DIS,150,amigo,,la,,0.4114,,365.7436,365.7436,-0.114934172,-0.302155671,0,0,0,,0,147,147,242,1,asamo,,,,
,,,,,,5fd1ddefbdcc381f5ace15d4,676192165fb32c2e1fb7aee6,67d1e7fc38f520190175ebe9,2025-03-12_21h01.12.945,Tarea de decisión léxica,2024.2.5,MacIntel,119.047619,,,,,,,,,,,,,,,,,,,,,,,,365.7444,366.8022,l,1,0.3937,1,366.8023,367.302,,,,,,21,MAS,WORD,AGR,150,plan,,el,,0.3937,,367.3021,367.3022,-0.114934172,-0.302155671,0,0,0,,0,148,148,20,1,blan,,,,
,,,,,,5fd1ddefbdcc381f5ace15d4,676192165fb32c2e1fb7aee6,67d1e7fc38f520190175ebe9,2025-03-12_21h01.12.945,Tarea de decisión léxica,2024.2.5,MacIntel,119.047619,,,,,,,,,,,,,,,,,,,,,,,,367.3039,368.3348,l,1,0.3697,1,368.3349,368.8354,,,,,,115,FEM,WORD,DIS,150,pata,,el,,0.3697,,368.8355,368.8355,-0.114934172,-0.302155671,0,0,0,,0,149,149,114,1,haca,,,,
,,,,,,5fd1ddefbdcc381f5ace15d4,676192165fb32c2e1fb7aee6,67d1e7fc38f520190175ebe9,2025-03-12_21h01.12.945,Tarea de decisión léxica,2024.2.5,MacIntel,119.047619,,,,,,,,,,,,,,,,,,,,,,,,368.8363,369.818,l,1,0.3157,1,369.818,370.3189,,,,,,443,MAS,WORD,AGR,150,salón,,el,,0.3157,,370.3191,370.3192,-0.114934172,-0.302155671,0,0,0,,0,150,150,442,1,taron,,,,
,,,,,,5fd1ddefbdcc381f5ace15d4,676192165fb32c2e1fb7aee6,67d1e7fc38f520190175ebe9,2025-03-12_21h01.12.945,Tarea de decisión léxica,2024.2.5,MacIntel,119.047619,,,,,,,,,,,,,,,,,,,,,,,,370.3208,371.3622,a,1,0.3811,1,371.3622,371.8608,,,,,,190,MAS,NOWORD,DIS,150,muvo,,la,,0.3811,,371.8623,371.8634,-0.114934172,-0.302155671,0,0,0,,0,151,151,189,1,puño,,,,
,,,,,,5fd1ddefbdcc381f5ace15d4,676192165fb32c2e1fb7aee6,67d1e7fc38f520190175ebe9,2025-03-12_21h01.12.945,Tarea de decisión léxica,2024.2.5,MacIntel,119.047619,,,,,,,,,,,,,,,,,,,,,,,,371.8643,372.9018,a,1,0.3759,1,372.902,373.4024,,,,,,134,FEM,NOWORD,DIS,150,vesa,,el,,0.3759,,373.4025,373.4026,-0.114934172,-0.302155671,0,0,0,,0,152,152,133,1,vaca,,,,
,,,,,,5fd1ddefbdcc381f5ace15d4,676192165fb32c2e1fb7aee6,67d1e7fc38f520190175ebe9,2025-03-12_21h01.12.945,Tarea de decisión léxica,2024.2.5,MacIntel,119.047619,,,,,,,,,,,,,,,,,,,,,,,,373.4038,374.4773,l,1,0.4085,1,374.4774,374.9764,,,,,,363,FEM,WORD,AGR,150,deuda,,la,,0.4085,,374.9764,374.9764,-0.114934172,-0.302155671,0,0,0,,0,153,153,362,1,veida,,,,
,,,,,,5fd1ddefbdcc381f5ace15d4,676192165fb32c2e1fb7aee6,67d1e7fc38f520190175ebe9,2025-03-12_21h01.12.945,Tarea de decisión léxica,2024.2.5,MacIntel,119.047619,,,,,,,,,,,,,,,,,,,,,,,,374.9773,376.1951,a,1,0.5618,1,376.1953,376.6943,,,,,,102,MAS,NOWORD,DIS,150,gito,,la,,0.5618,,376.6944,376.6946,-0.114934172,-0.302155671,0,0,0,,0,154,154,101,1,tono,,,,
,,,,,,5fd1ddefbdcc381f5ace15d4,676192165fb32c2e1fb7aee6,67d1e7fc38f520190175ebe9,2025-03-12_21h01.12.945,Tarea de decisión léxica,2024.2.5,MacIntel,119.047619,,,,,,,,,,,,,,,,,,,,,,,,376.6961,377.8772,l,1,0.519,1,377.8773,378.3772,,,,,,59,FEM,WORD,AGR,150,sala,,la,,0.519,,378.3787,378.3797,-0.114934172,-0.302155671,0,0,0,,0,155,155,58,1,tafa,,,,
,,,,,,5fd1ddefbdcc381f5ace15d4,676192165fb32c2e1fb7aee6,67d1e7fc38f520190175ebe9,2025-03-12_21h01.12.945,Tarea de decisión léxica,2024.2.5,MacIntel,119.047619,,,,,,,,,,,,,,,,,,,,,,,,378.3808,379.4766,l,1,0.435,1,379.4767,379.9762,,,,,,323,FEM,WORD,DIS,150,cinta,,el,,0.435,,379.9763,379.9764,-0.114934172,-0.302155671,0,0,0,,0,156,156,322,1,certa,,,,
,,,,,,5fd1ddefbdcc381f5ace15d4,676192165fb32c2e1fb7aee6,67d1e7fc38f520190175ebe9,2025-03-12_21h01.12.945,Tarea de decisión léxica,2024.2.5,MacIntel,119.047619,,,,,,,,,,,,,,,,,,,,,,,,379.9774,381.0279,l,1,0.3948,1,381.028,381.5267,,,,,,151,MAS,WORD,AGR,150,tomo,,el,,0.3948,,381.5268,381.5268,-0.114934172,-0.302155671,0,0,0,,0,157,157,150,1,sogo,,,,
,,,,,,5fd1ddefbdcc381f5ace15d4,676192165fb32c2e1fb7aee6,67d1e7fc38f520190175ebe9,2025-03-12_21h01.12.945,Tarea de decisión léxica,2024.2.5,MacIntel,119.047619,,,,,,,,,,,,,,,,,,,,,,,,381.5277,382.5939,a,1,0.4027,1,382.5941,383.0943,,,,,,58,MAS,NOWORD,DIS,150,heco,,la,,0.4027,,383.0945,383.0947,-0.114934172,-0.302155671,0,0,0,,0,158,158,57,1,dedo,,,,
,,,,,,5fd1ddefbdcc381f5ace15d4,676192165fb32c2e1fb7aee6,67d1e7fc38f520190175ebe9,2025-03-12_21h01.12.945,Tarea de decisión léxica,2024.2.5,MacIntel,119.047619,,,,,,,,,,,,,,,,,,,,,,,,383.0964,384.2016,l,1,0.4421,1,384.2017,384.7028,,,,,,61,FEM,WORD,DIS,150,obra,,el,,0.4421,,384.703,384.7031,-0.114934172,-0.302155671,0,0,0,,0,159,159,60,1,efla,,,,
,,,,,,5fd1ddefbdcc381f5ace15d4,676192165fb32c2e1fb7aee6,67d1e7fc38f520190175ebe9,2025-03-12_21h01.12.945,Tarea de decisión léxica,2024.2.5,MacIntel,119.047619,,,,,,,,,,,,,,,,,,,,,,,,384.7047,385.7113,l,1,0.3416,1,385.7115,386.2108,,,,,,245,FEM,WORD,AGR,150,madre,,la,,0.3416,,386.2125,407.6121,-0.114934172,-0.302155671,0,0,0,space,0,160,160,244,1,pafle,21.381,,,
,,,,,,5fd1ddefbdcc381f5ace15d4,676192165fb32c2e1fb7aee6,67d1e7fc38f520190175ebe9,2025-03-12_21h01.12.945,Tarea de decisión léxica,2024.2.5,MacIntel,119.047619,,,,,,,,,,,,,,,,,,,,,,,,407.6141,408.9358,l,1,0.6583,1,408.936,409.4353,,,,,,43,FEM,WORD,DIS,150,pena,,el,,0.6583,,409.4353,409.4354,-0.114934172,-0.302155671,0,0,0,,0,161,161,42,1,meda,,,,
,,,,,,5fd1ddefbdcc381f5ace15d4,676192165fb32c2e1fb7aee6,67d1e7fc38f520190175ebe9,2025-03-12_21h01.12.945,Tarea de decisión léxica,2024.2.5,MacIntel,119.047619,,,,,,,,,,,,,,,,,,,,,,,,409.4366,410.568,l,1,0.4689,1,410.568,411.0695,,,,,,201,FEM,WORD,AGR,150,cuna,,la,,0.4689,,411.0696,411.0697,-0.114934172,-0.302155671,0,0,0,,0,162,162,200,1,cusa,,,,
,,,,,,5fd1ddefbdcc381f5ace15d4,676192165fb32c2e1fb7aee6,67d1e7fc38f520190175ebe9,2025-03-12_21h01.12.945,Tarea de decisión léxica,2024.2.5,MacIntel,119.047619,,,,,,,,,,,,,,,,,,,,,,,,411.0713,412.2447,a,1,0.5092,1,412.2449,412.7437,,,,,,126,MAS,NOWORD,DIS,150,vudo,,la,,0.5092,,412.7438,412.7439,-0.114934172,-0.302155671,0,0,0,,0,163,163,125,1,lujo,,,,
,,,,,,5fd1ddefbdcc381f5ace15d4,676192165fb32c2e1fb7aee6,67d1e7fc38f520190175ebe9,2025-03-12_21h01.12.945,Tarea de decisión léxica,2024.2.5,MacIntel,119.047619,,,,,,,,,,,,,,,,,,,,,,,,412.7454,413.819,l,1,0.4097,1,413.8191,414.3195,,,,,,129,MAS,WORD,DIS,150,oído,,la,,0.4097,,414.3196,414.3198,-0.114934172,-0.302155671,0,0,0,,0,164,164,128,1,pima,,,,
,,,,,,5fd1ddefbdcc381f5ace15d4,676192165fb32c2e1fb7aee6,67d1e7fc38f520190175ebe9,2025-03-12_21h01.12.945,Tarea de decisión léxica,2024.2.5,MacIntel,119.047619,,,,,,,,,,,,,,,,,,,,,,,,414.3213,415.4454,a,1,0.4636,1,415.4454,415.9445,,,,,,94,FEM,NOWORD,DIS,150,rona,,el,,0.4636,,415.946,415.9473,-0.114934172,-0.302155671,0,0,0,,0,165,165,93,1,bola,,,,
,,,,,,5fd1ddefbdcc381f5ace15d4,676192165fb32c2e1fb7aee6,67d1e7fc38f520190175ebe9,2025-03-12_21h01.12.945,Tarea de decisión léxica,2024.2.5,MacIntel,119.047619,,,,,,,,,,,,,,,,,,,,,,,,415.9486,416.9608,l,1,0.3527,1,416.961,417.4601,,,,,,437,FEM,WORD,AGR,150,plaza,,la,,0.3527,,417.4601,417.4603,-0.114934172,-0.302155671,0,0,0,,0,166,166,436,1,glava,,,,
,,,,,,5fd1ddefbdcc381f5ace15d4,676192165fb32c2e1fb7aee6,67d1e7fc38f520190175ebe9,2025-03-12_21h01.12.945,Tarea de decisión léxica,2024.2.5,MacIntel,119.047619,,,,,,,,,,,,,,,,,,,,,,,,417.4613,418.5277,a,1,0.4125,1,418.5278,419.028,,,,,,358,FEM,NOWORD,DIS,150,gruba,,el,,0.4125,,419.0281,419.0283,-0.114934172,-0.302155671,0,0,0,,0,167,167,357,1,bruja,,,,
,,,,,,5fd1ddefbdcc381f5ace15d4,676192165fb32c2e1fb7aee6,67d1e7fc38f520190175ebe9,2025-03-12_21h01.12.945,Tarea de decisión léxica,2024.2.5,MacIntel,119.047619,,,,,,,,,,,,,,,,,,,,,,,,419.03,420.0774,l,1,0.382,1,420.0775,420.577,,,,,,469,MAS,WORD,DIS,150,patio,,la,,0.382,,420.5771,420.5773,-0.114934172,-0.302155671,0,0,0,,0,168,168,468,1,matia,,,,
,,,,,,5fd1ddefbdcc381f5ace15d4,676192165fb32c2e1fb7aee6,67d1e7fc38f520190175ebe9,2025-03-12_21h01.12.945,Tarea de decisión léxica,2024.2.5,MacIntel,119.047619,,,,,,,,,,,,,,,,,,,,,,,,420.5786,421.6691,a,1,0.4263,1,421.6692,422.1698,,,,,,10,MAS,NOWORD,DIS,150,sibo,,la,,0.4263,,422.17,422.1703,-0.114934172,-0.302155671,0,0,0,,0,169,169,9,1,tipo,,,,
,,,,,,5fd1ddefbdcc381f5ace15d4,676192165fb32c2e1fb7aee6,67d1e7fc38f520190175ebe9,2025-03-12_21h01.12.945,Tarea de decisión léxica,2024.2.5,MacIntel,119.047619,,,,,,,,,,,,,,,,,,,,,,,,422.1718,423.2775,a,1,0.4412,1,423.2776,423.7769,,,,,,264,FEM,NOWORD,AGR,150,dosta,,la,,0.4412,,423.7782,423.7793,-0.114934172,-0.302155671,0,0,0,,0,170,170,263,1,vista,,,,
,,,,,,5fd1ddefbdcc381f5ace15d4,676192165fb32c2e1fb7aee6,67d1e7fc38f520190175ebe9,2025-03-12_21h01.12.945,Tarea de decisión léxica,2024.2.5,MacIntel,119.047619,,,,,,,,,,,,,,,,,,,,,,,,423.7802,424.9357,l,1,0.4939,1,424.9358,425.4356,,,,,,365,FEM,WORD,DIS,150,ducha,,el,,0.4939,,425.4357,425.4358,-0.114934172,-0.302155671,0,0,0,,0,171,171,364,1,gulla,,,,
,,,,,,5fd1ddefbdcc381f5ace15d4,676192165fb32c2e1fb7aee6,67d1e7fc38f520190175ebe9,2025-03-12_21h01.12.945,Tarea de decisión léxica,2024.2.5,MacIntel,119.047619,,,,,,,,,,,,,,,,,,,,,,,,425.4367,426.4796,l,1,0.389,1,426.4798,426.9779,,,,,,377,MAS,WORD,DIS,150,hielo,,la,,0.389,,426.9781,426.9783,-0.114934172,-0.302155671,0,0,0,,0,172,172,376,1,gaulo,,,,
,,,,,,5fd1ddefbdcc381f5ace15d4,676192165fb32c2e1fb7aee6,67d1e7fc38f520190175ebe9,2025-03-12_21h01.12.945,Tarea de decisión léxica,2024.2.5,MacIntel,119.047619,,,,,,,,,,,,,,,,,,,,,,,,426.9799,428.0277,a,1,0.3868,1,428.0279,428.527,,,,,,470,MAS,NOWORD,DIS,150,matia,,la,,0.3868,,428.5272,428.5273,-0.114934172,-0.302155671,0,0,0,,0,173,173,469,1,patio,,,,
,,,,,,5fd1ddefbdcc381f5ace15d4,676192165fb32c2e1fb7aee6,67d1e7fc38f520190175ebe9,2025-03-12_21h01.12.945,Tarea de decisión léxica,2024.2.5,MacIntel,119.047619,,,,,,,,,,,,,,,,,,,,,,,,428.5285,429.5692,l,1,0.3781,1,429.5692,430.0698,,,,,,367,MAS,WORD,DIS,150,reloj,,la,,0.3781,,430.07,430.0702,-0.114934172,-0.302155671,0,0,0,,0,174,174,366,1,rerob,,,,
,,,,,,5fd1ddefbdcc381f5ace15d4,676192165fb32c2e1fb7aee6,67d1e7fc38f520190175ebe9,2025-03-12_21h01.12.945,Tarea de decisión léxica,2024.2.5,MacIntel,119.047619,,,,,,,,,,,,,,,,,,,,,,,,430.0721,431.1443,l,1,0.409,1,431.1444,431.645,,,,,,373,FEM,WORD,DIS,150,pizza,,el,,0.409,,431.6465,431.6476,-0.114934172,-0.302155671,0,0,0,,0,175,175,372,1,pogza,,,,
,,,,,,5fd1ddefbdcc381f5ace15d4,676192165fb32c2e1fb7aee6,67d1e7fc38f520190175ebe9,2025-03-12_21h01.12.945,Tarea de decisión léxica,2024.2.5,MacIntel,119.047619,,,,,,,,,,,,,,,,,,,,,,,,431.6483,432.6269,l,1,0.317,1,432.627,433.1282,,,,,,117,MAS,WORD,AGR,150,palo,,el,,0.317,,433.1282,433.1285,-0.114934172,-0.302155671,0,0,0,,0,176,176,116,1,movo,,,,
,,,,,,5fd1ddefbdcc381f5ace15d4,676192165fb32c2e1fb7aee6,67d1e7fc38f520190175ebe9,2025-03-12_21h01.12.945,Tarea de decisión léxica,2024.2.5,MacIntel,119.047619,,,,,,,,,,,,,,,,,,,,,,,,433.1304,434.1038,l,0,0.3126,0,434.1049,434.6017,,,,,,144,MAS,NOWORD,AGR,150,pezo,,el,,0.3126,,434.6018,434.6019,-0.114934172,-0.302155671,0,0,0,,0,177,177,143,1,pavo,,,,
,,,,,,5fd1ddefbdcc381f5ace15d4,676192165fb32c2e1fb7aee6,67d1e7fc38f520190175ebe9,2025-03-12_21h01.12.945,Tarea de decisión léxica,2024.2.5,MacIntel,119.047619,,,,,,,,,,,,,,,,,,,,,,,,434.6026,435.7524,a,1,0.4914,1,435.7532,436.2534,,,,,,14,FEM,NOWORD,DIS,150,nola,,el,,0.4914,,436.2535,436.2537,-0.114934172,-0.302155671,0,0,0,,0,178,178,13,1,hora,,,,
,,,,,,5fd1ddefbdcc381f5ace15d4,676192165fb32c2e1fb7aee6,67d1e7fc38f520190175ebe9,2025-03-12_21h01.12.945,Tarea de decisión léxica,2024.2.5,MacIntel,119.047619,,,,,,,,,,,,,,,,,,,,,,,,436.2556,437.2775,l,1,0.3606,1,437.2776,437.7781,,,,,,331,MAS,WORD,AGR,150,éxito,,el,,0.3606,,437.7797,437.7809,-0.114934172,-0.302155671,0,0,0,,0,179,179,330,1,erato,,,,
,,,,,,5fd1ddefbdcc381f5ace15d4,676192165fb32c2e1fb7aee6,67d1e7fc38f520190175ebe9,2025-03-12_21h01.12.945,Tarea de decisión léxica,2024.2.5,MacIntel,119.047619,,,,,,,,,,,,,,,,,,,,,,,,437.7819,438.7857,a,0,0.3422,0,438.7865,439.286,,,,,,299,FEM,WORD,AGR,150,bolsa,,la,,0.3422,,439.2861,439.2864,-0.114934172,-0.302155671,0,0,0,,0,180,180,298,1,bosga,,,,
,,,,,,5fd1ddefbdcc381f5ace15d4,676192165fb32c2e1fb7aee6,67d1e7fc38f520190175ebe9,2025-03-12_21h01.12.945,Tarea de decisión léxica,2024.2.5,MacIntel,119.047619,,,,,,,,,,,,,,,,,,,,,,,,439.2881,440.3354,l,1,0.3845,1,440.3362,440.8361,,,,,,211,FEM,WORD,DIS,150,joya,,el,,0.3845,,440.8363,440.8364,-0.114934172,-0.302155671,0,0,0,,0,181,181,210,1,joad,,,,
,,,,,,5fd1ddefbdcc381f5ace15d4,676192165fb32c2e1fb7aee6,67d1e7fc38f520190175ebe9,2025-03-12_21h01.12.945,Tarea de decisión léxica,2024.2.5,MacIntel,119.047619,,,,,,,,,,,,,,,,,,,,,,,,440.8381,441.8275,l,1,0.3243,1,441.8277,442.3279,,,,,,475,FEM,WORD,DIS,150,manta,,el,,0.3243,,442.328,442.3282,-0.114934172,-0.302155671,0,0,0,,0,182,182,474,1,mucta,,,,
,,,,,,5fd1ddefbdcc381f5ace15d4,676192165fb32c2e1fb7aee6,67d1e7fc38f520190175ebe9,2025-03-12_21h01.12.945,Tarea de decisión léxica,2024.2.5,MacIntel,119.047619,,,,,,,,,,,,,,,,,,,,,,,,442.3296,443.4525,a,1,0.4583,1,443.4527,443.9527,,,,,,114,FEM,NOWORD,DIS,150,tada,,el,,0.4583,,443.9528,443.953,-0.114934172,-0.302155671,0,0,0,,0,183,183,113,1,miel,,,,
,,,,,,5fd1ddefbdcc381f5ace15d4,676192165fb32c2e1fb7aee6,67d1e7fc38f520190175ebe9,2025-03-12_21h01.12.945,Tarea de decisión léxica,2024.2.5,MacIntel,119.047619,,,,,,,,,,,,,,,,,,,,,,,,443.9544,445.0525,l,1,0.4338,1,445.0526,445.5529,,,,,,383,FEM,WORD,DIS,150,frase,,el,,0.4338,,445.5544,445.5556,-0.114934172,-0.302155671,0,0,0,,0,184,184,382,1,brame,,,,
,,,,,,5fd1ddefbdcc381f5ace15d4,676192165fb32c2e1fb7aee6,67d1e7fc38f520190175ebe9,2025-03-12_21h01.12.945,Tarea de decisión léxica,2024.2.5,MacIntel,119.047619,,,,,,,,,,,,,,,,,,,,,,,,445.5569,446.67,a,1,0.4502,1,446.6701,447.17,,,,,,260,MAS,NOWORD,AGR,150,jaumo,,el,,0.4502,,447.1702,447.1703,-0.114934172,-0.302155671,0,0,0,,0,185,185,259,1,juego,,,,
,,,,,,5fd1ddefbdcc381f5ace15d4,676192165fb32c2e1fb7aee6,67d1e7fc38f520190175ebe9,2025-03-12_21h01.12.945,Tarea de decisión léxica,2024.2.5,MacIntel,119.047619,,,,,,,,,,,,,,,,,,,,,,,,447.1722,448.2359,l,1,0.4017,1,448.236,448.7357,,,,,,5,FEM,WORD,AGR,150,cosa,,la,,0.4017,,448.7357,448.7359,-0.114934172,-0.302155671,0,0,0,,0,186,186,4,1,poga,,,,
,,,,,,5fd1ddefbdcc381f5ace15d4,676192165fb32c2e1fb7aee6,67d1e7fc38f520190175ebe9,2025-03-12_21h01.12.945,Tarea de decisión léxica,2024.2.5,MacIntel,119.047619,,,,,,,,,,,,,,,,,,,,,,,,448.7374,449.7693,l,1,0.3692,1,449.7694,450.2697,,,,,,283,MAS,WORD,AGR,150,sueño,,el,,0.3692,,450.2697,450.2699,-0.114934172,-0.302155671,0,0,0,,0,187,187,282,1,tuevo,,,,
,,,,,,5fd1ddefbdcc381f5ace15d4,676192165fb32c2e1fb7aee6,67d1e7fc38f520190175ebe9,2025-03-12_21h01.12.945,Tarea de decisión léxica,2024.2.5,MacIntel,119.047619,,,,,,,,,,,,,,,,,,,,,,,,450.2714,451.444,a,0,0.511,0,451.4446,451.9446,,,,,,139,MAS,WORD,AGR,150,mago,,el,,0.511,,451.9447,451.9448,-0.114934172,-0.302155671,0,0,0,,0,188,188,138,1,nila,,,,
,,,,,,5fd1ddefbdcc381f5ace15d4,676192165fb32c2e1fb7aee6,67d1e7fc38f520190175ebe9,2025-03-12_21h01.12.945,Tarea de decisión léxica,2024.2.5,MacIntel,119.047619,,,,,,,,,,,,,,,,,,,,,,,,451.9462,453.0373,l,1,0.4303,1,453.0382,453.5359,,,,,,71,FEM,WORD,DIS,150,isla,,el,,0.4303,,453.5367,453.5376,-0.114934172,-0.302155671,0,0,0,,0,189,189,70,1,urla,,,,
,,,,,,5fd1ddefbdcc381f5ace15d4,676192165fb32c2e1fb7aee6,67d1e7fc38f520190175ebe9,2025-03-12_21h01.12.945,Tarea de decisión léxica,2024.2.5,MacIntel,119.047619,,,,,,,,,,,,,,,,,,,,,,,,453.5381,454.5449,l,1,0.341,1,454.5451,455.0449,,,,,,303,MAS,WORD,DIS,150,barco,,la,,0.341,,455.0452,455.0453,-0.114934172,-0.302155671,0,0,0,,0,190,190,302,1,lanco,,,,
,,,,,,5fd1ddefbdcc381f5ace15d4,676192165fb32c2e1fb7aee6,67d1e7fc38f520190175ebe9,2025-03-12_21h01.12.945,Tarea de decisión léxica,2024.2.5,MacIntel,119.047619,,,,,,,,,,,,,,,,,,,,,,,,455.0468,456.2537,a,1,0.5463,1,456.2539,456.7526,,,,,,324,FEM,NOWORD,AGR,150,certa,,la,,0.5463,,456.7527,456.7527,-0.114934172,-0.302155671,0,0,0,,0,191,191,323,1,cinta,,,,
,,,,,,5fd1ddefbdcc381f5ace15d4,676192165fb32c2e1fb7aee6,67d1e7fc38f520190175ebe9,2025-03-12_21h01.12.945,Tarea de decisión léxica,2024.2.5,MacIntel,119.047619,,,,,,,,,,,,,,,,,,,,,,,,456.7537,457.7693,l,1,0.3548,1,457.7694,458.2687,,,,,,113,FEM,WORD,AGR,150,miel,,la,,0.3548,,458.2687,458.2689,-0.114934172,-0.302155671,0,0,0,,0,192,192,112,1,tada,,,,
,,,,,,5fd1ddefbdcc381f5ace15d4,676192165fb32c2e1fb7aee6,67d1e7fc38f520190175ebe9,2025-03-12_21h01.12.945,Tarea de decisión léxica,2024.2.5,MacIntel,119.047619,,,,,,,,,,,,,,,,,,,,,,,,458.2696,459.2855,l,1,0.3611,1,459.2856,459.786,,,,,,439,FEM,WORD,DIS,150,presa,,el,,0.3611,,459.786,459.7861,-0.114934172,-0.302155671,0,0,0,,0,193,193,438,1,prema,,,,
,,,,,,5fd1ddefbdcc381f5ace15d4,676192165fb32c2e1fb7aee6,67d1e7fc38f520190175ebe9,2025-03-12_21h01.12.945,Tarea de decisión léxica,2024.2.5,MacIntel,119.047619,,,,,,,,,,,,,,,,,,,,,,,,459.7871,460.9693,a,1,0.5151,1,460.9694,461.4692,,,,,,340,MAS,NOWORD,AGR,150,plajo,,el,,0.5151,,461.4704,461.4716,-0.114934172,-0.302155671,0,0,0,,0,194,194,339,1,brazo,,,,
,,,,,,5fd1ddefbdcc381f5ace15d4,676192165fb32c2e1fb7aee6,67d1e7fc38f520190175ebe9,2025-03-12_21h01.12.945,Tarea de decisión léxica,2024.2.5,MacIntel,119.047619,,,,,,,,,,,,,,,,,,,,,,,,461.4727,462.7027,a,1,0.5671,1,462.7028,463.203,,,,,,124,FEM,NOWORD,AGR,150,maba,,la,,0.5671,,463.2035,463.2036,-0.114934172,-0.302155671,0,0,0,,0,195,195,123,1,flor,,,,
,,,,,,5fd1ddefbdcc381f5ace15d4,676192165fb32c2e1fb7aee6,67d1e7fc38f520190175ebe9,2025-03-12_21h01.12.945,Tarea de decisión léxica,2024.2.5,MacIntel,119.047619,,,,,,,,,,,,,,,,,,,,,,,,463.2053,464.3359,a,1,0.4673,1,464.336,464.8358,,,,,,168,FEM,NOWORD,AGR,150,zifa,,la,,0.4673,,464.8358,464.8359,-0.114934172,-0.302155671,0,0,0,,0,196,196,167,1,jefa,,,,
,,,,,,5fd1ddefbdcc381f5ace15d4,676192165fb32c2e1fb7aee6,67d1e7fc38f520190175ebe9,2025-03-12_21h01.12.945,Tarea de decisión léxica,2024.2.5,MacIntel,119.047619,,,,,,,,,,,,,,,,,,,,,,,,464.8368,466.0027,a,1,0.4986,1,466.0028,466.5034,,,,,,188,MAS,NOWORD,AGR,150,suto,,el,,0.4986,,466.5035,466.5037,-0.114934172,-0.302155671,0,0,0,,0,197,197,187,1,mito,,,,
,,,,,,5fd1ddefbdcc381f5ace15d4,676192165fb32c2e1fb7aee6,67d1e7fc38f520190175ebe9,2025-03-12_21h01.12.945,Tarea de decisión léxica,2024.2.5,MacIntel,119.047619,,,,,,,,,,,,,,,,,,,,,,,,466.5053,467.7869,l,0,0.623,0,467.7876,468.2866,,,,,,206,FEM,NOWORD,DIS,150,bara,,el,,0.623,,468.2867,468.2869,-0.114934172,-0.302155671,0,0,0,,0,198,198,205,1,rana,,,,
,,,,,,5fd1ddefbdcc381f5ace15d4,676192165fb32c2e1fb7aee6,67d1e7fc38f520190175ebe9,2025-03-12_21h01.12.945,Tarea de decisión léxica,2024.2.5,MacIntel,119.047619,,,,,,,,,,,,,,,,,,,,,,,,468.2887,469.3601,l,1,0.4077,1,469.3609,469.8609,,,,,,83,FEM,WORD,AGR,150,bala,,la,,0.4077,,469.862,469.8632,-0.114934172,-0.302155671,0,0,0,,0,199,199,82,1,taga,,,,
,,,,,,5fd1ddefbdcc381f5ace15d4,676192165fb32c2e1fb7aee6,67d1e7fc38f520190175ebe9,2025-03-12_21h01.12.945,Tarea de decisión léxica,2024.2.5,MacIntel,119.047619,,,,,,,,,,,,,,,,,,,,,,,,469.8643,470.9784,a,1,0.4507,1,470.9787,471.478,,,,,,180,MAS,NOWORD,AGR,150,sono,,el,,0.4507,,471.4781,471.4783,-0.114934172,-0.302155671,0,0,0,,0,200,200,179,1,toro,,,,
,,,,,,5fd1ddefbdcc381f5ace15d4,676192165fb32c2e1fb7aee6,67d1e7fc38f520190175ebe9,2025-03-12_21h01.12.945,Tarea de decisión léxica,2024.2.5,MacIntel,119.047619,,,,,,,,,,,,,,,,,,,,,,,,471.4802,472.6776,a,1,0.5312,1,472.6777,473.178,,,,,,306,MAS,NOWORD,DIS,150,adiol,,la,,0.5312,,473.178,473.1781,-0.114934172,-0.302155671,0,0,0,,0,201,201,305,1,avión,,,,
,,,,,,5fd1ddefbdcc381f5ace15d4,676192165fb32c2e1fb7aee6,67d1e7fc38f520190175ebe9,2025-03-12_21h01.12.945,Tarea de decisión léxica,2024.2.5,MacIntel,119.047619,,,,,,,,,,,,,,,,,,,,,,,,473.1795,474.211,l,1,0.366,1,474.2111,474.7115,,,,,,281,MAS,WORD,DIS,150,cielo,,la,,0.366,,474.7116,474.7118,-0.114934172,-0.302155671,0,0,0,,0,202,202,280,1,cauro,,,,
,,,,,,5fd1ddefbdcc381f5ace15d4,676192165fb32c2e1fb7aee6,67d1e7fc38f520190175ebe9,2025-03-12_21h01.12.945,Tarea de decisión léxica,2024.2.5,MacIntel,119.047619,,,,,,,,,,,,,,,,,,,,,,,,474.7135,475.7027,l,1,0.3288,1,475.7028,476.2031,,,,,,333,FEM,WORD,DIS,150,tarea,,el,,0.3288,,476.2045,476.2057,-0.114934172,-0.302155671,0,0,0,,0,203,203,332,1,dalea,,,,
,,,,,,5fd1ddefbdcc381f5ace15d4,676192165fb32c2e1fb7aee6,67d1e7fc38f520190175ebe9,2025-03-12_21h01.12.945,Tarea de decisión léxica,2024.2.5,MacIntel,119.047619,,,,,,,,,,,,,,,,,,,,,,,,476.2067,477.1694,l,1,0.2999,1,477.1694,477.6697,,,,,,223,FEM,WORD,AGR,150,cera,,la,,0.2999,,477.6698,477.67,-0.114934172,-0.302155671,0,0,0,,0,204,204,222,1,cira,,,,
,,,,,,5fd1ddefbdcc381f5ace15d4,676192165fb32c2e1fb7aee6,67d1e7fc38f520190175ebe9,2025-03-12_21h01.12.945,Tarea de decisión léxica,2024.2.5,MacIntel,119.047619,,,,,,,,,,,,,,,,,,,,,,,,477.6712,478.8282,a,1,0.4911,1,478.8284,479.3276,,,,,,452,FEM,NOWORD,AGR,150,clita,,la,,0.4911,,479.3278,479.3279,-0.114934172,-0.302155671,0,0,0,,0,205,205,451,1,fruta,,,,
,,,,,,5fd1ddefbdcc381f5ace15d4,676192165fb32c2e1fb7aee6,67d1e7fc38f520190175ebe9,2025-03-12_21h01.12.945,Tarea de decisión léxica,2024.2.5,MacIntel,119.047619,,,,,,,,,,,,,,,,,,,,,,,,479.329,480.3939,l,1,0.3989,1,480.3941,480.894,,,,,,217,MAS,WORD,AGR,150,luto,,el,,0.3989,,480.8942,480.8944,-0.114934172,-0.302155671,0,0,0,,0,206,206,216,1,budo,,,,
,,,,,,5fd1ddefbdcc381f5ace15d4,676192165fb32c2e1fb7aee6,67d1e7fc38f520190175ebe9,2025-03-12_21h01.12.945,Tarea de decisión léxica,2024.2.5,MacIntel,119.047619,,,,,,,,,,,,,,,,,,,,,,,,480.896,481.936,l,1,0.3758,1,481.9361,482.4365,,,,,,479,MAS,WORD,DIS,150,rumbo,,la,,0.3758,,482.4366,482.4367,-0.114934172,-0.302155671,0,0,0,,0,207,207,478,1,rimpo,,,,
,,,,,,5fd1ddefbdcc381f5ace15d4,676192165fb32c2e1fb7aee6,67d1e7fc38f520190175ebe9,2025-03-12_21h01.12.945,Tarea de decisión léxica,2024.2.5,MacIntel,119.047619,,,,,,,,,,,,,,,,,,,,,,,,482.4383,483.5444,a,1,0.4437,1,483.5445,484.0446,,,,,,346,FEM,NOWORD,DIS,150,anera,,el,,0.4437,,484.0461,484.0473,-0.114934172,-0.302155671,0,0,0,,0,208,208,345,1,arena,,,,
,,,,,,5fd1ddefbdcc381f5ace15d4,676192165fb32c2e1fb7aee6,67d1e7fc38f520190175ebe9,2025-03-12_21h01.12.945,Tarea de decisión léxica,2024.2.5,MacIntel,119.047619,,,,,,,,,,,,,,,,,,,,,,,,484.048,485.1273,a,1,0.4194,1,485.1273,485.6282,,,,,,24,FEM,NOWORD,AGR,150,giva,,la,,0.4194,,485.6283,485.6286,-0.114934172,-0.302155671,0,0,0,,0,209,209,23,1,hija,,,,
,,,,,,5fd1ddefbdcc381f5ace15d4,676192165fb32c2e1fb7aee6,67d1e7fc38f520190175ebe9,2025-03-12_21h01.12.945,Tarea de decisión léxica,2024.2.5,MacIntel,119.047619,,,,,,,,,,,,,,,,,,,,,,,,485.6302,486.6705,l,1,0.3751,1,486.6708,487.169,,,,,,441,FEM,WORD,AGR,150,selva,,la,,0.3751,,487.1692,487.1693,-0.114934172,-0.302155671,0,0,0,,0,210,210,440,1,telza,,,,
,,,,,,5fd1ddefbdcc381f5ace15d4,676192165fb32c2e1fb7aee6,67d1e7fc38f520190175ebe9,2025-03-12_21h01.12.945,Tarea de decisión léxica,2024.2.5,MacIntel,119.047619,,,,,,,,,,,,,,,,,,,,,,,,487.1705,488.1192,l,1,0.2873,1,488.1193,488.6202,,,,,,149,MAS,WORD,DIS,150,cabo,,la,,0.2873,,488.6203,488.6205,-0.114934172,-0.302155671,0,0,0,,0,211,211,148,1,pafo,,,,
,,,,,,5fd1ddefbdcc381f5ace15d4,676192165fb32c2e1fb7aee6,67d1e7fc38f520190175ebe9,2025-03-12_21h01.12.945,Tarea de decisión léxica,2024.2.5,MacIntel,119.047619,,,,,,,,,,,,,,,,,,,,,,,,488.6222,489.7278,a,1,0.4414,1,489.7279,490.2283,,,,,,54,FEM,NOWORD,DIS,150,rora,,el,,0.4414,,490.2286,490.2287,-0.114934172,-0.302155671,0,0,0,,0,212,212,53,1,boda,,,,
,,,,,,5fd1ddefbdcc381f5ace15d4,676192165fb32c2e1fb7aee6,67d1e7fc38f520190175ebe9,2025-03-12_21h01.12.945,Tarea de decisión léxica,2024.2.5,MacIntel,119.047619,,,,,,,,,,,,,,,,,,,,,,,,490.2304,491.2027,l,1,0.3097,1,491.2029,491.7028,,,,,,427,FEM,WORD,AGR,150,oreja,,la,,0.3097,,491.7037,491.7045,-0.114934172,-0.302155671,0,0,0,,0,213,213,426,1,oseva,,,,
,,,,,,5fd1ddefbdcc381f5ace15d4,676192165fb32c2e1fb7aee6,67d1e7fc38f520190175ebe9,2025-03-12_21h01.12.945,Tarea de decisión léxica,2024.2.5,MacIntel,119.047619,,,,,,,,,,,,,,,,,,,,,,,,491.7052,492.6297,l,1,0.2643,1,492.6298,493.1279,,,,,,319,MAS,WORD,AGR,150,suelo,,el,,0.2643,,493.1282,493.1284,-0.114934172,-0.302155671,0,0,0,,0,214,214,318,1,tuero,,,,
,,,,,,5fd1ddefbdcc381f5ace15d4,676192165fb32c2e1fb7aee6,67d1e7fc38f520190175ebe9,2025-03-12_21h01.12.945,Tarea de decisión léxica,2024.2.5,MacIntel,119.047619,,,,,,,,,,,,,,,,,,,,,,,,493.1299,494.2384,a,1,0.4477,1,494.2387,494.7364,,,,,,18,FEM,NOWORD,DIS,150,paba,,el,,0.4477,,494.7366,494.7367,-0.114934172,-0.302155671,0,0,0,,0,215,215,17,1,mamá,,,,
,,,,,,5fd1ddefbdcc381f5ace15d4,676192165fb32c2e1fb7aee6,67d1e7fc38f520190175ebe9,2025-03-12_21h01.12.945,Tarea de decisión léxica,2024.2.5,MacIntel,119.047619,,,,,,,,,,,,,,,,,,,,,,,,494.7383,495.9701,a,1,0.5673,1,495.9703,496.4695,,,,,,16,FEM,NOWORD,AGR,150,odea,,la,,0.5673,,496.4695,496.4697,-0.114934172,-0.302155671,0,0,0,,0,216,216,15,1,idea,,,,
,,,,,,5fd1ddefbdcc381f5ace15d4,676192165fb32c2e1fb7aee6,67d1e7fc38f520190175ebe9,2025-03-12_21h01.12.945,Tarea de decisión léxica,2024.2.5,MacIntel,119.047619,,,,,,,,,,,,,,,,,,,,,,,,496.471,497.4705,l,1,0.3369,1,497.4706,497.9699,,,,,,401,MAS,WORD,DIS,150,polvo,,la,,0.3369,,497.9701,497.9703,-0.114934172,-0.302155671,0,0,0,,0,217,217,400,1,pirvo,,,,
,,,,,,5fd1ddefbdcc381f5ace15d4,676192165fb32c2e1fb7aee6,67d1e7fc38f520190175ebe9,2025-03-12_21h01.12.945,Tarea de decisión léxica,2024.2.5,MacIntel,119.047619,,,,,,,,,,,,,,,,,,,,,,,,497.9721,499.0278,l,1,0.393,1,499.0279,499.5282,,,,,,239,MAS,WORD,DIS,150,mozo,,la,,0.393,,499.5296,499.5307,-0.114934172,-0.302155671,0,0,0,,0,218,218,238,1,poño,,,,
,,,,,,5fd1ddefbdcc381f5ace15d4,676192165fb32c2e1fb7aee6,67d1e7fc38f520190175ebe9,2025-03-12_21h01.12.945,Tarea de decisión léxica,2024.2.5,MacIntel,119.047619,,,,,,,,,,,,,,,,,,,,,,,,499.5318,500.612,a,1,0.4158,1,500.6122,501.111,,,,,,104,FEM,NOWORD,AGR,150,rova,,la,,0.4158,,501.1111,501.1112,-0.114934172,-0.302155671,0,0,0,,0,219,219,103,1,ruta,,,,
,,,,,,5fd1ddefbdcc381f5ace15d4,676192165fb32c2e1fb7aee6,67d1e7fc38f520190175ebe9,2025-03-12_21h01.12.945,Tarea de decisión léxica,2024.2.5,MacIntel,119.047619,,,,,,,,,,,,,,,,,,,,,,,,501.1121,502.2605,l,1,0.4834,1,502.2606,502.7615,,,,,,125,MAS,WORD,DIS,150,lujo,,la,,0.4834,,502.7616,502.7618,-0.114934172,-0.302155671,0,0,0,,0,220,220,124,1,vudo,,,,
,,,,,,5fd1ddefbdcc381f5ace15d4,676192165fb32c2e1fb7aee6,67d1e7fc38f520190175ebe9,2025-03-12_21h01.12.945,Tarea de decisión léxica,2024.2.5,MacIntel,119.047619,,,,,,,,,,,,,,,,,,,,,,,,502.7633,503.7622,l,1,0.3383,1,503.7623,504.2618,,,,,,375,FEM,WORD,AGR,150,salsa,,la,,0.3383,,504.2619,504.262,-0.114934172,-0.302155671,0,0,0,,0,221,221,374,1,sasna,,,,
,,,,,,5fd1ddefbdcc381f5ace15d4,676192165fb32c2e1fb7aee6,67d1e7fc38f520190175ebe9,2025-03-12_21h01.12.945,Tarea de decisión léxica,2024.2.5,MacIntel,119.047619,,,,,,,,,,,,,,,,,,,,,,,,504.2639,505.2779,l,1,0.3525,1,505.278,505.7778,,,,,,17,FEM,WORD,DIS,150,mamá,,el,,0.3525,,505.7778,505.7779,-0.114934172,-0.302155671,0,0,0,,0,222,222,16,1,paba,,,,
,,,,,,5fd1ddefbdcc381f5ace15d4,676192165fb32c2e1fb7aee6,67d1e7fc38f520190175ebe9,2025-03-12_21h01.12.945,Tarea de decisión léxica,2024.2.5,MacIntel,119.047619,,,,,,,,,,,,,,,,,,,,,,,,505.7789,506.9195,a,1,0.478,1,506.9196,507.4201,,,,,,398,FEM,NOWORD,DIS,150,trigi,,el,,0.478,,507.4218,507.4231,-0.114934172,-0.302155671,0,0,0,,0,223,223,397,1,tribu,,,,
,,,,,,5fd1ddefbdcc381f5ace15d4,676192165fb32c2e1fb7aee6,67d1e7fc38f520190175ebe9,2025-03-12_21h01.12.945,Tarea de decisión léxica,2024.2.5,MacIntel,119.047619,,,,,,,,,,,,,,,,,,,,,,,,507.4241,508.6215,a,1,0.5397,1,508.6215,509.1201,,,,,,44,FEM,NOWORD,AGR,150,meda,,la,,0.5397,,509.1202,509.1204,-0.114934172,-0.302155671,0,0,0,,0,224,224,43,1,pena,,,,
,,,,,,5fd1ddefbdcc381f5ace15d4,676192165fb32c2e1fb7aee6,67d1e7fc38f520190175ebe9,2025-03-12_21h01.12.945,Tarea de decisión léxica,2024.2.5,MacIntel,119.047619,,,,,,,,,,,,,,,,,,,,,,,,509.1221,510.1716,l,1,0.3889,1,510.1718,510.6698,,,,,,7,MAS,WORD,AGR,150,hijo,,el,,0.3889,,510.6699,510.67,-0.114934172,-0.302155671,0,0,0,,0,225,225,6,1,nivo,,,,
,,,,,,5fd1ddefbdcc381f5ace15d4,676192165fb32c2e1fb7aee6,67d1e7fc38f520190175ebe9,2025-03-12_21h01.12.945,Tarea de decisión léxica,2024.2.5,MacIntel,119.047619,,,,,,,,,,,,,,,,,,,,,,,,510.6715,511.6792,l,1,0.3465,1,511.6794,512.1781,,,,,,289,FEM,WORD,AGR,150,bomba,,la,,0.3465,,512.1781,512.1783,-0.114934172,-0.302155671,0,0,0,,0,226,226,288,1,bumpa,,,,
,,,,,,5fd1ddefbdcc381f5ace15d4,676192165fb32c2e1fb7aee6,67d1e7fc38f520190175ebe9,2025-03-12_21h01.12.945,Tarea de decisión léxica,2024.2.5,MacIntel,119.047619,,,,,,,,,,,,,,,,,,,,,,,,512.1798,513.2446,a,1,0.401,1,513.2447,513.7449,,,,,,414,FEM,NOWORD,DIS,150,bieda,,el,,0.401,,513.7466,513.7478,-0.114934172,-0.302155671,0,0,0,,0,227,227,413,1,rueda,,,,
,,,,,,5fd1ddefbdcc381f5ace15d4,676192165fb32c2e1fb7aee6,67d1e7fc38f520190175ebe9,2025-03-12_21h01.12.945,Tarea de decisión léxica,2024.2.5,MacIntel,119.047619,,,,,,,,,,,,,,,,,,,,,,,,513.7487,514.6858,l,1,0.2756,1,514.6858,515.1865,,,,,,105,FEM,WORD,DIS,150,sopa,,el,,0.2756,,515.1866,515.1868,-0.114934172,-0.302155671,0,0,0,,0,228,228,104,1,vina,,,,
,,,,,,5fd1ddefbdcc381f5ace15d4,676192165fb32c2e1fb7aee6,67d1e7fc38f520190175ebe9,2025-03-12_21h01.12.945,Tarea de decisión léxica,2024.2.5,MacIntel,119.047619,,,,,,,,,,,,,,,,,,,,,,,,515.1882,516.2195,a,1,0.368,1,516.2196,516.7192,,,,,,184,FEM,NOWORD,AGR,150,raad,,la,,0.368,,516.7193,516.7193,-0.114934172,-0.302155671,0,0,0,,0,229,229,183,1,raya,,,,
,,,,,,5fd1ddefbdcc381f5ace15d4,676192165fb32c2e1fb7aee6,67d1e7fc38f520190175ebe9,2025-03-12_21h01.12.945,Tarea de decisión léxica,2024.2.5,MacIntel,119.047619,,,,,,,,,,,,,,,,,,,,,,,,516.7208,518.0277,a,0,0.6447,0,518.0286,518.5277,,,,,,9,MAS,WORD,DIS,150,tipo,,la,,0.6447,,518.5277,518.5279,-0.114934172,-0.302155671,0,0,0,,0,230,230,8,1,sibo,,,,
,,,,,,5fd1ddefbdcc381f5ace15d4,676192165fb32c2e1fb7aee6,67d1e7fc38f520190175ebe9,2025-03-12_21h01.12.945,Tarea de decisión léxica,2024.2.5,MacIntel,119.047619,,,,,,,,,,,,,,,,,,,,,,,,518.5288,519.7028,a,1,0.5089,1,519.7036,520.2032,,,,,,30,MAS,NOWORD,DIS,150,pono,,la,,0.5089,,520.2033,520.2036,-0.114934172,-0.302155671,0,0,0,,0,231,231,29,1,modo,,,,
,,,,,,5fd1ddefbdcc381f5ace15d4,676192165fb32c2e1fb7aee6,67d1e7fc38f520190175ebe9,2025-03-12_21h01.12.945,Tarea de decisión léxica,2024.2.5,MacIntel,119.047619,,,,,,,,,,,,,,,,,,,,,,,,520.2057,521.3778,a,1,0.511,1,521.3779,521.8777,,,,,,382,MAS,NOWORD,DIS,150,nusor,,la,,0.511,,521.8783,521.8788,-0.114934172,-0.302155671,0,0,0,,0,232,232,381,1,humor,,,,
,,,,,,5fd1ddefbdcc381f5ace15d4,676192165fb32c2e1fb7aee6,67d1e7fc38f520190175ebe9,2025-03-12_21h01.12.945,Tarea de decisión léxica,2024.2.5,MacIntel,119.047619,,,,,,,,,,,,,,,,,,,,,,,,521.8792,523.1196,a,1,0.5781,1,523.1197,523.6192,,,,,,378,MAS,NOWORD,DIS,150,gaulo,,la,,0.5781,,523.6193,523.6195,-0.114934172,-0.302155671,0,0,0,,0,233,233,377,1,hielo,,,,
,,,,,,5fd1ddefbdcc381f5ace15d4,676192165fb32c2e1fb7aee6,67d1e7fc38f520190175ebe9,2025-03-12_21h01.12.945,Tarea de decisión léxica,2024.2.5,MacIntel,119.047619,,,,,,,,,,,,,,,,,,,,,,,,523.6209,524.7604,a,1,0.4751,1,524.7605,525.2618,,,,,,148,FEM,NOWORD,AGR,150,pama,,la,,0.4751,,525.2619,525.262,-0.114934172,-0.302155671,0,0,0,,0,234,234,147,1,hoja,,,,
,,,,,,5fd1ddefbdcc381f5ace15d4,676192165fb32c2e1fb7aee6,67d1e7fc38f520190175ebe9,2025-03-12_21h01.12.945,Tarea de decisión léxica,2024.2.5,MacIntel,119.047619,,,,,,,,,,,,,,,,,,,,,,,,525.2636,526.2445,a,1,0.3157,1,526.2446,526.7449,,,,,,214,FEM,NOWORD,DIS,150,bana,,el,,0.3157,,526.7452,526.7454,-0.114934172,-0.302155671,0,0,0,,0,235,235,213,1,rama,,,,
,,,,,,5fd1ddefbdcc381f5ace15d4,676192165fb32c2e1fb7aee6,67d1e7fc38f520190175ebe9,2025-03-12_21h01.12.945,Tarea de decisión léxica,2024.2.5,MacIntel,119.047619,,,,,,,,,,,,,,,,,,,,,,,,526.7467,527.8115,a,1,0.4048,1,527.8117,528.3107,,,,,,146,MAS,NOWORD,DIS,150,nobo,,la,,0.4048,,528.3108,528.311,-0.114934172,-0.302155671,0,0,0,,0,236,236,145,1,león,,,,
,,,,,,5fd1ddefbdcc381f5ace15d4,676192165fb32c2e1fb7aee6,67d1e7fc38f520190175ebe9,2025-03-12_21h01.12.945,Tarea de decisión léxica,2024.2.5,MacIntel,119.047619,,,,,,,,,,,,,,,,,,,,,,,,528.313,529.469,a,1,0.4909,1,529.4691,529.963,,,,,,310,FEM,NOWORD,DIS,150,tirra,,el,,0.4909,,529.9644,529.966,-0.114934172,-0.302155671,0,0,0,,0,237,237,309,1,silla,,,,
,,,,,,5fd1ddefbdcc381f5ace15d4,676192165fb32c2e1fb7aee6,67d1e7fc38f520190175ebe9,2025-03-12_21h01.12.945,Tarea de decisión léxica,2024.2.5,MacIntel,119.047619,,,,,,,,,,,,,,,,,,,,,,,,529.9666,530.9943,l,1,0.3676,1,530.9945,531.4943,,,,,,187,MAS,WORD,AGR,150,mito,,el,,0.3676,,531.4944,531.4945,-0.114934172,-0.302155671,0,0,0,,0,238,238,186,1,suto,,,,
,,,,,,5fd1ddefbdcc381f5ace15d4,676192165fb32c2e1fb7aee6,67d1e7fc38f520190175ebe9,2025-03-12_21h01.12.945,Tarea de decisión léxica,2024.2.5,MacIntel,119.047619,,,,,,,,,,,,,,,,,,,,,,,,531.4958,532.5031,l,1,0.3412,1,532.5031,533.0035,,,,,,127,MAS,WORD,AGR,150,pico,,el,,0.3412,,533.0035,533.0037,-0.114934172,-0.302155671,0,0,0,,0,239,239,126,1,itio,,,,
,,,,,,5fd1ddefbdcc381f5ace15d4,676192165fb32c2e1fb7aee6,67d1e7fc38f520190175ebe9,2025-03-12_21h01.12.945,Tarea de decisión léxica,2024.2.5,MacIntel,119.047619,,,,,,,,,,,,,,,,,,,,,,,,533.0058,534.0198,l,1,0.3542,1,534.02,534.5199,,,,,,271,FEM,WORD,AGR,150,señal,,la,,0.3542,,534.52,534.5202,-0.114934172,-0.302155671,0,0,0,,0,240,240,270,1,refal,,,,
,,,,,,5fd1ddefbdcc381f5ace15d4,676192165fb32c2e1fb7aee6,67d1e7fc38f520190175ebe9,2025-03-12_21h01.12.945,Tarea de decisión léxica,2024.2.5,MacIntel,119.047619,,,,,,,,,,,,,,,,,,,,,,,,534.5223,535.7025,a,1,0.5162,1,535.7026,536.2026,,,,,,48,MAS,NOWORD,AGR,150,chub,,el,,0.5162,,536.2028,536.2028,-0.114934172,-0.302155671,0,0,0,,0,241,241,47,1,club,,,,
,,,,,,5fd1ddefbdcc381f5ace15d4,676192165fb32c2e1fb7aee6,67d1e7fc38f520190175ebe9,2025-03-12_21h01.12.945,Tarea de decisión léxica,2024.2.5,MacIntel,119.047619,,,,,,,,,,,,,,,,,,,,,,,,536.2042,537.3542,a,1,0.4888,1,537.3544,537.8543,,,,,,406,FEM,NOWORD,DIS,150,rarra,,el,,0.4888,,537.8561,537.8573,-0.114934172,-0.302155671,0,0,0,,0,242,242,405,1,barra,,,,
,,,,,,5fd1ddefbdcc381f5ace15d4,676192165fb32c2e1fb7aee6,67d1e7fc38f520190175ebe9,2025-03-12_21h01.12.945,Tarea de decisión léxica,2024.2.5,MacIntel,119.047619,,,,,,,,,,,,,,,,,,,,,,,,537.8583,538.9613,l,1,0.4419,1,538.9613,539.4606,,,,,,329,MAS,WORD,DIS,150,hueso,,la,,0.4419,,539.4607,539.4608,-0.114934172,-0.302155671,0,0,0,,0,243,243,328,1,nueno,,,,
,,,,,,5fd1ddefbdcc381f5ace15d4,676192165fb32c2e1fb7aee6,67d1e7fc38f520190175ebe9,2025-03-12_21h01.12.945,Tarea de decisión léxica,2024.2.5,MacIntel,119.047619,,,,,,,,,,,,,,,,,,,,,,,,539.4621,540.6859,l,1,0.5592,1,540.6859,541.1863,,,,,,435,MAS,WORD,DIS,150,ritmo,,la,,0.5592,,541.1863,541.1865,-0.114934172,-0.302155671,0,0,0,,0,244,244,434,1,ricno,,,,
,,,,,,5fd1ddefbdcc381f5ace15d4,676192165fb32c2e1fb7aee6,67d1e7fc38f520190175ebe9,2025-03-12_21h01.12.945,Tarea de decisión léxica,2024.2.5,MacIntel,119.047619,,,,,,,,,,,,,,,,,,,,,,,,541.188,542.4697,l,1,0.6194,1,542.4698,542.97,,,,,,397,FEM,WORD,AGR,150,tribu,,la,,0.6194,,542.9701,542.9702,-0.114934172,-0.302155671,0,0,0,,0,245,245,396,1,trigi,,,,
,,,,,,5fd1ddefbdcc381f5ace15d4,676192165fb32c2e1fb7aee6,67d1e7fc38f520190175ebe9,2025-03-12_21h01.12.945,Tarea de decisión léxica,2024.2.5,MacIntel,119.047619,,,,,,,,,,,,,,,,,,,,,,,,542.9716,544.2699,a,1,0.6322,1,544.2701,544.7693,,,,,,420,MAS,NOWORD,AGR,150,chudo,,el,,0.6322,,544.7694,544.7696,-0.114934172,-0.302155671,0,0,0,,0,246,246,419,1,truco,,,,
,,,,,,5fd1ddefbdcc381f5ace15d4,676192165fb32c2e1fb7aee6,67d1e7fc38f520190175ebe9,2025-03-12_21h01.12.945,Tarea de decisión léxica,2024.2.5,MacIntel,119.047619,,,,,,,,,,,,,,,,,,,,,,,,544.7708,545.8775,a,1,0.4418,1,545.8777,546.3783,,,,,,32,FEM,NOWORD,AGR,150,bova,,la,,0.4418,,546.3796,546.3808,-0.114934172,-0.302155671,0,0,0,,0,247,247,31,1,ropa,,,,
,,,,,,5fd1ddefbdcc381f5ace15d4,676192165fb32c2e1fb7aee6,67d1e7fc38f520190175ebe9,2025-03-12_21h01.12.945,Tarea de decisión léxica,2024.2.5,MacIntel,119.047619,,,,,,,,,,,,,,,,,,,,,,,,546.3819,547.5197,a,1,0.4782,1,547.5198,548.0187,,,,,,82,FEM,NOWORD,DIS,150,vasa,,el,,0.4782,,548.0188,548.0189,-0.114934172,-0.302155671,0,0,0,,0,248,248,81,1,dama,,,,
,,,,,,5fd1ddefbdcc381f5ace15d4,676192165fb32c2e1fb7aee6,67d1e7fc38f520190175ebe9,2025-03-12_21h01.12.945,Tarea de decisión léxica,2024.2.5,MacIntel,119.047619,,,,,,,,,,,,,,,,,,,,,,,,548.0206,549.103,a,1,0.4116,1,549.1032,549.6032,,,,,,96,FEM,NOWORD,AGR,151,neda,,la,,0.4116,,549.6032,549.6035,-0.114934172,-0.302155671,0,0,0,,0,249,249,95,1,moda,,,,
,,,,,,5fd1ddefbdcc381f5ace15d4,676192165fb32c2e1fb7aee6,67d1e7fc38f520190175ebe9,2025-03-12_21h01.12.945,Tarea de decisión léxica,2024.2.5,MacIntel,119.047619,,,,,,,,,,,,,,,,,,,,,,,,549.6051,550.6787,l,1,0.4094,1,550.6789,551.1783,,,,,,133,FEM,WORD,AGR,150,vaca,,la,,0.4094,,551.1785,551.1786,-0.114934172,-0.302155671,0,0,0,,0,250,250,132,1,vesa,,,,
,,,,,,5fd1ddefbdcc381f5ace15d4,676192165fb32c2e1fb7aee6,67d1e7fc38f520190175ebe9,2025-03-12_21h01.12.945,Tarea de decisión léxica,2024.2.5,MacIntel,119.047619,,,,,,,,,,,,,,,,,,,,,,,,551.1805,552.2876,a,1,0.4465,1,552.2877,552.7866,,,,,,374,FEM,NOWORD,DIS,150,pogza,,el,,0.4465,,552.7879,552.7889,-0.114934172,-0.302155671,0,0,0,,0,251,251,373,1,pizza,,,,
,,,,,,5fd1ddefbdcc381f5ace15d4,676192165fb32c2e1fb7aee6,67d1e7fc38f520190175ebe9,2025-03-12_21h01.12.945,Tarea de decisión léxica,2024.2.5,MacIntel,119.047619,,,,,,,,,,,,,,,,,,,,,,,,552.7896,553.9715,l,1,0.5223,1,553.9717,554.4706,,,,,,137,MAS,WORD,DIS,150,nene,,la,,0.5223,,554.4708,554.4709,-0.114934172,-0.302155671,0,0,0,,0,252,252,136,1,pamo,,,,
,,,,,,5fd1ddefbdcc381f5ace15d4,676192165fb32c2e1fb7aee6,67d1e7fc38f520190175ebe9,2025-03-12_21h01.12.945,Tarea de decisión léxica,2024.2.5,MacIntel,119.047619,,,,,,,,,,,,,,,,,,,,,,,,554.4725,555.5108,a,1,0.3763,1,555.5109,556.0127,,,,,,74,MAS,NOWORD,DIS,150,omio,,la,,0.3763,,556.0128,556.0131,-0.114934172,-0.302155671,0,0,0,,0,253,253,73,1,odio,,,,
,,,,,,5fd1ddefbdcc381f5ace15d4,676192165fb32c2e1fb7aee6,67d1e7fc38f520190175ebe9,2025-03-12_21h01.12.945,Tarea de decisión léxica,2024.2.5,MacIntel,119.047619,,,,,,,,,,,,,,,,,,,,,,,,556.0147,556.9697,l,1,0.2929,1,556.9699,557.4697,,,,,,305,MAS,WORD,AGR,150,avión,,el,,0.2929,,557.4698,557.4699,-0.114934172,-0.302155671,0,0,0,,0,254,254,304,1,adiol,,,,
,,,,,,5fd1ddefbdcc381f5ace15d4,676192165fb32c2e1fb7aee6,67d1e7fc38f520190175ebe9,2025-03-12_21h01.12.945,Tarea de decisión léxica,2024.2.5,MacIntel,119.047619,,,,,,,,,,,,,,,,,,,,,,,,557.4714,558.4029,l,0,0.2672,0,558.4035,558.9028,,,,,,270,MAS,NOWORD,DIS,150,mello,,la,,0.2672,,558.9028,558.9029,-0.114934172,-0.302155671,0,0,0,,0,255,255,269,1,perro,,,,
,,,,,,5fd1ddefbdcc381f5ace15d4,676192165fb32c2e1fb7aee6,67d1e7fc38f520190175ebe9,2025-03-12_21h01.12.945,Tarea de decisión léxica,2024.2.5,MacIntel,119.047619,,,,,,,,,,,,,,,,,,,,,,,,558.9037,559.8947,l,1,0.3248,1,559.8955,560.3944,,,,,,461,FEM,WORD,AGR,150,tabla,,la,,0.3248,,560.3953,560.3959,-0.114934172,-0.302155671,0,0,0,,0,256,256,460,1,pagra,,,,
,,,,,,5fd1ddefbdcc381f5ace15d4,676192165fb32c2e1fb7aee6,67d1e7fc38f520190175ebe9,2025-03-12_21h01.12.945,Tarea de decisión léxica,2024.2.5,MacIntel,119.047619,,,,,,,,,,,,,,,,,,,,,,,,560.3964,561.4363,l,1,0.3733,1,561.4365,561.9366,,,,,,409,MAS,WORD,AGR,150,carro,,el,,0.3733,,561.9366,561.9368,-0.114934172,-0.302155671,0,0,0,,0,257,257,408,1,pafro,,,,
,,,,,,5fd1ddefbdcc381f5ace15d4,676192165fb32c2e1fb7aee6,67d1e7fc38f520190175ebe9,2025-03-12_21h01.12.945,Tarea de decisión léxica,2024.2.5,MacIntel,119.047619,,,,,,,,,,,,,,,,,,,,,,,,561.9382,563.1696,a,1,0.5704,1,563.1697,563.6689,,,,,,2,FEM,NOWORD,DIS,150,mada,,el,,0.5704,,563.6689,563.669,-0.114934172,-0.302155671,0,0,0,,0,258,258,1,1,casa,,,,
,,,,,,5fd1ddefbdcc381f5ace15d4,676192165fb32c2e1fb7aee6,67d1e7fc38f520190175ebe9,2025-03-12_21h01.12.945,Tarea de decisión léxica,2024.2.5,MacIntel,119.047619,,,,,,,,,,,,,,,,,,,,,,,,563.6697,564.7692,l,1,0.4406,1,564.7693,565.2713,,,,,,49,FEM,WORD,DIS,150,edad,,el,,0.4406,,565.2715,565.2716,-0.114934172,-0.302155671,0,0,0,,0,259,259,48,1,ecat,,,,
,,,,,,5fd1ddefbdcc381f5ace15d4,676192165fb32c2e1fb7aee6,67d1e7fc38f520190175ebe9,2025-03-12_21h01.12.945,Tarea de decisión léxica,2024.2.5,MacIntel,119.047619,,,,,,,,,,,,,,,,,,,,,,,,565.2739,566.3616,a,1,0.4246,1,566.3617,566.8618,,,,,,176,FEM,NOWORD,AGR,150,hosa,,la,,0.4246,,566.8619,566.862,-0.114934172,-0.302155671,0,0,0,,0,260,260,175,1,goma,,,,
