counterbalancing_condition,consent_prescreening.block_1/declare_consent,consent_prescreening.block_1/age_years,consent_prescreening.block_1/gender,consent_prescreening.block_1/language_disorder,consent_prescreening.block_1/first_language,PROLIFIC_PID,STUDY_ID,SESSION_ID,date,expName,psychopyVersion,OS,frameRate,check_prescreening_answers.started,check_prescreening_answers.stopped,Instructions.started,Instructions.stopped,instr_done_keyboard.keys,instr_done_keyboard.rt,instr_done_keyboard.duration,instr_done_touch.x,instr_done_touch.y,instr_done_touch.leftButton,instr_done_touch.midButton,instr_done_touch.rightButton,instruction_pages.thisRepN,instruction_pages.thisTrialN,instruction_pages.thisN,instruction_pages.thisIndex,instruction_pages.ran,pageN,phase,instruct_text,has_image,instruct_image,presentTrial.started,presentTrial.stopped,response.keys,response.corr,response.rt,response.duration,rt,corr,feedback.started,feedback.stopped,practice_trials.thisRepN,practice_trials.thisTrialN,practice_trials.thisN,practice_trials.thisIndex,practice_trials.ran,TrialID,Gender,StimulusType,Condition,PrimeDuration,Prime,len,Flanker,corrAns,Break.started,Break.stopped,break_done_touch.x,break_done_touch.y,break_done_touch.leftButton,break_done_touch.midButton,break_done_touch.rightButton,break_done_keyboard.keys,experiment_trials.thisRepN,experiment_trials.thisTrialN,experiment_trials.thisN,experiment_trials.thisIndex,experiment_trials.ran,PairedWith,break_done_keyboard.rt,break_done_keyboard.duration,break_done_touch.clicked_name,End.started,End.stopped
1,"[""over_18"",""comfortable"",""read_info"",""consent_given""]",27,F,"[""none""]","[""spanish""]",6017320a527c3897e958d393,676192165fb32c2e1fb7aee6,67d0c8ff326b88ac50e12780,2025-03-11_20h40.59.508,Tarea de decisión léxica,2024.2.5,Win32,142.8571429,,,,,,,,,,,,,,,,,,,,,,,,,,,,,,,,,,,,,,,,,,,,,,,,,,,,,,,,,,,,,,,,,
,,,,,,6017320a527c3897e958d393,676192165fb32c2e1fb7aee6,67d0c8ff326b88ac50e12780,2025-03-11_20h40.59.508,Tarea de decisión léxica,2024.2.5,Win32,142.8571429,14.7861,14.7862,,,,,,,,,,,,,,,,,,,,,,,,,,,,,,,,,,,,,,,,,,,,,,,,,,,,,,,,,,,,,,,
,,,,,,6017320a527c3897e958d393,676192165fb32c2e1fb7aee6,67d0c8ff326b88ac50e12780,2025-03-11_20h40.59.508,Tarea de decisión léxica,2024.2.5,Win32,142.8571429,,,14.8041,17.3021,space,2.46,,-0.564380265,-0.169258568,0,0,0,0,0,0,0,1,1,instructions,"INSTRUCCIONES
Va a realizar una prueba de decisión léxica. Desde el comienzo de la prueba mire siempre al centro de la pantalla. Se presentará una serie de cadenas de letras, una a la vez, en la pantalla. Su tarea consiste en determinar si cada cadena de letras constituye una palabra real en español o una no-palabra (una secuencia de letras que no constituye una palabra real). 

Pulse la tecla ESPACIO para continuar.",0,keyboardresponseNW.png,,,,,,,,,,,,,,,,,,,,,,,,,,,,,,,,,,,,,,,,,,,
,,,,,,6017320a527c3897e958d393,676192165fb32c2e1fb7aee6,67d0c8ff326b88ac50e12780,2025-03-11_20h40.59.508,Tarea de decisión léxica,2024.2.5,Win32,142.8571429,,,17.3044,27.7134,space,10.3987,,-0.564380265,-0.169258568,0,0,0,0,1,1,1,1,2,instructions,"El procedimiento es el siguiente: Aparecerán dos barras verticales posicionadas en el centro de la pantalla, separadas por un pequeño espacio.Por favor, enfoque su atención en el espacio entre las barras. Esto preparará sus ojos para la siguiente cadena de letras, que aparecerá entre las dos barras durante un instante.

Pulse la tecla ESPACIO para continuar.",0,keyboardresponseNW.png,,,,,,,,,,,,,,,,,,,,,,,,,,,,,,,,,,,,,,,,,,,
,,,,,,6017320a527c3897e958d393,676192165fb32c2e1fb7aee6,67d0c8ff326b88ac50e12780,2025-03-11_20h40.59.508,Tarea de decisión léxica,2024.2.5,Win32,142.8571429,,,27.7152,35.4015,space,7.6309,,-0.564380265,-0.169258568,0,0,0,0,2,2,2,1,3,instructions,"En el teclado de su dispositivo, pulse la tecla ""L"" si la cadena de letras es una palabra real en español (por ejemplo: ""mano"") y la tecla ""A"" si la cadena de letras es una no-palabra (por ejemplo: ""minu"").
Pulse la tecla ESPACIO para continuar.",1,keyboardresponseNW.png,,,,,,,,,,,,,,,,,,,,,,,,,,,,,,,,,,,,,,,,,,,
,,,,,,6017320a527c3897e958d393,676192165fb32c2e1fb7aee6,67d0c8ff326b88ac50e12780,2025-03-11_20h40.59.508,Tarea de decisión léxica,2024.2.5,Win32,142.8571429,,,35.4039,39.3601,space,3.9448,,-0.564380265,-0.169258568,0,0,0,0,3,3,3,1,4,instructions,"Es muy importante que responda con la mayor rapidez y precisión posibles. Si no responde dentro de 2 segundos, aparecerá el mensaje ""Muy lento"" y el experimento pasará a la siguiente palabra. Inmediatamente después de su respuesta se indicará si fue correcta o no. Los primeros 15 intentos serán de práctica y habrá dos descansos durante la prueba.

Pulse la tecla ESPACIO  para iniciar la parte de práctica.",0,keyboardresponseNW.png,,,,,,,,,,,,,,,,,,,,,,,,,,,,,,,,,,,,,,,,,,,
,,,,,,6017320a527c3897e958d393,676192165fb32c2e1fb7aee6,67d0c8ff326b88ac50e12780,2025-03-11_20h40.59.508,Tarea de decisión léxica,2024.2.5,Win32,142.8571429,,,,,,,,,,,,,,,,,,,,,,,39.3712,40.5133,l,0,0.4837,,0.4837,0,40.5136,41.0132,0,0,0,0,1,1001,FEM,NOWORD,AGR,150,croz,4,la,a,,,,,,,,,,,,,,,,,,,
,,,,,,6017320a527c3897e958d393,676192165fb32c2e1fb7aee6,67d0c8ff326b88ac50e12780,2025-03-11_20h40.59.508,Tarea de decisión léxica,2024.2.5,Win32,142.8571429,,,,,,,,,,,,,,,,,,,,,,,41.0146,42.3537,a,0,0.6815,,0.6815,0,42.3538,42.8539,0,1,1,8,1,1009,FEM,WORD,AGR,150,viejo,5,la,l,,,,,,,,,,,,,,,,,,,
,,,,,,6017320a527c3897e958d393,676192165fb32c2e1fb7aee6,67d0c8ff326b88ac50e12780,2025-03-11_20h40.59.508,Tarea de decisión léxica,2024.2.5,Win32,142.8571429,,,,,,,,,,,,,,,,,,,,,,,42.8547,44.0065,l,1,0.496,,0.496,1,44.0076,44.5067,0,2,2,5,1,1006,FEM,WORD,AGR,150,cara,4,la,l,,,,,,,,,,,,,,,,,,,
,,,,,,6017320a527c3897e958d393,676192165fb32c2e1fb7aee6,67d0c8ff326b88ac50e12780,2025-03-11_20h40.59.508,Tarea de decisión léxica,2024.2.5,Win32,142.8571429,,,,,,,,,,,,,,,,,,,,,,,44.5078,45.8054,a,1,0.6414,,0.6414,1,45.8055,46.3056,0,3,3,3,1,1004,FEM,NOWORD,AGR,150,bireo,5,la,a,,,,,,,,,,,,,,,,,,,
,,,,,,6017320a527c3897e958d393,676192165fb32c2e1fb7aee6,67d0c8ff326b88ac50e12780,2025-03-11_20h40.59.508,Tarea de decisión léxica,2024.2.5,Win32,142.8571429,,,,,,,,,,,,,,,,,,,,,,,46.3069,47.4029,l,1,0.4415,,0.4415,1,47.4031,47.9029,0,4,4,6,1,1007,MAS,WORD,DIS,150,masa,4,la,l,,,,,,,,,,,,,,,,,,,
,,,,,,6017320a527c3897e958d393,676192165fb32c2e1fb7aee6,67d0c8ff326b88ac50e12780,2025-03-11_20h40.59.508,Tarea de decisión léxica,2024.2.5,Win32,142.8571429,,,,,,,,,,,,,,,,,,,,,,,47.9041,48.9727,l,1,0.4141,,0.4141,1,48.9727,49.4727,0,5,5,9,1,1010,MAS,WORD,DIS,150,video,5,la,l,,,,,,,,,,,,,,,,,,,
,,,,,,6017320a527c3897e958d393,676192165fb32c2e1fb7aee6,67d0c8ff326b88ac50e12780,2025-03-11_20h40.59.508,Tarea de decisión léxica,2024.2.5,Win32,142.8571429,,,,,,,,,,,,,,,,,,,,,,,49.4739,50.4796,l,0,0.3495,,0.3495,0,50.4803,50.9797,0,6,6,4,1,1005,MAS,NOWORD,DIS,150,nobad,5,la,a,,,,,,,,,,,,,,,,,,,
,,,,,,6017320a527c3897e958d393,676192165fb32c2e1fb7aee6,67d0c8ff326b88ac50e12780,2025-03-11_20h40.59.508,Tarea de decisión léxica,2024.2.5,Win32,142.8571429,,,,,,,,,,,,,,,,,,,,,,,50.9805,52.3965,a,1,0.7604,,0.7604,1,52.3972,52.8968,0,7,7,1,1,1002,FEM,NOWORD,DIS,150,mabo,4,el,a,,,,,,,,,,,,,,,,,,,
,,,,,,6017320a527c3897e958d393,676192165fb32c2e1fb7aee6,67d0c8ff326b88ac50e12780,2025-03-11_20h40.59.508,Tarea de decisión léxica,2024.2.5,Win32,142.8571429,,,,,,,,,,,,,,,,,,,,,,,52.8978,54.2927,a,1,0.7381,,0.7381,1,54.2928,54.7927,0,8,8,2,1,1003,FEM,NOWORD,DIS,150,muvor,5,el,a,,,,,,,,,,,,,,,,,,,
,,,,,,6017320a527c3897e958d393,676192165fb32c2e1fb7aee6,67d0c8ff326b88ac50e12780,2025-03-11_20h40.59.508,Tarea de decisión léxica,2024.2.5,Win32,142.8571429,,,,,,,,,,,,,,,,,,,,,,,54.794,55.8485,l,1,0.3974,,0.3974,1,55.8486,56.3486,0,9,9,7,1,1008,MAS,WORD,DIS,150,frío,4,la,l,,,,,,,,,,,,,,,,,,,
,,,,,,6017320a527c3897e958d393,676192165fb32c2e1fb7aee6,67d0c8ff326b88ac50e12780,2025-03-11_20h40.59.508,Tarea de decisión léxica,2024.2.5,Win32,142.8571429,,,60.4551,64.7873,space,4.3201,,-0.564380265,-0.169258568,0,0,0,,,,,,,,,,,64.8177,66.0165,l,1,0.5419,,0.5419,1,66.0167,66.5165,,,,,,381,MAS,WORD,AGR,150,humor,,el,,66.5168,66.5202,-0.564380265,-0.169258568,0,0,0,,0,0,0,380,1,nusor,,,,,
,,,,,,6017320a527c3897e958d393,676192165fb32c2e1fb7aee6,67d0c8ff326b88ac50e12780,2025-03-11_20h40.59.508,Tarea de decisión léxica,2024.2.5,Win32,142.8571429,,,,,,,,,,,,,,,,,,,,,,,66.5208,67.6626,a,1,0.4837,,0.4837,1,67.6626,68.1625,,,,,,254,MAS,NOWORD,AGR,150,trido,,el,,68.1625,68.1627,-0.564380265,-0.169258568,0,0,0,,0,1,1,253,1,chico,,,,,
,,,,,,6017320a527c3897e958d393,676192165fb32c2e1fb7aee6,67d0c8ff326b88ac50e12780,2025-03-11_20h40.59.508,Tarea de decisión léxica,2024.2.5,Win32,142.8571429,,,,,,,,,,,,,,,,,,,,,,,68.1636,69.1141,l,0,0.2922,,0.2922,0,69.1147,69.6139,,,,,,214,FEM,NOWORD,AGR,150,bana,,la,,69.6151,69.6156,-0.564380265,-0.169258568,0,0,0,,0,2,2,213,1,rama,,,,,
,,,,,,6017320a527c3897e958d393,676192165fb32c2e1fb7aee6,67d0c8ff326b88ac50e12780,2025-03-11_20h40.59.508,Tarea de decisión léxica,2024.2.5,Win32,142.8571429,,,,,,,,,,,,,,,,,,,,,,,69.616,70.9199,a,1,0.6459,,0.6459,1,70.9204,71.42,,,,,,4,FEM,NOWORD,DIS,150,dica,,el,,71.4201,71.4202,-0.564380265,-0.169258568,0,0,0,,0,3,3,3,1,vida,,,,,
,,,,,,6017320a527c3897e958d393,676192165fb32c2e1fb7aee6,67d0c8ff326b88ac50e12780,2025-03-11_20h40.59.508,Tarea de decisión léxica,2024.2.5,Win32,142.8571429,,,,,,,,,,,,,,,,,,,,,,,71.421,72.5451,a,1,0.4654,,0.4654,1,72.5451,73.045,,,,,,394,FEM,NOWORD,AGR,150,ashea,,la,,73.0451,73.0451,-0.564380265,-0.169258568,0,0,0,,0,4,4,393,1,aldea,,,,,
,,,,,,6017320a527c3897e958d393,676192165fb32c2e1fb7aee6,67d0c8ff326b88ac50e12780,2025-03-11_20h40.59.508,Tarea de decisión léxica,2024.2.5,Win32,142.8571429,,,,,,,,,,,,,,,,,,,,,,,73.0464,74.219,l,1,0.518,,0.518,1,74.2191,74.719,,,,,,297,MAS,WORD,DIS,150,grupo,,la,,74.719,74.7191,-0.564380265,-0.169258568,0,0,0,,0,5,5,296,1,brubo,,,,,
,,,,,,6017320a527c3897e958d393,676192165fb32c2e1fb7aee6,67d0c8ff326b88ac50e12780,2025-03-11_20h40.59.508,Tarea de decisión léxica,2024.2.5,Win32,142.8571429,,,,,,,,,,,,,,,,,,,,,,,74.72,75.8301,a,1,0.456,,0.456,1,75.8302,76.3303,,,,,,350,MAS,NOWORD,AGR,150,cosir,,el,,76.3305,76.3306,-0.564380265,-0.169258568,0,0,0,,0,6,6,349,1,color,,,,,
,,,,,,6017320a527c3897e958d393,676192165fb32c2e1fb7aee6,67d0c8ff326b88ac50e12780,2025-03-11_20h40.59.508,Tarea de decisión léxica,2024.2.5,Win32,142.8571429,,,,,,,,,,,,,,,,,,,,,,,76.3313,77.5121,a,1,0.527,,0.527,1,77.5122,78.011,,,,,,94,FEM,NOWORD,AGR,150,rona,,la,,78.0122,78.0126,-0.564380265,-0.169258568,0,0,0,,0,7,7,93,1,bola,,,,,
,,,,,,6017320a527c3897e958d393,676192165fb32c2e1fb7aee6,67d0c8ff326b88ac50e12780,2025-03-11_20h40.59.508,Tarea de decisión léxica,2024.2.5,Win32,142.8571429,,,,,,,,,,,,,,,,,,,,,,,78.0131,79.039,l,1,0.3699,,0.3699,1,79.0391,79.5391,,,,,,415,FEM,WORD,AGR,150,jaula,,la,,79.5391,79.5393,-0.564380265,-0.169258568,0,0,0,,0,8,8,414,1,juira,,,,,
,,,,,,6017320a527c3897e958d393,676192165fb32c2e1fb7aee6,67d0c8ff326b88ac50e12780,2025-03-11_20h40.59.508,Tarea de decisión léxica,2024.2.5,Win32,142.8571429,,,,,,,,,,,,,,,,,,,,,,,79.54,80.6294,l,1,0.4341,,0.4341,1,80.6295,81.1296,,,,,,43,FEM,WORD,AGR,150,pena,,la,,81.1297,81.1298,-0.564380265,-0.169258568,0,0,0,,0,9,9,42,1,meda,,,,,
,,,,,,6017320a527c3897e958d393,676192165fb32c2e1fb7aee6,67d0c8ff326b88ac50e12780,2025-03-11_20h40.59.508,Tarea de decisión léxica,2024.2.5,Win32,142.8571429,,,,,,,,,,,,,,,,,,,,,,,81.1306,82.1852,a,1,0.3964,,0.3964,1,82.1853,82.6852,,,,,,112,MAS,NOWORD,DIS,150,siro,,la,,82.6852,82.6854,-0.564380265,-0.169258568,0,0,0,,0,10,10,111,1,muro,,,,,
,,,,,,6017320a527c3897e958d393,676192165fb32c2e1fb7aee6,67d0c8ff326b88ac50e12780,2025-03-11_20h40.59.508,Tarea de decisión léxica,2024.2.5,Win32,142.8571429,,,,,,,,,,,,,,,,,,,,,,,82.6862,83.831,l,1,0.4876,,0.4876,1,83.8311,84.3313,,,,,,191,FEM,WORD,AGR,150,pila,,la,,84.3325,84.3329,-0.564380265,-0.169258568,0,0,0,,0,11,11,190,1,bila,,,,,
,,,,,,6017320a527c3897e958d393,676192165fb32c2e1fb7aee6,67d0c8ff326b88ac50e12780,2025-03-11_20h40.59.508,Tarea de decisión léxica,2024.2.5,Win32,142.8571429,,,,,,,,,,,,,,,,,,,,,,,84.3334,85.248,l,1,0.2574,,0.2574,1,85.2482,85.7481,,,,,,13,FEM,WORD,AGR,150,hora,,la,,85.7482,85.7483,-0.564380265,-0.169258568,0,0,0,,0,12,12,12,1,nola,,,,,
,,,,,,6017320a527c3897e958d393,676192165fb32c2e1fb7aee6,67d0c8ff326b88ac50e12780,2025-03-11_20h40.59.508,Tarea de decisión léxica,2024.2.5,Win32,142.8571429,,,,,,,,,,,,,,,,,,,,,,,85.749,86.797,a,1,0.3945,,0.3945,1,86.7971,87.297,,,,,,12,MAS,NOWORD,DIS,150,bapo,,la,,87.2971,87.2971,-0.564380265,-0.169258568,0,0,0,,0,13,13,11,1,lado,,,,,
,,,,,,6017320a527c3897e958d393,676192165fb32c2e1fb7aee6,67d0c8ff326b88ac50e12780,2025-03-11_20h40.59.508,Tarea de decisión léxica,2024.2.5,Win32,142.8571429,,,,,,,,,,,,,,,,,,,,,,,87.2982,88.2066,l,1,0.2554,,0.2554,1,88.2068,88.7068,,,,,,27,MAS,WORD,AGR,150,baño,,el,,88.7069,88.707,-0.564380265,-0.169258568,0,0,0,,0,14,14,26,1,ravo,,,,,
,,,,,,6017320a527c3897e958d393,676192165fb32c2e1fb7aee6,67d0c8ff326b88ac50e12780,2025-03-11_20h40.59.508,Tarea de decisión léxica,2024.2.5,Win32,142.8571429,,,,,,,,,,,,,,,,,,,,,,,88.7078,89.6515,l,1,0.2882,,0.2882,1,89.6516,90.1514,,,,,,177,MAS,WORD,AGR,150,reto,,el,,90.1515,90.1516,-0.564380265,-0.169258568,0,0,0,,0,15,15,176,1,bito,,,,,
,,,,,,6017320a527c3897e958d393,676192165fb32c2e1fb7aee6,67d0c8ff326b88ac50e12780,2025-03-11_20h40.59.508,Tarea de decisión léxica,2024.2.5,Win32,142.8571429,,,,,,,,,,,,,,,,,,,,,,,90.1525,91.1308,a,1,0.3199,,0.3199,1,91.1309,91.631,,,,,,120,MAS,NOWORD,DIS,150,hooy,,la,,91.6321,91.6324,-0.564380265,-0.169258568,0,0,0,,0,16,16,119,1,pozo,,,,,
,,,,,,6017320a527c3897e958d393,676192165fb32c2e1fb7aee6,67d0c8ff326b88ac50e12780,2025-03-11_20h40.59.508,Tarea de decisión léxica,2024.2.5,Win32,142.8571429,,,,,,,,,,,,,,,,,,,,,,,91.6328,92.7282,a,1,0.4397,,0.4397,1,92.7283,93.2282,,,,,,62,FEM,NOWORD,AGR,150,efla,,la,,93.2284,93.2284,-0.564380265,-0.169258568,0,0,0,,0,17,17,61,1,obra,,,,,
,,,,,,6017320a527c3897e958d393,676192165fb32c2e1fb7aee6,67d0c8ff326b88ac50e12780,2025-03-11_20h40.59.508,Tarea de decisión léxica,2024.2.5,Win32,142.8571429,,,,,,,,,,,,,,,,,,,,,,,93.2291,94.1729,l,1,0.2868,,0.2868,1,94.173,94.6729,,,,,,355,FEM,WORD,AGR,150,regla,,la,,94.673,94.6731,-0.564380265,-0.169258568,0,0,0,,0,18,18,354,1,bepla,,,,,
,,,,,,6017320a527c3897e958d393,676192165fb32c2e1fb7aee6,67d0c8ff326b88ac50e12780,2025-03-11_20h40.59.508,Tarea de decisión léxica,2024.2.5,Win32,142.8571429,,,,,,,,,,,,,,,,,,,,,,,94.6739,95.7357,l,1,0.4041,,0.4041,1,95.7359,96.2355,,,,,,291,FEM,WORD,AGR,150,pista,,la,,96.2356,96.2357,-0.564380265,-0.169258568,0,0,0,,0,19,19,290,1,mesta,,,,,
,,,,,,6017320a527c3897e958d393,676192165fb32c2e1fb7aee6,67d0c8ff326b88ac50e12780,2025-03-11_20h40.59.508,Tarea de decisión léxica,2024.2.5,Win32,142.8571429,,,,,,,,,,,,,,,,,,,,,,,96.2365,97.2843,l,1,0.3893,,0.3893,1,97.2845,97.7843,,,,,,241,MAS,WORD,DIS,150,mundo,,la,,97.7844,97.7845,-0.564380265,-0.169258568,0,0,0,,0,20,20,240,1,mirdo,,,,,
,,,,,,6017320a527c3897e958d393,676192165fb32c2e1fb7aee6,67d0c8ff326b88ac50e12780,2025-03-11_20h40.59.508,Tarea de decisión léxica,2024.2.5,Win32,142.8571429,,,,,,,,,,,,,,,,,,,,,,,97.7854,98.8609,a,1,0.4176,,0.4176,1,98.8611,99.361,,,,,,414,FEM,NOWORD,AGR,150,bieda,,la,,99.3621,99.3625,-0.564380265,-0.169258568,0,0,0,,0,21,21,413,1,rueda,,,,,
,,,,,,6017320a527c3897e958d393,676192165fb32c2e1fb7aee6,67d0c8ff326b88ac50e12780,2025-03-11_20h40.59.508,Tarea de decisión léxica,2024.2.5,Win32,142.8571429,,,,,,,,,,,,,,,,,,,,,,,99.3631,100.2641,l,1,0.2484,,0.2484,1,100.2641,100.7642,,,,,,235,FEM,WORD,AGR,150,grúa,,la,,100.7643,100.7644,-0.564380265,-0.169258568,0,0,0,,0,22,22,234,1,tria,,,,,
,,,,,,6017320a527c3897e958d393,676192165fb32c2e1fb7aee6,67d0c8ff326b88ac50e12780,2025-03-11_20h40.59.508,Tarea de decisión léxica,2024.2.5,Win32,142.8571429,,,,,,,,,,,,,,,,,,,,,,,100.7652,101.8128,a,1,0.394,,0.394,1,101.8129,102.3127,,,,,,16,FEM,NOWORD,DIS,150,odea,,el,,102.3128,102.3129,-0.564380265,-0.169258568,0,0,0,,0,23,23,15,1,idea,,,,,
,,,,,,6017320a527c3897e958d393,676192165fb32c2e1fb7aee6,67d0c8ff326b88ac50e12780,2025-03-11_20h40.59.508,Tarea de decisión léxica,2024.2.5,Win32,142.8571429,,,,,,,,,,,,,,,,,,,,,,,102.3137,103.2155,l,1,0.2452,,0.2452,1,103.2157,103.7156,,,,,,365,FEM,WORD,AGR,150,ducha,,la,,103.7156,103.7157,-0.564380265,-0.169258568,0,0,0,,0,24,24,364,1,gulla,,,,,
,,,,,,6017320a527c3897e958d393,676192165fb32c2e1fb7aee6,67d0c8ff326b88ac50e12780,2025-03-11_20h40.59.508,Tarea de decisión léxica,2024.2.5,Win32,142.8571429,,,,,,,,,,,,,,,,,,,,,,,103.7165,104.6603,l,0,0.2888,,0.2888,0,104.6609,105.1603,,,,,,138,MAS,NOWORD,AGR,150,pamo,,el,,105.1603,105.1604,-0.564380265,-0.169258568,0,0,0,,0,25,25,137,1,nene,,,,,
,,,,,,6017320a527c3897e958d393,676192165fb32c2e1fb7aee6,67d0c8ff326b88ac50e12780,2025-03-11_20h40.59.508,Tarea de decisión léxica,2024.2.5,Win32,142.8571429,,,,,,,,,,,,,,,,,,,,,,,105.1613,106.1119,l,1,0.2928,,0.2928,1,106.1124,106.6118,,,,,,45,FEM,WORD,DIS,150,mesa,,el,,106.613,106.6134,-0.564380265,-0.169258568,0,0,0,,0,26,26,44,1,pema,,,,,
,,,,,,6017320a527c3897e958d393,676192165fb32c2e1fb7aee6,67d0c8ff326b88ac50e12780,2025-03-11_20h40.59.508,Tarea de decisión léxica,2024.2.5,Win32,142.8571429,,,,,,,,,,,,,,,,,,,,,,,106.6139,107.6537,a,1,0.3822,,0.3822,1,107.6538,108.1538,,,,,,384,FEM,NOWORD,DIS,150,brame,,el,,108.1538,108.1539,-0.564380265,-0.169258568,0,0,0,,0,27,27,383,1,frase,,,,,
,,,,,,6017320a527c3897e958d393,676192165fb32c2e1fb7aee6,67d0c8ff326b88ac50e12780,2025-03-11_20h40.59.508,Tarea de decisión léxica,2024.2.5,Win32,142.8571429,,,,,,,,,,,,,,,,,,,,,,,108.1546,109.0705,l,0,0.2572,,0.2572,0,109.0712,109.5706,,,,,,64,FEM,NOWORD,DIS,150,funa,,el,,109.5707,109.5708,-0.564380265,-0.169258568,0,0,0,,0,28,28,63,1,luna,,,,,
,,,,,,6017320a527c3897e958d393,676192165fb32c2e1fb7aee6,67d0c8ff326b88ac50e12780,2025-03-11_20h40.59.508,Tarea de decisión léxica,2024.2.5,Win32,142.8571429,,,,,,,,,,,,,,,,,,,,,,,109.5716,110.5429,l,1,0.3173,,0.3173,1,110.5434,111.043,,,,,,199,MAS,WORD,AGR,150,lazo,,el,,111.0431,111.0431,-0.564380265,-0.169258568,0,0,0,,0,29,29,198,1,fano,,,,,
,,,,,,6017320a527c3897e958d393,676192165fb32c2e1fb7aee6,67d0c8ff326b88ac50e12780,2025-03-11_20h40.59.508,Tarea de decisión léxica,2024.2.5,Win32,142.8571429,,,,,,,,,,,,,,,,,,,,,,,111.0438,112.0499,l,1,0.3454,,0.3454,1,112.0501,112.55,,,,,,351,MAS,WORD,AGR,150,vuelo,,el,,112.55,112.5502,-0.564380265,-0.169258568,0,0,0,,0,30,30,350,1,duepo,,,,,
,,,,,,6017320a527c3897e958d393,676192165fb32c2e1fb7aee6,67d0c8ff326b88ac50e12780,2025-03-11_20h40.59.508,Tarea de decisión léxica,2024.2.5,Win32,142.8571429,,,,,,,,,,,,,,,,,,,,,,,112.5509,113.4182,l,1,0.2126,,0.2126,1,113.4183,113.9184,,,,,,193,FEM,WORD,DIS,150,loca,,el,,113.9194,113.9198,-0.564380265,-0.169258568,0,0,0,,0,31,31,192,1,foda,,,,,
,,,,,,6017320a527c3897e958d393,676192165fb32c2e1fb7aee6,67d0c8ff326b88ac50e12780,2025-03-11_20h40.59.508,Tarea de decisión léxica,2024.2.5,Win32,142.8571429,,,,,,,,,,,,,,,,,,,,,,,113.9203,114.856,l,1,0.2784,,0.2784,1,114.856,115.3562,,,,,,105,FEM,WORD,AGR,150,sopa,,la,,115.3563,115.3563,-0.564380265,-0.169258568,0,0,0,,0,32,32,104,1,vina,,,,,
,,,,,,6017320a527c3897e958d393,676192165fb32c2e1fb7aee6,67d0c8ff326b88ac50e12780,2025-03-11_20h40.59.508,Tarea de decisión léxica,2024.2.5,Win32,142.8571429,,,,,,,,,,,,,,,,,,,,,,,115.3571,116.2521,l,1,0.2399,,0.2399,1,116.2521,116.752,,,,,,171,MAS,WORD,DIS,150,hilo,,la,,116.7521,116.7522,-0.564380265,-0.169258568,0,0,0,,0,33,33,170,1,niro,,,,,
,,,,,,6017320a527c3897e958d393,676192165fb32c2e1fb7aee6,67d0c8ff326b88ac50e12780,2025-03-11_20h40.59.508,Tarea de decisión léxica,2024.2.5,Win32,142.8571429,,,,,,,,,,,,,,,,,,,,,,,116.753,117.6479,l,1,0.2398,,0.2398,1,117.6481,118.1482,,,,,,321,MAS,WORD,AGR,150,banco,,el,,118.1482,118.1483,-0.564380265,-0.169258568,0,0,0,,0,34,34,320,1,rarco,,,,,
,,,,,,6017320a527c3897e958d393,676192165fb32c2e1fb7aee6,67d0c8ff326b88ac50e12780,2025-03-11_20h40.59.508,Tarea de decisión léxica,2024.2.5,Win32,142.8571429,,,,,,,,,,,,,,,,,,,,,,,118.1491,119.0858,l,0,0.279,,0.279,0,119.0865,119.5858,,,,,,176,FEM,NOWORD,DIS,150,hosa,,el,,119.5869,119.5873,-0.564380265,-0.169258568,0,0,0,,0,35,35,175,1,goma,,,,,
,,,,,,6017320a527c3897e958d393,676192165fb32c2e1fb7aee6,67d0c8ff326b88ac50e12780,2025-03-11_20h40.59.508,Tarea de decisión léxica,2024.2.5,Win32,142.8571429,,,,,,,,,,,,,,,,,,,,,,,119.5877,120.5649,l,1,0.3236,,0.3236,1,120.5656,121.0652,,,,,,35,MAS,WORD,AGR,150,pelo,,el,,121.0653,121.0653,-0.564380265,-0.169258568,0,0,0,,0,36,36,34,1,meno,,,,,
,,,,,,6017320a527c3897e958d393,676192165fb32c2e1fb7aee6,67d0c8ff326b88ac50e12780,2025-03-11_20h40.59.508,Tarea de decisión léxica,2024.2.5,Win32,142.8571429,,,,,,,,,,,,,,,,,,,,,,,121.066,121.9612,l,1,0.2375,,0.2375,1,121.9612,122.4612,,,,,,95,FEM,WORD,AGR,151,moda,,la,,122.4612,122.4613,-0.564380265,-0.169258568,0,0,0,,0,37,37,94,1,neda,,,,,
,,,,,,6017320a527c3897e958d393,676192165fb32c2e1fb7aee6,67d0c8ff326b88ac50e12780,2025-03-11_20h40.59.508,Tarea de decisión léxica,2024.2.5,Win32,142.8571429,,,,,,,,,,,,,,,,,,,,,,,122.462,123.4752,l,1,0.3581,,0.3581,1,123.4754,123.9753,,,,,,471,FEM,WORD,AGR,150,grasa,,la,,123.9754,123.9755,-0.564380265,-0.169258568,0,0,0,,0,38,38,470,1,prana,,,,,
,,,,,,6017320a527c3897e958d393,676192165fb32c2e1fb7aee6,67d0c8ff326b88ac50e12780,2025-03-11_20h40.59.508,Tarea de decisión léxica,2024.2.5,Win32,142.8571429,,,,,,,,,,,,,,,,,,,,,,,123.9764,124.9267,l,1,0.2959,,0.2959,1,124.9268,125.4269,,,,,,401,MAS,WORD,AGR,150,polvo,,el,,125.427,125.4271,-0.564380265,-0.169258568,0,0,0,,0,39,39,400,1,pirvo,,,,,
,,,,,,6017320a527c3897e958d393,676192165fb32c2e1fb7aee6,67d0c8ff326b88ac50e12780,2025-03-11_20h40.59.508,Tarea de decisión léxica,2024.2.5,Win32,142.8571429,,,,,,,,,,,,,,,,,,,,,,,125.4278,126.3852,l,1,0.3021,,0.3021,1,126.3853,126.8853,,,,,,353,FEM,WORD,DIS,150,celda,,el,,126.8864,126.8868,-0.564380265,-0.169258568,0,0,0,,0,40,40,352,1,cezca,,,,,
,,,,,,6017320a527c3897e958d393,676192165fb32c2e1fb7aee6,67d0c8ff326b88ac50e12780,2025-03-11_20h40.59.508,Tarea de decisión léxica,2024.2.5,Win32,142.8571429,,,,,,,,,,,,,,,,,,,,,,,126.8874,127.7604,l,1,0.2158,,0.2158,1,127.7605,128.2603,,,,,,269,MAS,WORD,DIS,150,perro,,la,,128.2603,128.2604,-0.564380265,-0.169258568,0,0,0,,0,41,41,268,1,mello,,,,,
,,,,,,6017320a527c3897e958d393,676192165fb32c2e1fb7aee6,67d0c8ff326b88ac50e12780,2025-03-11_20h40.59.508,Tarea de decisión léxica,2024.2.5,Win32,142.8571429,,,,,,,,,,,,,,,,,,,,,,,128.2614,129.3245,a,1,0.4034,,0.4034,1,129.3245,129.8232,,,,,,184,FEM,NOWORD,DIS,150,raad,,el,,129.8232,129.8233,-0.564380265,-0.169258568,0,0,0,,0,42,42,183,1,raya,,,,,
,,,,,,6017320a527c3897e958d393,676192165fb32c2e1fb7aee6,67d0c8ff326b88ac50e12780,2025-03-11_20h40.59.508,Tarea de decisión léxica,2024.2.5,Win32,142.8571429,,,,,,,,,,,,,,,,,,,,,,,129.8241,130.6914,l,0,0.2088,,0.2088,0,130.6921,131.1914,,,,,,470,MAS,NOWORD,AGR,150,matia,,el,,131.1914,131.1915,-0.564380265,-0.169258568,0,0,0,,0,43,43,469,1,patio,,,,,
,,,,,,6017320a527c3897e958d393,676192165fb32c2e1fb7aee6,67d0c8ff326b88ac50e12780,2025-03-11_20h40.59.508,Tarea de decisión léxica,2024.2.5,Win32,142.8571429,,,,,,,,,,,,,,,,,,,,,,,131.1922,132.379,a,1,0.5321,,0.5321,1,132.3795,132.8792,,,,,,182,FEM,NOWORD,AGR,150,teda,,la,,132.8792,132.8793,-0.564380265,-0.169258568,0,0,0,,0,44,44,181,1,seda,,,,,
,,,,,,6017320a527c3897e958d393,676192165fb32c2e1fb7aee6,67d0c8ff326b88ac50e12780,2025-03-11_20h40.59.508,Tarea de decisión léxica,2024.2.5,Win32,142.8571429,,,,,,,,,,,,,,,,,,,,,,,132.8801,133.8793,a,1,0.343,,0.343,1,133.8794,134.3796,,,,,,278,MAS,NOWORD,AGR,150,vuemo,,el,,134.3806,134.3809,-0.564380265,-0.169258568,0,0,0,,0,45,45,277,1,fuego,,,,,
,,,,,,6017320a527c3897e958d393,676192165fb32c2e1fb7aee6,67d0c8ff326b88ac50e12780,2025-03-11_20h40.59.508,Tarea de decisión léxica,2024.2.5,Win32,142.8571429,,,,,,,,,,,,,,,,,,,,,,,134.3813,135.449,a,1,0.41,,0.41,1,135.4492,135.949,,,,,,28,MAS,NOWORD,DIS,150,ravo,,la,,135.9491,135.9492,-0.564380265,-0.169258568,0,0,0,,0,46,46,27,1,baño,,,,,
,,,,,,6017320a527c3897e958d393,676192165fb32c2e1fb7aee6,67d0c8ff326b88ac50e12780,2025-03-11_20h40.59.508,Tarea de decisión léxica,2024.2.5,Win32,142.8571429,,,,,,,,,,,,,,,,,,,,,,,135.9502,136.9352,a,1,0.3281,,0.3281,1,136.9352,137.4353,,,,,,472,FEM,NOWORD,DIS,150,prana,,el,,137.4355,137.4356,-0.564380265,-0.169258568,0,0,0,,0,47,47,471,1,grasa,,,,,
,,,,,,6017320a527c3897e958d393,676192165fb32c2e1fb7aee6,67d0c8ff326b88ac50e12780,2025-03-11_20h40.59.508,Tarea de decisión léxica,2024.2.5,Win32,142.8571429,,,,,,,,,,,,,,,,,,,,,,,137.4363,138.4148,l,1,0.3215,,0.3215,1,138.4149,138.9147,,,,,,139,MAS,WORD,DIS,150,mago,,la,,138.9147,138.9148,-0.564380265,-0.169258568,0,0,0,,0,48,48,138,1,nila,,,,,
,,,,,,6017320a527c3897e958d393,676192165fb32c2e1fb7aee6,67d0c8ff326b88ac50e12780,2025-03-11_20h40.59.508,Tarea de decisión léxica,2024.2.5,Win32,142.8571429,,,,,,,,,,,,,,,,,,,,,,,138.9155,139.8662,l,1,0.2965,,0.2965,1,139.8663,140.3662,,,,,,79,FEM,WORD,DIS,150,piel,,el,,140.3662,140.3663,-0.564380265,-0.169258568,0,0,0,,0,49,49,78,1,ciel,,,,,
,,,,,,6017320a527c3897e958d393,676192165fb32c2e1fb7aee6,67d0c8ff326b88ac50e12780,2025-03-11_20h40.59.508,Tarea de decisión léxica,2024.2.5,Win32,142.8571429,,,,,,,,,,,,,,,,,,,,,,,140.3671,141.3108,l,1,0.2875,,0.2875,1,141.3109,141.8108,,,,,,435,MAS,WORD,AGR,150,ritmo,,el,,141.8117,141.8124,-0.564380265,-0.169258568,0,0,0,,0,50,50,434,1,ricno,,,,,
,,,,,,6017320a527c3897e958d393,676192165fb32c2e1fb7aee6,67d0c8ff326b88ac50e12780,2025-03-11_20h40.59.508,Tarea de decisión léxica,2024.2.5,Win32,142.8571429,,,,,,,,,,,,,,,,,,,,,,,141.813,142.7903,l,0,0.323,,0.323,0,142.7909,143.2903,,,,,,260,MAS,NOWORD,DIS,150,jaumo,,la,,143.2903,143.2905,-0.564380265,-0.169258568,0,0,0,,0,51,51,259,1,juego,,,,,
,,,,,,6017320a527c3897e958d393,676192165fb32c2e1fb7aee6,67d0c8ff326b88ac50e12780,2025-03-11_20h40.59.508,Tarea de decisión léxica,2024.2.5,Win32,142.8571429,,,,,,,,,,,,,,,,,,,,,,,143.2912,144.3947,l,1,0.4456,,0.4456,1,144.3952,144.8948,,,,,,429,FEM,WORD,AGR,150,tarta,,la,,144.8948,144.8949,-0.564380265,-0.169258568,0,0,0,,0,52,52,428,1,tenta,,,,,
,,,,,,6017320a527c3897e958d393,676192165fb32c2e1fb7aee6,67d0c8ff326b88ac50e12780,2025-03-11_20h40.59.508,Tarea de decisión léxica,2024.2.5,Win32,142.8571429,,,,,,,,,,,,,,,,,,,,,,,144.8957,145.9988,a,0,0.4499,,0.4499,0,145.9994,146.4991,,,,,,233,FEM,WORD,DIS,150,lana,,el,,146.4992,146.4993,-0.564380265,-0.169258568,0,0,0,,0,53,53,232,1,fasa,,,,,
,,,,,,6017320a527c3897e958d393,676192165fb32c2e1fb7aee6,67d0c8ff326b88ac50e12780,2025-03-11_20h40.59.508,Tarea de decisión léxica,2024.2.5,Win32,142.8571429,,,,,,,,,,,,,,,,,,,,,,,146.5001,147.6311,l,0,0.4731,,0.4731,0,147.6312,148.1311,,,,,,180,MAS,NOWORD,DIS,150,sono,,la,,148.1312,148.1312,-0.564380265,-0.169258568,0,0,0,,0,54,54,179,1,toro,,,,,
,,,,,,6017320a527c3897e958d393,676192165fb32c2e1fb7aee6,67d0c8ff326b88ac50e12780,2025-03-11_20h40.59.508,Tarea de decisión léxica,2024.2.5,Win32,142.8571429,,,,,,,,,,,,,,,,,,,,,,,148.1321,149.3674,a,1,0.5809,,0.5809,1,149.368,149.8675,,,,,,40,MAS,NOWORD,DIS,150,redo,,la,,149.8684,149.8689,-0.564380265,-0.169258568,0,0,0,,0,55,55,39,1,voto,,,,,
,,,,,,6017320a527c3897e958d393,676192165fb32c2e1fb7aee6,67d0c8ff326b88ac50e12780,2025-03-11_20h40.59.508,Tarea de decisión léxica,2024.2.5,Win32,142.8571429,,,,,,,,,,,,,,,,,,,,,,,149.8693,150.8884,l,0,0.3659,,0.3659,0,150.889,151.3886,,,,,,196,FEM,NOWORD,DIS,150,sira,,el,,151.3887,151.3889,-0.564380265,-0.169258568,0,0,0,,0,56,56,195,1,tela,,,,,
,,,,,,6017320a527c3897e958d393,676192165fb32c2e1fb7aee6,67d0c8ff326b88ac50e12780,2025-03-11_20h40.59.508,Tarea de decisión léxica,2024.2.5,Win32,142.8571429,,,,,,,,,,,,,,,,,,,,,,,151.3897,152.5277,a,1,0.4792,,0.4792,1,152.5283,153.0275,,,,,,220,FEM,NOWORD,DIS,150,miva,,el,,153.0276,153.0277,-0.564380265,-0.169258568,0,0,0,,0,57,57,219,1,pipa,,,,,
,,,,,,6017320a527c3897e958d393,676192165fb32c2e1fb7aee6,67d0c8ff326b88ac50e12780,2025-03-11_20h40.59.508,Tarea de decisión léxica,2024.2.5,Win32,142.8571429,,,,,,,,,,,,,,,,,,,,,,,153.0285,153.9999,a,1,0.3165,,0.3165,1,154,154.5,,,,,,416,FEM,NOWORD,DIS,150,juira,,el,,154.5,154.5001,-0.564380265,-0.169258568,0,0,0,,0,58,58,415,1,jaula,,,,,
,,,,,,6017320a527c3897e958d393,676192165fb32c2e1fb7aee6,67d0c8ff326b88ac50e12780,2025-03-11_20h40.59.508,Tarea de decisión léxica,2024.2.5,Win32,142.8571429,,,,,,,,,,,,,,,,,,,,,,,154.5007,155.4933,a,1,0.3341,,0.3341,1,155.4934,155.9931,,,,,,304,MAS,NOWORD,DIS,150,lanco,,la,,155.9942,155.9946,-0.564380265,-0.169258568,0,0,0,,0,59,59,303,1,barco,,,,,
,,,,,,6017320a527c3897e958d393,676192165fb32c2e1fb7aee6,67d0c8ff326b88ac50e12780,2025-03-11_20h40.59.508,Tarea de decisión léxica,2024.2.5,Win32,142.8571429,,,,,,,,,,,,,,,,,,,,,,,155.995,156.9447,a,1,0.2951,,0.2951,1,156.9447,157.4449,,,,,,314,MAS,NOWORD,AGR,150,govio,,el,,157.445,157.4451,-0.564380265,-0.169258568,0,0,0,,0,60,60,313,1,novio,,,,,
,,,,,,6017320a527c3897e958d393,676192165fb32c2e1fb7aee6,67d0c8ff326b88ac50e12780,2025-03-11_20h40.59.508,Tarea de decisión léxica,2024.2.5,Win32,142.8571429,,,,,,,,,,,,,,,,,,,,,,,157.4459,158.4589,l,1,0.3549,,0.3549,1,158.459,158.9591,,,,,,113,FEM,WORD,DIS,150,miel,,el,,158.9592,158.9592,-0.564380265,-0.169258568,0,0,0,,0,61,61,112,1,tada,,,,,
,,,,,,6017320a527c3897e958d393,676192165fb32c2e1fb7aee6,67d0c8ff326b88ac50e12780,2025-03-11_20h40.59.508,Tarea de decisión léxica,2024.2.5,Win32,142.8571429,,,,,,,,,,,,,,,,,,,,,,,158.96,160.0217,a,1,0.4034,,0.4034,1,160.0218,160.5215,,,,,,188,MAS,NOWORD,DIS,150,suto,,la,,160.5216,160.5217,-0.564380265,-0.169258568,0,0,0,,0,62,62,187,1,mito,,,,,
,,,,,,6017320a527c3897e958d393,676192165fb32c2e1fb7aee6,67d0c8ff326b88ac50e12780,2025-03-11_20h40.59.508,Tarea de decisión léxica,2024.2.5,Win32,142.8571429,,,,,,,,,,,,,,,,,,,,,,,160.5225,161.5565,l,1,0.377,,0.377,1,161.5565,162.0567,,,,,,93,FEM,WORD,DIS,150,bola,,el,,162.0567,162.0567,-0.564380265,-0.169258568,0,0,0,,0,63,63,92,1,rona,,,,,
,,,,,,6017320a527c3897e958d393,676192165fb32c2e1fb7aee6,67d0c8ff326b88ac50e12780,2025-03-11_20h40.59.508,Tarea de decisión léxica,2024.2.5,Win32,142.8571429,,,,,,,,,,,,,,,,,,,,,,,162.0575,163.1677,a,1,0.4545,,0.4545,1,163.1678,163.6677,,,,,,30,MAS,NOWORD,AGR,150,pono,,el,,163.6685,163.669,-0.564380265,-0.169258568,0,0,0,,0,64,64,29,1,modo,,,,,
,,,,,,6017320a527c3897e958d393,676192165fb32c2e1fb7aee6,67d0c8ff326b88ac50e12780,2025-03-11_20h40.59.508,Tarea de decisión léxica,2024.2.5,Win32,142.8571429,,,,,,,,,,,,,,,,,,,,,,,163.6694,164.7721,a,1,0.4489,,0.4489,1,164.7721,165.2724,,,,,,444,MAS,NOWORD,DIS,150,taron,,la,,165.2724,165.2725,-0.564380265,-0.169258568,0,0,0,,0,65,65,443,1,salón,,,,,
,,,,,,6017320a527c3897e958d393,676192165fb32c2e1fb7aee6,67d0c8ff326b88ac50e12780,2025-03-11_20h40.59.508,Tarea de decisión léxica,2024.2.5,Win32,142.8571429,,,,,,,,,,,,,,,,,,,,,,,165.2734,166.3209,l,1,0.3938,,0.3938,1,166.3209,166.821,,,,,,265,FEM,WORD,AGR,150,mitad,,la,,166.821,166.8212,-0.564380265,-0.169258568,0,0,0,,0,66,66,264,1,pitat,,,,,
,,,,,,6017320a527c3897e958d393,676192165fb32c2e1fb7aee6,67d0c8ff326b88ac50e12780,2025-03-11_20h40.59.508,Tarea de decisión léxica,2024.2.5,Win32,142.8571429,,,,,,,,,,,,,,,,,,,,,,,166.822,167.7726,l,1,0.2919,,0.2919,1,167.7727,168.2726,,,,,,69,FEM,WORD,DIS,150,zona,,el,,168.2727,168.2728,-0.564380265,-0.169258568,0,0,0,,0,67,67,68,1,ñola,,,,,
,,,,,,6017320a527c3897e958d393,676192165fb32c2e1fb7aee6,67d0c8ff326b88ac50e12780,2025-03-11_20h40.59.508,Tarea de decisión léxica,2024.2.5,Win32,142.8571429,,,,,,,,,,,,,,,,,,,,,,,168.2736,169.2728,a,1,0.3427,,0.3427,1,169.2729,169.7728,,,,,,426,FEM,NOWORD,AGR,150,virca,,la,,169.7729,169.773,-0.564380265,-0.169258568,0,0,0,,0,68,68,425,1,viuda,,,,,
,,,,,,6017320a527c3897e958d393,676192165fb32c2e1fb7aee6,67d0c8ff326b88ac50e12780,2025-03-11_20h40.59.508,Tarea de decisión léxica,2024.2.5,Win32,142.8571429,,,,,,,,,,,,,,,,,,,,,,,169.7738,170.8284,a,1,0.3961,,0.3961,1,170.8285,171.3284,,,,,,318,FEM,NOWORD,AGR,150,plaad,,la,,171.3294,171.33,-0.564380265,-0.169258568,0,0,0,,0,69,69,317,1,playa,,,,,
,,,,,,6017320a527c3897e958d393,676192165fb32c2e1fb7aee6,67d0c8ff326b88ac50e12780,2025-03-11_20h40.59.508,Tarea de decisión léxica,2024.2.5,Win32,142.8571429,,,,,,,,,,,,,,,,,,,,,,,171.3306,172.273,l,1,0.2894,,0.2894,1,172.2731,172.7731,,,,,,287,FEM,WORD,AGR,150,lista,,la,,172.7732,172.7732,-0.564380265,-0.169258568,0,0,0,,0,70,70,286,1,fosta,,,,,
,,,,,,6017320a527c3897e958d393,676192165fb32c2e1fb7aee6,67d0c8ff326b88ac50e12780,2025-03-11_20h40.59.508,Tarea de decisión léxica,2024.2.5,Win32,142.8571429,,,,,,,,,,,,,,,,,,,,,,,172.774,173.7941,a,1,0.3617,,0.3617,1,173.7942,174.2943,,,,,,286,MAS,NOWORD,AGR,150,echor,,el,,174.2943,174.2945,-0.564380265,-0.169258568,0,0,0,,0,71,71,285,1,error,,,,,
,,,,,,6017320a527c3897e958d393,676192165fb32c2e1fb7aee6,67d0c8ff326b88ac50e12780,2025-03-11_20h40.59.508,Tarea de decisión léxica,2024.2.5,Win32,142.8571429,,,,,,,,,,,,,,,,,,,,,,,174.2953,175.2318,l,1,0.2789,,0.2789,1,175.2319,175.7318,,,,,,329,MAS,WORD,AGR,150,hueso,,el,,175.7319,175.732,-0.564380265,-0.169258568,0,0,0,,0,72,72,328,1,nueno,,,,,
,,,,,,6017320a527c3897e958d393,676192165fb32c2e1fb7aee6,67d0c8ff326b88ac50e12780,2025-03-11_20h40.59.508,Tarea de decisión léxica,2024.2.5,Win32,142.8571429,,,,,,,,,,,,,,,,,,,,,,,175.7328,176.6627,l,1,0.2722,,0.2722,1,176.6628,177.1626,,,,,,59,FEM,WORD,DIS,150,sala,,el,,177.1626,177.1627,-0.564380265,-0.169258568,0,0,0,,0,73,73,58,1,tafa,,,,,
,,,,,,6017320a527c3897e958d393,676192165fb32c2e1fb7aee6,67d0c8ff326b88ac50e12780,2025-03-11_20h40.59.508,Tarea de decisión léxica,2024.2.5,Win32,142.8571429,,,,,,,,,,,,,,,,,,,,,,,177.1635,178.135,l,1,0.3164,,0.3164,1,178.1351,178.6353,,,,,,315,FEM,WORD,AGR,150,reina,,la,,178.6363,178.6369,-0.564380265,-0.169258568,0,0,0,,0,74,74,314,1,riosa,,,,,
,,,,,,6017320a527c3897e958d393,676192165fb32c2e1fb7aee6,67d0c8ff326b88ac50e12780,2025-03-11_20h40.59.508,Tarea de decisión léxica,2024.2.5,Win32,142.8571429,,,,,,,,,,,,,,,,,,,,,,,178.6374,179.5661,l,1,0.2762,,0.2762,1,179.5662,180.0657,,,,,,359,MAS,WORD,DIS,150,calor,,la,,180.0658,180.0659,-0.564380265,-0.169258568,0,0,0,,0,75,75,358,1,cacer,,,,,
,,,,,,6017320a527c3897e958d393,676192165fb32c2e1fb7aee6,67d0c8ff326b88ac50e12780,2025-03-11_20h40.59.508,Tarea de decisión léxica,2024.2.5,Win32,142.8571429,,,,,,,,,,,,,,,,,,,,,,,180.0665,181.2257,a,1,0.5045,,0.5045,1,181.2258,181.7258,,,,,,238,MAS,NOWORD,AGR,150,huco,,el,,181.7258,181.7259,-0.564380265,-0.169258568,0,0,0,,0,76,76,237,1,nudo,,,,,
,,,,,,6017320a527c3897e958d393,676192165fb32c2e1fb7aee6,67d0c8ff326b88ac50e12780,2025-03-11_20h40.59.508,Tarea de decisión léxica,2024.2.5,Win32,142.8571429,,,,,,,,,,,,,,,,,,,,,,,181.7267,182.8022,a,1,0.417,,0.417,1,182.8023,183.3023,,,,,,142,FEM,NOWORD,AGR,150,sina,,la,,183.3023,183.3024,-0.564380265,-0.169258568,0,0,0,,0,77,77,141,1,cruz,,,,,
,,,,,,6017320a527c3897e958d393,676192165fb32c2e1fb7aee6,67d0c8ff326b88ac50e12780,2025-03-11_20h40.59.508,Tarea de decisión léxica,2024.2.5,Win32,142.8571429,,,,,,,,,,,,,,,,,,,,,,,183.3031,184.2399,l,1,0.2791,,0.2791,1,184.2401,184.74,,,,,,281,MAS,WORD,AGR,150,cielo,,el,,184.7401,184.7402,-0.564380265,-0.169258568,0,0,0,,0,78,78,280,1,cauro,,,,,
,,,,,,6017320a527c3897e958d393,676192165fb32c2e1fb7aee6,67d0c8ff326b88ac50e12780,2025-03-11_20h40.59.508,Tarea de decisión léxica,2024.2.5,Win32,142.8571429,,,,,,,,,,,,,,,,,,,,,,,184.7409,185.6916,l,1,0.2963,,0.2963,1,185.6916,186.1916,,,,,,337,MAS,WORD,AGR,150,huevo,,el,,186.1926,186.1931,-0.564380265,-0.169258568,0,0,0,,0,79,79,336,1,nuejo,,,,,
,,,,,,6017320a527c3897e958d393,676192165fb32c2e1fb7aee6,67d0c8ff326b88ac50e12780,2025-03-11_20h40.59.508,Tarea de decisión léxica,2024.2.5,Win32,142.8571429,,,,,,,,,,,,,,,,,,,,,,,186.1938,187.1723,a,1,0.3259,,0.3259,1,187.1723,187.671,,,,,,50,FEM,NOWORD,AGR,150,ecat,,la,,187.671,187.6711,-0.564380265,-0.169258568,0,0,0,,0,80,80,49,1,edad,,,,,
,,,,,,6017320a527c3897e958d393,676192165fb32c2e1fb7aee6,67d0c8ff326b88ac50e12780,2025-03-11_20h40.59.508,Tarea de decisión léxica,2024.2.5,Win32,142.8571429,,,,,,,,,,,,,,,,,,,,,,,187.6719,188.6502,a,1,0.32,,0.32,1,188.6503,189.1503,,,,,,124,FEM,NOWORD,DIS,150,maba,,el,,189.1504,189.1505,-0.564380265,-0.169258568,0,0,0,,0,81,81,123,1,flor,,,,,
,,,,,,6017320a527c3897e958d393,676192165fb32c2e1fb7aee6,67d0c8ff326b88ac50e12780,2025-03-11_20h40.59.508,Tarea de decisión léxica,2024.2.5,Win32,142.8571429,,,,,,,,,,,,,,,,,,,,,,,189.1513,190.0602,a,0,0.2529,,0.2529,0,190.0607,190.5601,,,,,,393,FEM,WORD,DIS,150,aldea,,el,,190.5601,190.5602,-0.564380265,-0.169258568,0,0,0,,0,82,82,392,1,ashea,,,,,
,,,,,,6017320a527c3897e958d393,676192165fb32c2e1fb7aee6,67d0c8ff326b88ac50e12780,2025-03-11_20h40.59.508,Tarea de decisión léxica,2024.2.5,Win32,142.8571429,,,,,,,,,,,,,,,,,,,,,,,190.561,191.5811,l,1,0.3636,,0.3636,1,191.5818,192.0813,,,,,,473,FEM,WORD,DIS,150,feria,,el,,192.0822,192.0827,-0.564380265,-0.169258568,0,0,0,,0,83,83,472,1,felia,,,,,
,,,,,,6017320a527c3897e958d393,676192165fb32c2e1fb7aee6,67d0c8ff326b88ac50e12780,2025-03-11_20h40.59.508,Tarea de decisión léxica,2024.2.5,Win32,142.8571429,,,,,,,,,,,,,,,,,,,,,,,192.0832,193.0467,l,1,0.3109,,0.3109,1,193.0469,193.547,,,,,,453,FEM,WORD,AGR,150,mafia,,la,,193.5472,193.5472,-0.564380265,-0.169258568,0,0,0,,0,84,84,452,1,pafia,,,,,
,,,,,,6017320a527c3897e958d393,676192165fb32c2e1fb7aee6,67d0c8ff326b88ac50e12780,2025-03-11_20h40.59.508,Tarea de decisión léxica,2024.2.5,Win32,142.8571429,,,,,,,,,,,,,,,,,,,,,,,193.5479,194.4774,l,1,0.2714,,0.2714,1,194.4775,194.9774,,,,,,433,MAS,WORD,DIS,150,disco,,la,,194.9776,194.9777,-0.564380265,-0.169258568,0,0,0,,0,85,85,432,1,durco,,,,,
,,,,,,6017320a527c3897e958d393,676192165fb32c2e1fb7aee6,67d0c8ff326b88ac50e12780,2025-03-11_20h40.59.508,Tarea de decisión léxica,2024.2.5,Win32,142.8571429,,,,,,,,,,,,,,,,,,,,,,,194.9783,195.915,l,0,0.2784,,0.2784,0,195.9156,196.4151,,,,,,454,FEM,NOWORD,AGR,150,pafia,,la,,196.4153,196.4154,-0.564380265,-0.169258568,0,0,0,,0,86,86,453,1,mafia,,,,,
,,,,,,6017320a527c3897e958d393,676192165fb32c2e1fb7aee6,67d0c8ff326b88ac50e12780,2025-03-11_20h40.59.508,Tarea de decisión léxica,2024.2.5,Win32,142.8571429,,,,,,,,,,,,,,,,,,,,,,,196.4161,197.3736,l,0,0.2989,,0.2989,0,197.3736,197.8737,,,,,,388,FEM,NOWORD,DIS,150,bresa,,el,,197.8737,197.8739,-0.564380265,-0.169258568,0,0,0,,0,87,87,387,1,crema,,,,,
,,,,,,6017320a527c3897e958d393,676192165fb32c2e1fb7aee6,67d0c8ff326b88ac50e12780,2025-03-11_20h40.59.508,Tarea de decisión léxica,2024.2.5,Win32,142.8571429,,,,,,,,,,,,,,,,,,,,,,,197.8746,199.0336,l,1,0.5039,,0.5039,1,199.0343,199.5337,,,,,,237,MAS,WORD,DIS,150,nudo,,la,,199.5345,199.5352,-0.564380265,-0.169258568,0,0,0,,0,88,88,236,1,huco,,,,,
,,,,,,6017320a527c3897e958d393,676192165fb32c2e1fb7aee6,67d0c8ff326b88ac50e12780,2025-03-11_20h40.59.508,Tarea de decisión léxica,2024.2.5,Win32,142.8571429,,,,,,,,,,,,,,,,,,,,,,,199.5356,200.5616,a,1,0.3725,,0.3725,1,200.5617,201.0615,,,,,,434,MAS,NOWORD,AGR,150,durco,,el,,201.0615,201.0617,-0.564380265,-0.169258568,0,0,0,,0,89,89,433,1,disco,,,,,
,,,,,,6017320a527c3897e958d393,676192165fb32c2e1fb7aee6,67d0c8ff326b88ac50e12780,2025-03-11_20h40.59.508,Tarea de decisión léxica,2024.2.5,Win32,142.8571429,,,,,,,,,,,,,,,,,,,,,,,201.0625,202.0616,l,1,0.3425,,0.3425,1,202.0617,202.5619,,,,,,377,MAS,WORD,AGR,150,hielo,,el,,202.5619,202.5619,-0.564380265,-0.169258568,0,0,0,,0,90,90,376,1,gaulo,,,,,
,,,,,,6017320a527c3897e958d393,676192165fb32c2e1fb7aee6,67d0c8ff326b88ac50e12780,2025-03-11_20h40.59.508,Tarea de decisión léxica,2024.2.5,Win32,142.8571429,,,,,,,,,,,,,,,,,,,,,,,202.5636,203.4994,l,1,0.2805,,0.2805,1,203.4995,203.9994,,,,,,99,MAS,WORD,AGR,150,lobo,,el,,203.9994,203.9997,-0.564380265,-0.169258568,0,0,0,,0,91,91,98,1,soro,,,,,
,,,,,,6017320a527c3897e958d393,676192165fb32c2e1fb7aee6,67d0c8ff326b88ac50e12780,2025-03-11_20h40.59.508,Tarea de decisión léxica,2024.2.5,Win32,142.8571429,,,,,,,,,,,,,,,,,,,,,,,204.0003,205.1178,a,1,0.4587,,0.4587,1,205.1179,205.6177,,,,,,126,MAS,NOWORD,AGR,150,vudo,,el,,205.6177,205.6178,-0.564380265,-0.169258568,0,0,0,,0,92,92,125,1,lujo,,,,,
,,,,,,6017320a527c3897e958d393,676192165fb32c2e1fb7aee6,67d0c8ff326b88ac50e12780,2025-03-11_20h40.59.508,Tarea de decisión léxica,2024.2.5,Win32,142.8571429,,,,,,,,,,,,,,,,,,,,,,,205.6187,206.5692,l,1,0.292,,0.292,1,206.5692,207.0695,,,,,,319,MAS,WORD,DIS,150,suelo,,la,,207.0706,207.0712,-0.564380265,-0.169258568,0,0,0,,0,93,93,318,1,tuero,,,,,
,,,,,,6017320a527c3897e958d393,676192165fb32c2e1fb7aee6,67d0c8ff326b88ac50e12780,2025-03-11_20h40.59.508,Tarea de decisión léxica,2024.2.5,Win32,142.8571429,,,,,,,,,,,,,,,,,,,,,,,207.0717,208.1041,a,1,0.3752,,0.3752,1,208.1042,208.6043,,,,,,418,FEM,NOWORD,AGR,150,banja,,la,,208.6043,208.6044,-0.564380265,-0.169258568,0,0,0,,0,94,94,417,1,barba,,,,,
,,,,,,6017320a527c3897e958d393,676192165fb32c2e1fb7aee6,67d0c8ff326b88ac50e12780,2025-03-11_20h40.59.508,Tarea de decisión léxica,2024.2.5,Win32,142.8571429,,,,,,,,,,,,,,,,,,,,,,,208.6052,209.6666,l,0,0.4078,,0.4078,0,209.6673,210.167,,,,,,144,MAS,NOWORD,DIS,150,pezo,,la,,210.167,210.1672,-0.564380265,-0.169258568,0,0,0,,0,95,95,143,1,pavo,,,,,
,,,,,,6017320a527c3897e958d393,676192165fb32c2e1fb7aee6,67d0c8ff326b88ac50e12780,2025-03-11_20h40.59.508,Tarea de decisión léxica,2024.2.5,Win32,142.8571429,,,,,,,,,,,,,,,,,,,,,,,210.168,211.2226,l,1,0.4003,,0.4003,1,211.2233,211.7228,,,,,,51,FEM,WORD,DIS,150,caja,,el,,211.7229,211.723,-0.564380265,-0.169258568,0,0,0,,0,96,96,50,1,mava,,,,,
,,,,,,6017320a527c3897e958d393,676192165fb32c2e1fb7aee6,67d0c8ff326b88ac50e12780,2025-03-11_20h40.59.508,Tarea de decisión léxica,2024.2.5,Win32,142.8571429,,,,,,,,,,,,,,,,,,,,,,,211.7237,212.8548,l,1,0.4726,,0.4726,1,212.8549,213.3551,,,,,,279,FEM,WORD,DIS,150,prisa,,el,,213.3551,213.3552,-0.564380265,-0.169258568,0,0,0,,0,97,97,278,1,grina,,,,,
,,,,,,6017320a527c3897e958d393,676192165fb32c2e1fb7aee6,67d0c8ff326b88ac50e12780,2025-03-11_20h40.59.508,Tarea de decisión léxica,2024.2.5,Win32,142.8571429,,,,,,,,,,,,,,,,,,,,,,,213.356,214.4603,a,1,0.4509,,0.4509,1,214.4603,214.9595,,,,,,60,FEM,NOWORD,DIS,150,tafa,,el,,214.9605,214.9609,-0.564380265,-0.169258568,0,0,0,,0,98,98,59,1,sala,,,,,
,,,,,,6017320a527c3897e958d393,676192165fb32c2e1fb7aee6,67d0c8ff326b88ac50e12780,2025-03-11_20h40.59.508,Tarea de decisión léxica,2024.2.5,Win32,142.8571429,,,,,,,,,,,,,,,,,,,,,,,214.9614,216.0217,l,1,0.4079,,0.4079,1,216.0218,216.5219,,,,,,23,FEM,WORD,DIS,150,hija,,el,,216.522,216.522,-0.564380265,-0.169258568,0,0,0,,0,99,99,22,1,giva,,,,,
,,,,,,6017320a527c3897e958d393,676192165fb32c2e1fb7aee6,67d0c8ff326b88ac50e12780,2025-03-11_20h40.59.508,Tarea de decisión léxica,2024.2.5,Win32,142.8571429,,,,,,,,,,,,,,,,,,,,,,,216.5227,217.5777,l,1,0.4012,,0.4012,1,217.5777,218.0775,,,,,,203,FEM,WORD,AGR,150,leña,,la,,218.0776,218.0777,-0.564380265,-0.169258568,0,0,0,,0,100,100,202,1,beja,,,,,
,,,,,,6017320a527c3897e958d393,676192165fb32c2e1fb7aee6,67d0c8ff326b88ac50e12780,2025-03-11_20h40.59.508,Tarea de decisión léxica,2024.2.5,Win32,142.8571429,,,,,,,,,,,,,,,,,,,,,,,218.0786,219.1821,a,1,0.4446,,0.4446,1,219.1821,219.6819,,,,,,288,FEM,NOWORD,DIS,150,fosta,,el,,219.6819,219.6821,-0.564380265,-0.169258568,0,0,0,,0,101,101,287,1,lista,,,,,
,,,,,,6017320a527c3897e958d393,676192165fb32c2e1fb7aee6,67d0c8ff326b88ac50e12780,2025-03-11_20h40.59.508,Tarea de decisión léxica,2024.2.5,Win32,142.8571429,,,,,,,,,,,,,,,,,,,,,,,219.6829,220.8002,a,1,0.4599,,0.4599,1,220.8003,221.3003,,,,,,172,MAS,NOWORD,DIS,150,niro,,la,,221.3003,221.3004,-0.564380265,-0.169258568,0,0,0,,0,102,102,171,1,hilo,,,,,
,,,,,,6017320a527c3897e958d393,676192165fb32c2e1fb7aee6,67d0c8ff326b88ac50e12780,2025-03-11_20h40.59.508,Tarea de decisión léxica,2024.2.5,Win32,142.8571429,,,,,,,,,,,,,,,,,,,,,,,221.3013,222.3074,l,1,0.3509,,0.3509,1,222.3076,222.8074,,,,,,65,MAS,WORD,AGR,150,dios,,el,,222.8082,222.8088,-0.564380265,-0.169258568,0,0,0,,0,103,103,64,1,nios,,,,,
,,,,,,6017320a527c3897e958d393,676192165fb32c2e1fb7aee6,67d0c8ff326b88ac50e12780,2025-03-11_20h40.59.508,Tarea de decisión léxica,2024.2.5,Win32,142.8571429,,,,,,,,,,,,,,,,,,,,,,,222.8093,223.8352,a,1,0.3697,,0.3697,1,223.8354,224.3354,,,,,,218,MAS,NOWORD,AGR,150,budo,,el,,224.3355,224.3355,-0.564380265,-0.169258568,0,0,0,,0,104,104,217,1,luto,,,,,
,,,,,,6017320a527c3897e958d393,676192165fb32c2e1fb7aee6,67d0c8ff326b88ac50e12780,2025-03-11_20h40.59.508,Tarea de decisión léxica,2024.2.5,Win32,142.8571429,,,,,,,,,,,,,,,,,,,,,,,224.3363,225.3216,l,1,0.3286,,0.3286,1,225.3216,225.8217,,,,,,407,FEM,WORD,AGR,150,cueva,,la,,225.8217,225.8218,-0.564380265,-0.169258568,0,0,0,,0,105,105,406,1,cauba,,,,,
,,,,,,6017320a527c3897e958d393,676192165fb32c2e1fb7aee6,67d0c8ff326b88ac50e12780,2025-03-11_20h40.59.508,Tarea de decisión léxica,2024.2.5,Win32,142.8571429,,,,,,,,,,,,,,,,,,,,,,,225.8226,226.8634,a,1,0.3841,,0.3841,1,226.8634,227.3634,,,,,,398,FEM,NOWORD,AGR,150,trigi,,la,,227.3635,227.3636,-0.564380265,-0.169258568,0,0,0,,0,106,106,397,1,tribu,,,,,
,,,,,,6017320a527c3897e958d393,676192165fb32c2e1fb7aee6,67d0c8ff326b88ac50e12780,2025-03-11_20h40.59.508,Tarea de decisión léxica,2024.2.5,Win32,142.8571429,,,,,,,,,,,,,,,,,,,,,,,227.3643,228.3986,a,1,0.3788,,0.3788,1,228.3986,228.8985,,,,,,252,MAS,NOWORD,DIS,150,refor,,la,,228.8993,228.8997,-0.564380265,-0.169258568,0,0,0,,0,107,107,251,1,señor,,,,,
,,,,,,6017320a527c3897e958d393,676192165fb32c2e1fb7aee6,67d0c8ff326b88ac50e12780,2025-03-11_20h40.59.508,Tarea de decisión léxica,2024.2.5,Win32,142.8571429,,,,,,,,,,,,,,,,,,,,,,,228.9001,230.0999,l,0,0.5431,,0.5431,0,230.1005,230.6002,,,,,,236,FEM,NOWORD,DIS,150,tria,,el,,230.6002,230.6004,-0.564380265,-0.169258568,0,0,0,,0,108,108,235,1,grúa,,,,,
,,,,,,6017320a527c3897e958d393,676192165fb32c2e1fb7aee6,67d0c8ff326b88ac50e12780,2025-03-11_20h40.59.508,Tarea de decisión léxica,2024.2.5,Win32,142.8571429,,,,,,,,,,,,,,,,,,,,,,,230.6011,231.7668,a,1,0.5072,,0.5072,1,231.7675,232.2672,,,,,,300,FEM,NOWORD,DIS,150,bosga,,el,,232.2672,232.2673,-0.564380265,-0.169258568,0,0,0,,0,109,109,299,1,bolsa,,,,,
,,,,,,6017320a527c3897e958d393,676192165fb32c2e1fb7aee6,67d0c8ff326b88ac50e12780,2025-03-11_20h40.59.508,Tarea de decisión léxica,2024.2.5,Win32,142.8571429,,,,,,,,,,,,,,,,,,,,,,,232.2681,233.5589,a,1,0.6331,,0.6331,1,233.559,234.0588,,,,,,92,FEM,NOWORD,DIS,150,sava,,el,,234.0589,234.0591,-0.564380265,-0.169258568,0,0,0,,0,110,110,91,1,taza,,,,,
,,,,,,6017320a527c3897e958d393,676192165fb32c2e1fb7aee6,67d0c8ff326b88ac50e12780,2025-03-11_20h40.59.508,Tarea de decisión léxica,2024.2.5,Win32,142.8571429,,,,,,,,,,,,,,,,,,,,,,,234.0597,235.0381,l,1,0.3202,,0.3202,1,235.0383,235.5382,,,,,,147,FEM,WORD,DIS,150,hoja,,el,,235.5383,235.5383,-0.564380265,-0.169258568,0,0,0,,0,111,111,146,1,pama,,,,,
,,,,,,6017320a527c3897e958d393,676192165fb32c2e1fb7aee6,67d0c8ff326b88ac50e12780,2025-03-11_20h40.59.508,Tarea de decisión léxica,2024.2.5,Win32,142.8571429,,,,,,,,,,,,,,,,,,,,,,,235.5391,236.6354,a,1,0.4408,,0.4408,1,236.6355,237.1357,,,,,,186,MAS,NOWORD,AGR,150,raol,,el,,237.1364,237.1369,-0.564380265,-0.169258568,0,0,0,,0,112,112,185,1,baúl,,,,,
,,,,,,6017320a527c3897e958d393,676192165fb32c2e1fb7aee6,67d0c8ff326b88ac50e12780,2025-03-11_20h40.59.508,Tarea de decisión léxica,2024.2.5,Win32,142.8571429,,,,,,,,,,,,,,,,,,,,,,,237.1373,238.2398,a,1,0.4462,,0.4462,1,238.2398,238.7401,,,,,,250,FEM,NOWORD,AGR,150,plane,,la,,238.7401,238.7402,-0.564380265,-0.169258568,0,0,0,,0,113,113,249,1,clase,,,,,
,,,,,,6017320a527c3897e958d393,676192165fb32c2e1fb7aee6,67d0c8ff326b88ac50e12780,2025-03-11_20h40.59.508,Tarea de decisión léxica,2024.2.5,Win32,142.8571429,,,,,,,,,,,,,,,,,,,,,,,238.7408,239.747,l,1,0.35,,0.35,1,239.7471,240.2472,,,,,,375,FEM,WORD,DIS,150,salsa,,el,,240.2472,240.2473,-0.564380265,-0.169258568,0,0,0,,0,114,114,374,1,sasna,,,,,
,,,,,,6017320a527c3897e958d393,676192165fb32c2e1fb7aee6,67d0c8ff326b88ac50e12780,2025-03-11_20h40.59.508,Tarea de decisión léxica,2024.2.5,Win32,142.8571429,,,,,,,,,,,,,,,,,,,,,,,240.2481,241.1778,l,1,0.2745,,0.2745,1,241.1778,241.6781,,,,,,1,FEM,WORD,DIS,150,casa,,el,,241.6782,241.6782,-0.564380265,-0.169258568,0,0,0,,0,115,115,0,1,mada,,,,,
,,,,,,6017320a527c3897e958d393,676192165fb32c2e1fb7aee6,67d0c8ff326b88ac50e12780,2025-03-11_20h40.59.508,Tarea de decisión léxica,2024.2.5,Win32,142.8571429,,,,,,,,,,,,,,,,,,,,,,,241.6789,242.7268,a,1,0.3894,,0.3894,1,242.7268,243.2266,,,,,,232,FEM,NOWORD,DIS,150,heta,,el,,243.2267,243.2267,-0.564380265,-0.169258568,0,0,0,,0,116,116,231,1,bota,,,,,
,,,,,,6017320a527c3897e958d393,676192165fb32c2e1fb7aee6,67d0c8ff326b88ac50e12780,2025-03-11_20h40.59.508,Tarea de decisión léxica,2024.2.5,Win32,142.8571429,,,,,,,,,,,,,,,,,,,,,,,243.2274,244.2963,l,0,0.4113,,0.4113,0,244.2971,244.7965,,,,,,258,FEM,NOWORD,AGR,150,asama,,la,,244.7974,244.7981,-0.564380265,-0.169258568,0,0,0,,0,117,117,257,1,amiga,,,,,
,,,,,,6017320a527c3897e958d393,676192165fb32c2e1fb7aee6,67d0c8ff326b88ac50e12780,2025-03-11_20h40.59.508,Tarea de decisión léxica,2024.2.5,Win32,142.8571429,,,,,,,,,,,,,,,,,,,,,,,244.7988,245.8174,l,1,0.3613,,0.3613,1,245.818,246.3174,,,,,,371,FEM,WORD,DIS,150,pasta,,el,,246.3175,246.3176,-0.564380265,-0.169258568,0,0,0,,0,118,118,370,1,mosta,,,,,
,,,,,,6017320a527c3897e958d393,676192165fb32c2e1fb7aee6,67d0c8ff326b88ac50e12780,2025-03-11_20h40.59.508,Tarea de decisión léxica,2024.2.5,Win32,142.8571429,,,,,,,,,,,,,,,,,,,,,,,246.3183,247.3037,l,1,0.3314,,0.3314,1,247.3038,247.8036,,,,,,155,FEM,WORD,AGR,150,fuga,,la,,247.8036,247.8037,-0.564380265,-0.169258568,0,0,0,,0,119,119,154,1,luma,,,,,
,,,,,,6017320a527c3897e958d393,676192165fb32c2e1fb7aee6,67d0c8ff326b88ac50e12780,2025-03-11_20h40.59.508,Tarea de decisión léxica,2024.2.5,Win32,142.8571429,,,,,,,,,,,,,,,,,,,,,,,247.8046,248.8803,a,1,0.4142,,0.4142,1,248.8803,249.3803,,,,,,380,MAS,NOWORD,DIS,150,tunso,,la,,249.3804,249.3804,-0.564380265,-0.169258568,0,0,0,,0,120,120,379,1,turno,,,,,
,,,,,,6017320a527c3897e958d393,676192165fb32c2e1fb7aee6,67d0c8ff326b88ac50e12780,2025-03-11_20h40.59.508,Tarea de decisión léxica,2024.2.5,Win32,142.8571429,,,,,,,,,,,,,,,,,,,,,,,249.3811,250.3389,l,0,0.2999,,0.2999,0,250.3396,250.8389,,,,,,290,FEM,NOWORD,AGR,150,bumpa,,la,,250.8389,250.8389,-0.564380265,-0.169258568,0,0,0,,0,121,121,289,1,bomba,,,,,
,,,,,,6017320a527c3897e958d393,676192165fb32c2e1fb7aee6,67d0c8ff326b88ac50e12780,2025-03-11_20h40.59.508,Tarea de decisión léxica,2024.2.5,Win32,142.8571429,,,,,,,,,,,,,,,,,,,,,,,250.8399,251.8391,l,1,0.3417,,0.3417,1,251.8396,252.3388,,,,,,327,MAS,WORD,DIS,150,fondo,,la,,252.3397,252.3402,-0.564380265,-0.169258568,0,0,0,,0,122,122,326,1,lendo,,,,,
,,,,,,6017320a527c3897e958d393,676192165fb32c2e1fb7aee6,67d0c8ff326b88ac50e12780,2025-03-11_20h40.59.508,Tarea de decisión léxica,2024.2.5,Win32,142.8571429,,,,,,,,,,,,,,,,,,,,,,,252.3408,253.3809,l,1,0.3838,,0.3838,1,253.3811,253.8808,,,,,,305,MAS,WORD,DIS,150,avión,,la,,253.8808,253.8809,-0.564380265,-0.169258568,0,0,0,,0,123,123,304,1,adiol,,,,,
,,,,,,6017320a527c3897e958d393,676192165fb32c2e1fb7aee6,67d0c8ff326b88ac50e12780,2025-03-11_20h40.59.508,Tarea de decisión léxica,2024.2.5,Win32,142.8571429,,,,,,,,,,,,,,,,,,,,,,,253.8817,254.8253,l,1,0.2874,,0.2874,1,254.8254,255.3254,,,,,,3,FEM,WORD,AGR,150,vida,,la,,255.3255,255.3255,-0.564380265,-0.169258568,0,0,0,,0,124,124,2,1,dica,,,,,
,,,,,,6017320a527c3897e958d393,676192165fb32c2e1fb7aee6,67d0c8ff326b88ac50e12780,2025-03-11_20h40.59.508,Tarea de decisión léxica,2024.2.5,Win32,142.8571429,,,,,,,,,,,,,,,,,,,,,,,255.3263,256.2632,l,1,0.2783,,0.2783,1,256.2632,256.7631,,,,,,439,FEM,WORD,AGR,150,presa,,la,,256.7631,256.7632,-0.564380265,-0.169258568,0,0,0,,0,125,125,438,1,prema,,,,,
,,,,,,6017320a527c3897e958d393,676192165fb32c2e1fb7aee6,67d0c8ff326b88ac50e12780,2025-03-11_20h40.59.508,Tarea de decisión léxica,2024.2.5,Win32,142.8571429,,,,,,,,,,,,,,,,,,,,,,,256.7643,257.8395,a,1,0.4167,,0.4167,1,257.8396,258.3397,,,,,,122,MAS,NOWORD,AGR,150,bomo,,el,,258.3397,258.3398,-0.564380265,-0.169258568,0,0,0,,0,126,126,121,1,hoyo,,,,,
,,,,,,6017320a527c3897e958d393,676192165fb32c2e1fb7aee6,67d0c8ff326b88ac50e12780,2025-03-11_20h40.59.508,Tarea de decisión léxica,2024.2.5,Win32,142.8571429,,,,,,,,,,,,,,,,,,,,,,,258.3408,259.3189,l,1,0.3232,,0.3232,1,259.319,259.8191,,,,,,311,MAS,WORD,DIS,150,honor,,la,,259.82,259.8204,-0.564380265,-0.169258568,0,0,0,,0,127,127,310,1,nosor,,,,,
,,,,,,6017320a527c3897e958d393,676192165fb32c2e1fb7aee6,67d0c8ff326b88ac50e12780,2025-03-11_20h40.59.508,Tarea de decisión léxica,2024.2.5,Win32,142.8571429,,,,,,,,,,,,,,,,,,,,,,,259.8207,260.9026,a,1,0.4237,,0.4237,1,260.9027,261.4027,,,,,,148,FEM,NOWORD,DIS,150,pama,,el,,261.4028,261.4028,-0.564380265,-0.169258568,0,0,0,,0,128,128,147,1,hoja,,,,,
,,,,,,6017320a527c3897e958d393,676192165fb32c2e1fb7aee6,67d0c8ff326b88ac50e12780,2025-03-11_20h40.59.508,Tarea de decisión léxica,2024.2.5,Win32,142.8571429,,,,,,,,,,,,,,,,,,,,,,,261.4036,262.5764,a,1,0.5155,,0.5155,1,262.5765,263.0768,,,,,,136,MAS,NOWORD,DIS,150,geso,,la,,263.0768,263.0769,-0.564380265,-0.169258568,0,0,0,,0,129,129,135,1,tubo,,,,,
,,,,,,6017320a527c3897e958d393,676192165fb32c2e1fb7aee6,67d0c8ff326b88ac50e12780,2025-03-11_20h40.59.508,Tarea de decisión léxica,2024.2.5,Win32,142.8571429,,,,,,,,,,,,,,,,,,,,,,,263.0777,264.0834,a,1,0.3484,,0.3484,1,264.0836,264.5837,,,,,,354,FEM,NOWORD,AGR,150,cezca,,la,,264.5837,264.5838,-0.564380265,-0.169258568,0,0,0,,0,130,130,353,1,celda,,,,,
,,,,,,6017320a527c3897e958d393,676192165fb32c2e1fb7aee6,67d0c8ff326b88ac50e12780,2025-03-11_20h40.59.508,Tarea de decisión léxica,2024.2.5,Win32,142.8571429,,,,,,,,,,,,,,,,,,,,,,,264.5845,265.5769,a,1,0.3363,,0.3363,1,265.577,266.0768,,,,,,326,FEM,NOWORD,AGR,150,mabia,,la,,266.0777,266.0782,-0.564380265,-0.169258568,0,0,0,,0,131,131,325,1,magia,,,,,
,,,,,,6017320a527c3897e958d393,676192165fb32c2e1fb7aee6,67d0c8ff326b88ac50e12780,2025-03-11_20h40.59.508,Tarea de decisión léxica,2024.2.5,Win32,142.8571429,,,,,,,,,,,,,,,,,,,,,,,266.0787,267.1535,a,1,0.4202,,0.4202,1,267.1536,267.6534,,,,,,70,FEM,NOWORD,AGR,150,ñola,,la,,267.6535,267.6536,-0.564380265,-0.169258568,0,0,0,,0,132,132,69,1,zona,,,,,
,,,,,,6017320a527c3897e958d393,676192165fb32c2e1fb7aee6,67d0c8ff326b88ac50e12780,2025-03-11_20h40.59.508,Tarea de decisión léxica,2024.2.5,Win32,142.8571429,,,,,,,,,,,,,,,,,,,,,,,267.6543,268.7656,a,1,0.4576,,0.4576,1,268.7658,269.265,,,,,,100,MAS,NOWORD,DIS,150,soro,,la,,269.2651,269.2652,-0.564380265,-0.169258568,0,0,0,,0,133,133,99,1,lobo,,,,,
,,,,,,6017320a527c3897e958d393,676192165fb32c2e1fb7aee6,67d0c8ff326b88ac50e12780,2025-03-11_20h40.59.508,Tarea de decisión léxica,2024.2.5,Win32,142.8571429,,,,,,,,,,,,,,,,,,,,,,,269.266,270.2301,l,1,0.3084,,0.3084,1,270.2303,270.7303,,,,,,475,FEM,WORD,AGR,150,manta,,la,,270.7303,270.7304,-0.564380265,-0.169258568,0,0,0,,0,134,134,474,1,mucta,,,,,
,,,,,,6017320a527c3897e958d393,676192165fb32c2e1fb7aee6,67d0c8ff326b88ac50e12780,2025-03-11_20h40.59.508,Tarea de decisión léxica,2024.2.5,Win32,142.8571429,,,,,,,,,,,,,,,,,,,,,,,270.7312,271.8068,l,1,0.4188,,0.4188,1,271.8069,272.307,,,,,,101,MAS,WORD,DIS,150,tono,,la,,272.3071,272.3072,-0.564380265,-0.169258568,0,0,0,,0,135,135,100,1,gito,,,,,
,,,,,,6017320a527c3897e958d393,676192165fb32c2e1fb7aee6,67d0c8ff326b88ac50e12780,2025-03-11_20h40.59.508,Tarea de decisión léxica,2024.2.5,Win32,142.8571429,,,,,,,,,,,,,,,,,,,,,,,272.3079,273.3487,a,1,0.3863,,0.3863,1,273.3487,273.8498,,,,,,146,MAS,NOWORD,AGR,150,nobo,,el,,273.8506,273.851,-0.564380265,-0.169258568,0,0,0,,0,136,136,145,1,león,,,,,
,,,,,,6017320a527c3897e958d393,676192165fb32c2e1fb7aee6,67d0c8ff326b88ac50e12780,2025-03-11_20h40.59.508,Tarea de decisión léxica,2024.2.5,Win32,142.8571429,,,,,,,,,,,,,,,,,,,,,,,273.8515,274.9808,a,1,0.4733,,0.4733,1,274.9809,275.4808,,,,,,408,FEM,NOWORD,DIS,150,cauba,,el,,275.4808,275.481,-0.564380265,-0.169258568,0,0,0,,0,137,137,407,1,cueva,,,,,
,,,,,,6017320a527c3897e958d393,676192165fb32c2e1fb7aee6,67d0c8ff326b88ac50e12780,2025-03-11_20h40.59.508,Tarea de decisión léxica,2024.2.5,Win32,142.8571429,,,,,,,,,,,,,,,,,,,,,,,275.4817,276.5091,a,1,0.3685,,0.3685,1,276.5091,277.0088,,,,,,34,FEM,NOWORD,AGR,150,loda,,la,,277.0089,277.0089,-0.564380265,-0.169258568,0,0,0,,0,138,138,33,1,boca,,,,,
,,,,,,6017320a527c3897e958d393,676192165fb32c2e1fb7aee6,67d0c8ff326b88ac50e12780,2025-03-11_20h40.59.508,Tarea de decisión léxica,2024.2.5,Win32,142.8571429,,,,,,,,,,,,,,,,,,,,,,,277.0096,278.0437,a,0,0.3769,,0.3769,0,278.0443,278.5438,,,,,,341,MAS,WORD,AGR,150,valor,,el,,278.5439,278.544,-0.564380265,-0.169258568,0,0,0,,0,139,139,340,1,daror,,,,,
,,,,,,6017320a527c3897e958d393,676192165fb32c2e1fb7aee6,67d0c8ff326b88ac50e12780,2025-03-11_20h40.59.508,Tarea de decisión léxica,2024.2.5,Win32,142.8571429,,,,,,,,,,,,,,,,,,,,,,,278.5451,279.4537,l,1,0.2525,,0.2525,1,279.4543,279.9538,,,,,,17,FEM,WORD,AGR,150,mamá,,la,,279.9539,279.954,-0.564380265,-0.169258568,0,0,0,,0,140,140,16,1,paba,,,,,
,,,,,,6017320a527c3897e958d393,676192165fb32c2e1fb7aee6,67d0c8ff326b88ac50e12780,2025-03-11_20h40.59.508,Tarea de decisión léxica,2024.2.5,Win32,142.8571429,,,,,,,,,,,,,,,,,,,,,,,279.9547,280.8292,l,1,0.2206,,0.2206,1,280.8293,281.3288,,,,,,145,MAS,WORD,DIS,150,león,,la,,281.3297,281.3302,-0.564380265,-0.169258568,0,0,0,,0,141,141,144,1,nobo,,,,,
,,,,,,6017320a527c3897e958d393,676192165fb32c2e1fb7aee6,67d0c8ff326b88ac50e12780,2025-03-11_20h40.59.508,Tarea de decisión léxica,2024.2.5,Win32,142.8571429,,,,,,,,,,,,,,,,,,,,,,,281.3306,282.3984,a,1,0.4123,,0.4123,1,282.3985,282.8984,,,,,,308,MAS,NOWORD,DIS,150,holol,,la,,282.8986,282.8986,-0.564380265,-0.169258568,0,0,0,,0,142,142,307,1,hotel,,,,,
,,,,,,6017320a527c3897e958d393,676192165fb32c2e1fb7aee6,67d0c8ff326b88ac50e12780,2025-03-11_20h40.59.508,Tarea de decisión léxica,2024.2.5,Win32,142.8571429,,,,,,,,,,,,,,,,,,,,,,,282.8995,284.1765,a,1,0.6187,,0.6187,1,284.1766,284.6764,,,,,,54,FEM,NOWORD,AGR,150,rora,,la,,284.6765,284.6766,-0.564380265,-0.169258568,0,0,0,,0,143,143,53,1,boda,,,,,
,,,,,,6017320a527c3897e958d393,676192165fb32c2e1fb7aee6,67d0c8ff326b88ac50e12780,2025-03-11_20h40.59.508,Tarea de decisión léxica,2024.2.5,Win32,142.8571429,,,,,,,,,,,,,,,,,,,,,,,284.6773,285.8026,l,1,0.4711,,0.4711,1,285.8027,286.3018,,,,,,71,FEM,WORD,AGR,150,isla,,la,,286.3019,286.302,-0.564380265,-0.169258568,0,0,0,,0,144,144,70,1,urla,,,,,
,,,,,,6017320a527c3897e958d393,676192165fb32c2e1fb7aee6,67d0c8ff326b88ac50e12780,2025-03-11_20h40.59.508,Tarea de decisión léxica,2024.2.5,Win32,142.8571429,,,,,,,,,,,,,,,,,,,,,,,286.3029,287.3504,a,1,0.3895,,0.3895,1,287.3506,287.8504,,,,,,406,FEM,NOWORD,AGR,150,rarra,,la,,287.8505,287.8506,-0.564380265,-0.169258568,0,0,0,,0,145,145,405,1,barra,,,,,
,,,,,,6017320a527c3897e958d393,676192165fb32c2e1fb7aee6,67d0c8ff326b88ac50e12780,2025-03-11_20h40.59.508,Tarea de decisión léxica,2024.2.5,Win32,142.8571429,,,,,,,,,,,,,,,,,,,,,,,287.8512,289.0243,l,0,0.5147,,0.5147,0,289.0249,289.5243,,,,,,316,FEM,NOWORD,DIS,150,riosa,,el,,289.5251,289.5256,-0.564380265,-0.169258568,0,0,0,,0,146,146,315,1,reina,,,,,
,,,,,,6017320a527c3897e958d393,676192165fb32c2e1fb7aee6,67d0c8ff326b88ac50e12780,2025-03-11_20h40.59.508,Tarea de decisión léxica,2024.2.5,Win32,142.8571429,,,,,,,,,,,,,,,,,,,,,,,289.526,290.5384,l,1,0.3546,,0.3546,1,290.539,291.0385,,,,,,127,MAS,WORD,DIS,150,pico,,la,,291.0385,291.0386,-0.564380265,-0.169258568,0,0,0,,0,147,147,126,1,itio,,,,,
,,,,,,6017320a527c3897e958d393,676192165fb32c2e1fb7aee6,67d0c8ff326b88ac50e12780,2025-03-11_20h40.59.508,Tarea de decisión léxica,2024.2.5,Win32,142.8571429,,,,,,,,,,,,,,,,,,,,,,,291.0394,292.0318,a,1,0.3376,,0.3376,1,292.0318,292.5318,,,,,,24,FEM,NOWORD,DIS,150,giva,,el,,292.5319,292.532,-0.564380265,-0.169258568,0,0,0,,0,148,148,23,1,hija,,,,,
,,,,,,6017320a527c3897e958d393,676192165fb32c2e1fb7aee6,67d0c8ff326b88ac50e12780,2025-03-11_20h40.59.508,Tarea de decisión léxica,2024.2.5,Win32,142.8571429,,,,,,,,,,,,,,,,,,,,,,,292.5328,293.5249,a,1,0.3337,,0.3337,1,293.5249,294.0249,,,,,,282,MAS,NOWORD,AGR,150,cauro,,el,,294.0249,294.025,-0.564380265,-0.169258568,0,0,0,,0,149,149,281,1,cielo,,,,,
,,,,,,6017320a527c3897e958d393,676192165fb32c2e1fb7aee6,67d0c8ff326b88ac50e12780,2025-03-11_20h40.59.508,Tarea de decisión léxica,2024.2.5,Win32,142.8571429,,,,,,,,,,,,,,,,,,,,,,,294.0258,295.2196,l,1,0.5389,,0.5389,1,295.2196,295.7196,,,,,,135,MAS,WORD,DIS,150,tubo,,la,,295.7196,295.7197,-0.564380265,-0.169258568,0,0,0,,0,150,150,134,1,geso,,,,,
,,,,,,6017320a527c3897e958d393,676192165fb32c2e1fb7aee6,67d0c8ff326b88ac50e12780,2025-03-11_20h40.59.508,Tarea de decisión léxica,2024.2.5,Win32,142.8571429,,,,,,,,,,,,,,,,,,,,,,,295.7205,296.6919,l,1,0.3136,,0.3136,1,296.6919,297.192,,,,,,117,MAS,WORD,DIS,150,palo,,la,,297.193,297.1937,-0.564380265,-0.169258568,0,0,0,,0,151,151,116,1,movo,,,,,
,,,,,,6017320a527c3897e958d393,676192165fb32c2e1fb7aee6,67d0c8ff326b88ac50e12780,2025-03-11_20h40.59.508,Tarea de decisión léxica,2024.2.5,Win32,142.8571429,,,,,,,,,,,,,,,,,,,,,,,297.1942,298.2061,a,1,0.3563,,0.3563,1,298.2061,298.706,,,,,,378,MAS,NOWORD,AGR,150,gaulo,,el,,298.7061,298.7062,-0.564380265,-0.169258568,0,0,0,,0,152,152,377,1,hielo,,,,,
,,,,,,6017320a527c3897e958d393,676192165fb32c2e1fb7aee6,67d0c8ff326b88ac50e12780,2025-03-11_20h40.59.508,Tarea de decisión léxica,2024.2.5,Win32,142.8571429,,,,,,,,,,,,,,,,,,,,,,,298.7069,299.7061,a,1,0.3427,,0.3427,1,299.7063,300.2063,,,,,,106,FEM,NOWORD,AGR,150,vina,,la,,300.2063,300.2065,-0.564380265,-0.169258568,0,0,0,,0,153,153,105,1,sopa,,,,,
,,,,,,6017320a527c3897e958d393,676192165fb32c2e1fb7aee6,67d0c8ff326b88ac50e12780,2025-03-11_20h40.59.508,Tarea de decisión léxica,2024.2.5,Win32,142.8571429,,,,,,,,,,,,,,,,,,,,,,,300.2072,301.3662,l,1,0.5018,,0.5018,1,301.3663,301.8662,,,,,,459,MAS,WORD,AGR,150,grado,,el,,301.8663,301.8663,-0.564380265,-0.169258568,0,0,0,,0,154,154,458,1,fraco,,,,,
,,,,,,6017320a527c3897e958d393,676192165fb32c2e1fb7aee6,67d0c8ff326b88ac50e12780,2025-03-11_20h40.59.508,Tarea de decisión léxica,2024.2.5,Win32,142.8571429,,,,,,,,,,,,,,,,,,,,,,,301.8671,302.9149,a,1,0.393,,0.393,1,302.915,303.415,,,,,,294,MAS,NOWORD,AGR,150,cacso,,el,,303.4159,303.4164,-0.564380265,-0.169258568,0,0,0,,0,155,155,293,1,campo,,,,,
,,,,,,6017320a527c3897e958d393,676192165fb32c2e1fb7aee6,67d0c8ff326b88ac50e12780,2025-03-11_20h40.59.508,Tarea de decisión léxica,2024.2.5,Win32,142.8571429,,,,,,,,,,,,,,,,,,,,,,,303.4168,304.478,a,1,0.4083,,0.4083,1,304.4781,304.9779,,,,,,382,MAS,NOWORD,AGR,150,nusor,,el,,304.978,304.978,-0.564380265,-0.169258568,0,0,0,,0,156,156,381,1,humor,,,,,
,,,,,,6017320a527c3897e958d393,676192165fb32c2e1fb7aee6,67d0c8ff326b88ac50e12780,2025-03-11_20h40.59.508,Tarea de decisión léxica,2024.2.5,Win32,142.8571429,,,,,,,,,,,,,,,,,,,,,,,304.9789,306.0403,a,1,0.4064,,0.4064,1,306.0404,306.5406,,,,,,256,MAS,NOWORD,DIS,150,mauco,,la,,306.5406,306.5408,-0.564380265,-0.169258568,0,0,0,,0,157,157,255,1,miedo,,,,,
,,,,,,6017320a527c3897e958d393,676192165fb32c2e1fb7aee6,67d0c8ff326b88ac50e12780,2025-03-11_20h40.59.508,Tarea de decisión léxica,2024.2.5,Win32,142.8571429,,,,,,,,,,,,,,,,,,,,,,,306.5416,307.6101,l,1,0.4106,,0.4106,1,307.6102,308.11,,,,,,197,MAS,WORD,DIS,150,bate,,la,,308.1101,308.1102,-0.564380265,-0.169258568,0,0,0,,0,158,158,196,1,dade,,,,,
,,,,,,6017320a527c3897e958d393,676192165fb32c2e1fb7aee6,67d0c8ff326b88ac50e12780,2025-03-11_20h40.59.508,Tarea de decisión léxica,2024.2.5,Win32,142.8571429,,,,,,,,,,,,,,,,,,,,,,,308.1108,309.1032,l,1,0.3359,,0.3359,1,309.1032,309.6033,,,,,,175,FEM,WORD,DIS,150,goma,,el,,309.6033,309.6034,-0.564380265,-0.169258568,0,0,0,,0,159,159,174,1,hosa,,,,,
,,,,,,6017320a527c3897e958d393,676192165fb32c2e1fb7aee6,67d0c8ff326b88ac50e12780,2025-03-11_20h40.59.508,Tarea de decisión léxica,2024.2.5,Win32,142.8571429,,,,,,,,,,,,,,,,,,,,,,,309.6042,310.5895,l,1,0.3307,,0.3307,1,310.5895,311.0895,,,,,,363,FEM,WORD,DIS,150,deuda,,el,,311.0905,318.5419,-0.564380265,-0.169258568,0,0,0,space,0,160,160,362,1,veida,7.4401,,,,
,,,,,,6017320a527c3897e958d393,676192165fb32c2e1fb7aee6,67d0c8ff326b88ac50e12780,2025-03-11_20h40.59.508,Tarea de decisión léxica,2024.2.5,Win32,142.8571429,,,,,,,,,,,,,,,,,,,,,,,318.5429,319.5282,l,1,0.3272,,0.3272,1,319.5283,320.0283,,,,,,115,FEM,WORD,AGR,150,pata,,la,,320.0284,320.0285,-0.564380265,-0.169258568,0,0,0,,0,161,161,114,1,haca,,,,,
,,,,,,6017320a527c3897e958d393,676192165fb32c2e1fb7aee6,67d0c8ff326b88ac50e12780,2025-03-11_20h40.59.508,Tarea de decisión léxica,2024.2.5,Win32,142.8571429,,,,,,,,,,,,,,,,,,,,,,,320.0294,321.0769,l,1,0.3936,,0.3936,1,321.0769,321.5771,,,,,,373,FEM,WORD,AGR,150,pizza,,la,,321.5772,321.5773,-0.564380265,-0.169258568,0,0,0,,0,162,162,372,1,pogza,,,,,
,,,,,,6017320a527c3897e958d393,676192165fb32c2e1fb7aee6,67d0c8ff326b88ac50e12780,2025-03-11_20h40.59.508,Tarea de decisión léxica,2024.2.5,Win32,142.8571429,,,,,,,,,,,,,,,,,,,,,,,321.5781,322.5079,l,1,0.2718,,0.2718,1,322.508,323.0078,,,,,,81,FEM,WORD,AGR,150,dama,,la,,323.0079,323.0079,-0.564380265,-0.169258568,0,0,0,,0,163,163,80,1,vasa,,,,,
,,,,,,6017320a527c3897e958d393,676192165fb32c2e1fb7aee6,67d0c8ff326b88ac50e12780,2025-03-11_20h40.59.508,Tarea de decisión léxica,2024.2.5,Win32,142.8571429,,,,,,,,,,,,,,,,,,,,,,,323.0087,323.9387,l,1,0.2713,,0.2713,1,323.9388,324.4387,,,,,,325,FEM,WORD,DIS,150,magia,,el,,324.4387,324.4388,-0.564380265,-0.169258568,0,0,0,,0,164,164,324,1,mabia,,,,,
,,,,,,6017320a527c3897e958d393,676192165fb32c2e1fb7aee6,67d0c8ff326b88ac50e12780,2025-03-11_20h40.59.508,Tarea de decisión léxica,2024.2.5,Win32,142.8571429,,,,,,,,,,,,,,,,,,,,,,,324.4396,325.4734,l,0,0.3757,,0.3757,0,325.4738,325.9734,,,,,,36,MAS,NOWORD,DIS,150,meno,,la,,325.9742,325.9747,-0.564380265,-0.169258568,0,0,0,,0,165,165,35,1,pelo,,,,,
,,,,,,6017320a527c3897e958d393,676192165fb32c2e1fb7aee6,67d0c8ff326b88ac50e12780,2025-03-11_20h40.59.508,Tarea de decisión léxica,2024.2.5,Win32,142.8571429,,,,,,,,,,,,,,,,,,,,,,,325.975,326.9596,a,1,0.3302,,0.3302,1,326.9602,327.4598,,,,,,56,MAS,NOWORD,DIS,150,jado,,la,,327.4598,327.46,-0.564380265,-0.169258568,0,0,0,,0,166,166,55,1,gato,,,,,
,,,,,,6017320a527c3897e958d393,676192165fb32c2e1fb7aee6,67d0c8ff326b88ac50e12780,2025-03-11_20h40.59.508,Tarea de decisión léxica,2024.2.5,Win32,142.8571429,,,,,,,,,,,,,,,,,,,,,,,327.4606,328.3488,l,1,0.2332,,0.2332,1,328.3489,328.8488,,,,,,25,FEM,WORD,AGR,150,cama,,la,,328.8489,328.849,-0.564380265,-0.169258568,0,0,0,,0,167,167,24,1,paza,,,,,
,,,,,,6017320a527c3897e958d393,676192165fb32c2e1fb7aee6,67d0c8ff326b88ac50e12780,2025-03-11_20h40.59.508,Tarea de decisión léxica,2024.2.5,Win32,142.8571429,,,,,,,,,,,,,,,,,,,,,,,328.8496,329.9047,a,1,0.3961,,0.3961,1,329.9047,330.4046,,,,,,424,MAS,NOWORD,DIS,150,quigo,,la,,330.4048,330.4049,-0.564380265,-0.169258568,0,0,0,,0,168,168,423,1,queso,,,,,
,,,,,,6017320a527c3897e958d393,676192165fb32c2e1fb7aee6,67d0c8ff326b88ac50e12780,2025-03-11_20h40.59.508,Tarea de decisión léxica,2024.2.5,Win32,142.8571429,,,,,,,,,,,,,,,,,,,,,,,330.4056,331.37,l,1,0.3056,,0.3056,1,331.3702,331.87,,,,,,85,MAS,WORD,AGR,150,lago,,el,,331.8701,331.8701,-0.564380265,-0.169258568,0,0,0,,0,169,169,84,1,babo,,,,,
,,,,,,6017320a527c3897e958d393,676192165fb32c2e1fb7aee6,67d0c8ff326b88ac50e12780,2025-03-11_20h40.59.508,Tarea de decisión léxica,2024.2.5,Win32,142.8571429,,,,,,,,,,,,,,,,,,,,,,,331.8708,332.9049,a,1,0.3768,,0.3768,1,332.905,333.405,,,,,,162,MAS,NOWORD,AGR,150,bopo,,el,,333.4059,333.4063,-0.564380265,-0.169258568,0,0,0,,0,170,170,161,1,coro,,,,,
,,,,,,6017320a527c3897e958d393,676192165fb32c2e1fb7aee6,67d0c8ff326b88ac50e12780,2025-03-11_20h40.59.508,Tarea de decisión léxica,2024.2.5,Win32,142.8571429,,,,,,,,,,,,,,,,,,,,,,,333.4067,334.3635,l,0,0.2998,,0.2998,0,334.364,334.8635,,,,,,302,FEM,NOWORD,AGR,150,ranga,,la,,334.8635,334.8637,-0.564380265,-0.169258568,0,0,0,,0,171,171,301,1,banda,,,,,
,,,,,,6017320a527c3897e958d393,676192165fb32c2e1fb7aee6,67d0c8ff326b88ac50e12780,2025-03-11_20h40.59.508,Tarea de decisión léxica,2024.2.5,Win32,142.8571429,,,,,,,,,,,,,,,,,,,,,,,334.8644,335.947,a,1,0.4242,,0.4242,1,335.9477,336.4478,,,,,,244,MAS,NOWORD,DIS,150,asamo,,la,,336.4479,336.448,-0.564380265,-0.169258568,0,0,0,,0,172,172,243,1,amigo,,,,,
,,,,,,6017320a527c3897e958d393,676192165fb32c2e1fb7aee6,67d0c8ff326b88ac50e12780,2025-03-11_20h40.59.508,Tarea de decisión léxica,2024.2.5,Win32,142.8571429,,,,,,,,,,,,,,,,,,,,,,,336.4487,337.4402,l,1,0.337,,0.337,1,337.4402,337.9401,,,,,,249,FEM,WORD,DIS,150,clase,,el,,337.9401,337.9403,-0.564380265,-0.169258568,0,0,0,,0,173,173,248,1,plane,,,,,
,,,,,,6017320a527c3897e958d393,676192165fb32c2e1fb7aee6,67d0c8ff326b88ac50e12780,2025-03-11_20h40.59.508,Tarea de decisión léxica,2024.2.5,Win32,142.8571429,,,,,,,,,,,,,,,,,,,,,,,337.941,338.9473,a,1,0.3481,,0.3481,1,338.9475,339.4475,,,,,,202,FEM,NOWORD,AGR,150,cusa,,la,,339.4476,339.4476,-0.564380265,-0.169258568,0,0,0,,0,174,174,201,1,cuna,,,,,
,,,,,,6017320a527c3897e958d393,676192165fb32c2e1fb7aee6,67d0c8ff326b88ac50e12780,2025-03-11_20h40.59.508,Tarea de decisión léxica,2024.2.5,Win32,142.8571429,,,,,,,,,,,,,,,,,,,,,,,339.4484,340.3851,l,1,0.2819,,0.2819,1,340.3851,340.885,,,,,,455,MAS,WORD,AGR,150,reino,,el,,340.8859,340.8863,-0.564380265,-0.169258568,0,0,0,,0,175,175,454,1,riaso,,,,,
,,,,,,6017320a527c3897e958d393,676192165fb32c2e1fb7aee6,67d0c8ff326b88ac50e12780,2025-03-11_20h40.59.508,Tarea de decisión léxica,2024.2.5,Win32,142.8571429,,,,,,,,,,,,,,,,,,,,,,,340.8867,341.8506,l,0,0.3097,,0.3097,0,341.8512,342.3507,,,,,,324,FEM,NOWORD,DIS,150,certa,,el,,342.3508,342.3509,-0.564380265,-0.169258568,0,0,0,,0,176,176,323,1,cinta,,,,,
,,,,,,6017320a527c3897e958d393,676192165fb32c2e1fb7aee6,67d0c8ff326b88ac50e12780,2025-03-11_20h40.59.508,Tarea de decisión léxica,2024.2.5,Win32,142.8571429,,,,,,,,,,,,,,,,,,,,,,,342.3517,343.6006,a,1,0.5906,,0.5906,1,343.6012,344.1007,,,,,,166,FEM,NOWORD,AGR,150,dera,,la,,344.1008,344.1009,-0.564380265,-0.169258568,0,0,0,,0,177,177,165,1,vela,,,,,
,,,,,,6017320a527c3897e958d393,676192165fb32c2e1fb7aee6,67d0c8ff326b88ac50e12780,2025-03-11_20h40.59.508,Tarea de decisión léxica,2024.2.5,Win32,142.8571429,,,,,,,,,,,,,,,,,,,,,,,344.1017,345.1148,a,1,0.3592,,0.3592,1,345.1148,345.615,,,,,,170,MAS,NOWORD,AGR,150,mibo,,el,,345.615,345.6151,-0.564380265,-0.169258568,0,0,0,,0,178,178,169,1,cubo,,,,,
,,,,,,6017320a527c3897e958d393,676192165fb32c2e1fb7aee6,67d0c8ff326b88ac50e12780,2025-03-11_20h40.59.508,Tarea de decisión léxica,2024.2.5,Win32,142.8571429,,,,,,,,,,,,,,,,,,,,,,,345.6159,346.5806,l,1,0.3111,,0.3111,1,346.5807,347.0805,,,,,,167,FEM,WORD,DIS,150,jefa,,el,,347.0813,347.0817,-0.564380265,-0.169258568,0,0,0,,0,179,179,166,1,zifa,,,,,
,,,,,,6017320a527c3897e958d393,676192165fb32c2e1fb7aee6,67d0c8ff326b88ac50e12780,2025-03-11_20h40.59.508,Tarea de decisión léxica,2024.2.5,Win32,142.8571429,,,,,,,,,,,,,,,,,,,,,,,347.082,348.0668,a,1,0.3279,,0.3279,1,348.0669,348.5668,,,,,,412,MAS,NOWORD,DIS,150,mobro,,la,,348.5668,348.5668,-0.564380265,-0.169258568,0,0,0,,0,180,180,411,1,pollo,,,,,
,,,,,,6017320a527c3897e958d393,676192165fb32c2e1fb7aee6,67d0c8ff326b88ac50e12780,2025-03-11_20h40.59.508,Tarea de decisión léxica,2024.2.5,Win32,142.8571429,,,,,,,,,,,,,,,,,,,,,,,348.5677,349.5113,l,1,0.2875,,0.2875,1,349.5113,350.0112,,,,,,77,MAS,WORD,DIS,150,loco,,la,,350.0113,350.0115,-0.564380265,-0.169258568,0,0,0,,0,181,181,76,1,fodo,,,,,
,,,,,,6017320a527c3897e958d393,676192165fb32c2e1fb7aee6,67d0c8ff326b88ac50e12780,2025-03-11_20h40.59.508,Tarea de decisión léxica,2024.2.5,Win32,142.8571429,,,,,,,,,,,,,,,,,,,,,,,350.0122,350.9212,l,1,0.2539,,0.2539,1,350.9212,351.422,,,,,,295,MAS,WORD,AGR,150,dolor,,el,,351.422,351.422,-0.564380265,-0.169258568,0,0,0,,0,182,182,294,1,goler,,,,,
,,,,,,6017320a527c3897e958d393,676192165fb32c2e1fb7aee6,67d0c8ff326b88ac50e12780,2025-03-11_20h40.59.508,Tarea de decisión léxica,2024.2.5,Win32,142.8571429,,,,,,,,,,,,,,,,,,,,,,,351.4228,352.3659,l,1,0.2899,,0.2899,1,352.366,352.866,,,,,,387,FEM,WORD,AGR,150,crema,,la,,352.866,352.8662,-0.564380265,-0.169258568,0,0,0,,0,183,183,386,1,bresa,,,,,
,,,,,,6017320a527c3897e958d393,676192165fb32c2e1fb7aee6,67d0c8ff326b88ac50e12780,2025-03-11_20h40.59.508,Tarea de decisión léxica,2024.2.5,Win32,142.8571429,,,,,,,,,,,,,,,,,,,,,,,352.8669,353.8312,l,1,0.3082,,0.3082,1,353.8312,354.3312,,,,,,253,MAS,WORD,AGR,150,chico,,el,,354.332,354.3325,-0.564380265,-0.169258568,0,0,0,,0,184,184,252,1,trido,,,,,
,,,,,,6017320a527c3897e958d393,676192165fb32c2e1fb7aee6,67d0c8ff326b88ac50e12780,2025-03-11_20h40.59.508,Tarea de decisión léxica,2024.2.5,Win32,142.8571429,,,,,,,,,,,,,,,,,,,,,,,354.3331,355.3107,a,1,0.3193,,0.3193,1,355.3108,355.8105,,,,,,312,MAS,NOWORD,DIS,150,nosor,,la,,355.8106,355.8108,-0.564380265,-0.169258568,0,0,0,,0,185,185,311,1,honor,,,,,
,,,,,,6017320a527c3897e958d393,676192165fb32c2e1fb7aee6,67d0c8ff326b88ac50e12780,2025-03-11_20h40.59.508,Tarea de decisión léxica,2024.2.5,Win32,142.8571429,,,,,,,,,,,,,,,,,,,,,,,355.8115,356.7137,l,1,0.2486,,0.2486,1,356.7137,357.2137,,,,,,37,MAS,WORD,DIS,150,rato,,la,,357.2137,357.2137,-0.564380265,-0.169258568,0,0,0,,0,186,186,36,1,gaco,,,,,
,,,,,,6017320a527c3897e958d393,676192165fb32c2e1fb7aee6,67d0c8ff326b88ac50e12780,2025-03-11_20h40.59.508,Tarea de decisión léxica,2024.2.5,Win32,142.8571429,,,,,,,,,,,,,,,,,,,,,,,357.2145,358.1583,l,1,0.2869,,0.2869,1,358.1584,358.6584,,,,,,5,FEM,WORD,DIS,150,cosa,,el,,358.6584,358.6586,-0.564380265,-0.169258568,0,0,0,,0,187,187,4,1,poga,,,,,
,,,,,,6017320a527c3897e958d393,676192165fb32c2e1fb7aee6,67d0c8ff326b88ac50e12780,2025-03-11_20h40.59.508,Tarea de decisión léxica,2024.2.5,Win32,142.8571429,,,,,,,,,,,,,,,,,,,,,,,358.6594,359.5959,l,1,0.279,,0.279,1,359.596,360.096,,,,,,215,FEM,WORD,AGR,150,raíz,,la,,360.096,360.096,-0.564380265,-0.169258568,0,0,0,,0,188,188,214,1,raua,,,,,
,,,,,,6017320a527c3897e958d393,676192165fb32c2e1fb7aee6,67d0c8ff326b88ac50e12780,2025-03-11_20h40.59.508,Tarea de decisión léxica,2024.2.5,Win32,142.8571429,,,,,,,,,,,,,,,,,,,,,,,360.0968,361.1031,a,1,0.3478,,0.3478,1,361.1033,361.6029,,,,,,268,MAS,NOWORD,DIS,150,figro,,la,,361.6038,361.6043,-0.564380265,-0.169258568,0,0,0,,0,189,189,267,1,libro,,,,,
,,,,,,6017320a527c3897e958d393,676192165fb32c2e1fb7aee6,67d0c8ff326b88ac50e12780,2025-03-11_20h40.59.508,Tarea de decisión léxica,2024.2.5,Win32,142.8571429,,,,,,,,,,,,,,,,,,,,,,,361.6047,362.6727,a,1,0.413,,0.413,1,362.6727,363.1727,,,,,,480,MAS,NOWORD,DIS,150,rimpo,,la,,363.1728,363.1729,-0.564380265,-0.169258568,0,0,0,,0,190,190,479,1,rumbo,,,,,
,,,,,,6017320a527c3897e958d393,676192165fb32c2e1fb7aee6,67d0c8ff326b88ac50e12780,2025-03-11_20h40.59.508,Tarea de decisión léxica,2024.2.5,Win32,142.8571429,,,,,,,,,,,,,,,,,,,,,,,363.1736,364.2009,l,1,0.3687,,0.3687,1,364.201,364.7007,,,,,,383,FEM,WORD,AGR,150,frase,,la,,364.7008,364.7009,-0.564380265,-0.169258568,0,0,0,,0,191,191,382,1,brame,,,,,
,,,,,,6017320a527c3897e958d393,676192165fb32c2e1fb7aee6,67d0c8ff326b88ac50e12780,2025-03-11_20h40.59.508,Tarea de decisión léxica,2024.2.5,Win32,142.8571429,,,,,,,,,,,,,,,,,,,,,,,364.7016,365.7772,a,1,0.4205,,0.4205,1,365.7773,366.2772,,,,,,334,FEM,NOWORD,AGR,150,dalea,,la,,366.2773,366.2775,-0.564380265,-0.169258568,0,0,0,,0,192,192,333,1,tarea,,,,,
,,,,,,6017320a527c3897e958d393,676192165fb32c2e1fb7aee6,67d0c8ff326b88ac50e12780,2025-03-11_20h40.59.508,Tarea de decisión léxica,2024.2.5,Win32,142.8571429,,,,,,,,,,,,,,,,,,,,,,,366.2782,367.3538,a,1,0.4197,,0.4197,1,367.3539,367.854,,,,,,88,MAS,NOWORD,DIS,150,damo,,la,,367.8541,367.8542,-0.564380265,-0.169258568,0,0,0,,0,193,193,87,1,vaso,,,,,
,,,,,,6017320a527c3897e958d393,676192165fb32c2e1fb7aee6,67d0c8ff326b88ac50e12780,2025-03-11_20h40.59.508,Tarea de decisión léxica,2024.2.5,Win32,142.8571429,,,,,,,,,,,,,,,,,,,,,,,367.8549,368.8831,a,1,0.3744,,0.3744,1,368.8831,369.382,,,,,,108,MAS,NOWORD,DIS,150,raot,,la,,369.3827,369.3832,-0.564380265,-0.169258568,0,0,0,,0,194,194,107,1,saco,,,,,
,,,,,,6017320a527c3897e958d393,676192165fb32c2e1fb7aee6,67d0c8ff326b88ac50e12780,2025-03-11_20h40.59.508,Tarea de decisión léxica,2024.2.5,Win32,142.8571429,,,,,,,,,,,,,,,,,,,,,,,369.3836,370.3681,l,1,0.3301,,0.3301,1,370.3682,370.8681,,,,,,441,FEM,WORD,DIS,150,selva,,el,,370.8681,370.8681,-0.564380265,-0.169258568,0,0,0,,0,195,195,440,1,telza,,,,,
,,,,,,6017320a527c3897e958d393,676192165fb32c2e1fb7aee6,67d0c8ff326b88ac50e12780,2025-03-11_20h40.59.508,Tarea de decisión léxica,2024.2.5,Win32,142.8571429,,,,,,,,,,,,,,,,,,,,,,,370.8689,371.8753,a,1,0.3489,,0.3489,1,371.8753,372.3753,,,,,,242,MAS,NOWORD,AGR,150,mirdo,,el,,372.3753,372.3755,-0.564380265,-0.169258568,0,0,0,,0,196,196,241,1,mundo,,,,,
,,,,,,6017320a527c3897e958d393,676192165fb32c2e1fb7aee6,67d0c8ff326b88ac50e12780,2025-03-11_20h40.59.508,Tarea de decisión léxica,2024.2.5,Win32,142.8571429,,,,,,,,,,,,,,,,,,,,,,,372.3762,373.3963,l,1,0.3657,,0.3657,1,373.3964,373.8963,,,,,,195,FEM,WORD,AGR,150,tela,,la,,373.8964,373.8965,-0.564380265,-0.169258568,0,0,0,,0,197,197,194,1,sira,,,,,
,,,,,,6017320a527c3897e958d393,676192165fb32c2e1fb7aee6,67d0c8ff326b88ac50e12780,2025-03-11_20h40.59.508,Tarea de decisión léxica,2024.2.5,Win32,142.8571429,,,,,,,,,,,,,,,,,,,,,,,373.8974,374.8411,l,1,0.2856,,0.2856,1,374.8412,375.341,,,,,,333,FEM,WORD,AGR,150,tarea,,la,,375.3411,375.3412,-0.564380265,-0.169258568,0,0,0,,0,198,198,332,1,dalea,,,,,
,,,,,,6017320a527c3897e958d393,676192165fb32c2e1fb7aee6,67d0c8ff326b88ac50e12780,2025-03-11_20h40.59.508,Tarea de decisión léxica,2024.2.5,Win32,142.8571429,,,,,,,,,,,,,,,,,,,,,,,375.342,376.2854,a,1,0.2871,,0.2871,1,376.2855,376.7857,,,,,,448,MAS,NOWORD,DIS,150,buaso,,la,,376.7865,376.787,-0.564380265,-0.169258568,0,0,0,,0,199,199,447,1,bolso,,,,,
,,,,,,6017320a527c3897e958d393,676192165fb32c2e1fb7aee6,67d0c8ff326b88ac50e12780,2025-03-11_20h40.59.508,Tarea de decisión léxica,2024.2.5,Win32,142.8571429,,,,,,,,,,,,,,,,,,,,,,,376.7874,377.661,l,1,0.2204,,0.2204,1,377.6611,378.1607,,,,,,309,FEM,WORD,DIS,150,silla,,el,,378.1608,378.1609,-0.564380265,-0.169258568,0,0,0,,0,200,200,308,1,tirra,,,,,
,,,,,,6017320a527c3897e958d393,676192165fb32c2e1fb7aee6,67d0c8ff326b88ac50e12780,2025-03-11_20h40.59.508,Tarea de decisión léxica,2024.2.5,Win32,142.8571429,,,,,,,,,,,,,,,,,,,,,,,378.1616,379.057,l,1,0.2414,,0.2414,1,379.057,379.5567,,,,,,143,MAS,WORD,AGR,150,pavo,,el,,379.5568,379.5569,-0.564380265,-0.169258568,0,0,0,,0,201,201,142,1,pezo,,,,,
,,,,,,6017320a527c3897e958d393,676192165fb32c2e1fb7aee6,67d0c8ff326b88ac50e12780,2025-03-11_20h40.59.508,Tarea de decisión léxica,2024.2.5,Win32,142.8571429,,,,,,,,,,,,,,,,,,,,,,,379.5576,380.5501,a,1,0.3337,,0.3337,1,380.5503,381.0498,,,,,,446,MAS,NOWORD,AGR,150,ascor,,el,,381.0499,381.05,-0.564380265,-0.169258568,0,0,0,,0,202,202,445,1,actor,,,,,
,,,,,,6017320a527c3897e958d393,676192165fb32c2e1fb7aee6,67d0c8ff326b88ac50e12780,2025-03-11_20h40.59.508,Tarea de decisión léxica,2024.2.5,Win32,142.8571429,,,,,,,,,,,,,,,,,,,,,,,381.0508,381.9737,l,1,0.2623,,0.2623,1,381.9738,382.4737,,,,,,445,MAS,WORD,AGR,150,actor,,el,,382.4746,382.4751,-0.564380265,-0.169258568,0,0,0,,0,203,203,444,1,ascor,,,,,
,,,,,,6017320a527c3897e958d393,676192165fb32c2e1fb7aee6,67d0c8ff326b88ac50e12780,2025-03-11_20h40.59.508,Tarea de decisión léxica,2024.2.5,Win32,142.8571429,,,,,,,,,,,,,,,,,,,,,,,382.4754,383.4878,l,1,0.3546,,0.3546,1,383.4879,383.9878,,,,,,423,MAS,WORD,DIS,150,queso,,la,,383.9879,383.9881,-0.564380265,-0.169258568,0,0,0,,0,204,204,422,1,quigo,,,,,
,,,,,,6017320a527c3897e958d393,676192165fb32c2e1fb7aee6,67d0c8ff326b88ac50e12780,2025-03-11_20h40.59.508,Tarea de decisión léxica,2024.2.5,Win32,142.8571429,,,,,,,,,,,,,,,,,,,,,,,383.9888,384.981,a,1,0.3349,,0.3349,1,384.9811,385.4813,,,,,,82,FEM,NOWORD,AGR,150,vasa,,la,,385.4813,385.4814,-0.564380265,-0.169258568,0,0,0,,0,205,205,81,1,dama,,,,,
,,,,,,6017320a527c3897e958d393,676192165fb32c2e1fb7aee6,67d0c8ff326b88ac50e12780,2025-03-11_20h40.59.508,Tarea de decisión léxica,2024.2.5,Win32,142.8571429,,,,,,,,,,,,,,,,,,,,,,,385.4822,386.4534,a,1,0.3159,,0.3159,1,386.4534,386.9535,,,,,,306,MAS,NOWORD,AGR,150,adiol,,el,,386.9536,386.9537,-0.564380265,-0.169258568,0,0,0,,0,206,206,305,1,avión,,,,,
,,,,,,6017320a527c3897e958d393,676192165fb32c2e1fb7aee6,67d0c8ff326b88ac50e12780,2025-03-11_20h40.59.508,Tarea de decisión léxica,2024.2.5,Win32,142.8571429,,,,,,,,,,,,,,,,,,,,,,,386.9545,387.9272,l,1,0.3189,,0.3189,1,387.9273,388.426,,,,,,271,FEM,WORD,DIS,150,señal,,el,,388.426,388.4261,-0.564380265,-0.169258568,0,0,0,,0,207,207,270,1,refal,,,,,
,,,,,,6017320a527c3897e958d393,676192165fb32c2e1fb7aee6,67d0c8ff326b88ac50e12780,2025-03-11_20h40.59.508,Tarea de decisión léxica,2024.2.5,Win32,142.8571429,,,,,,,,,,,,,,,,,,,,,,,388.4268,389.558,a,1,0.4717,,0.4717,1,389.5582,390.0582,,,,,,340,MAS,NOWORD,DIS,150,plajo,,la,,390.059,390.0595,-0.564380265,-0.169258568,0,0,0,,0,208,208,339,1,brazo,,,,,
,,,,,,6017320a527c3897e958d393,676192165fb32c2e1fb7aee6,67d0c8ff326b88ac50e12780,2025-03-11_20h40.59.508,Tarea de decisión léxica,2024.2.5,Win32,142.8571429,,,,,,,,,,,,,,,,,,,,,,,390.0599,391.2041,a,1,0.4905,,0.4905,1,391.2042,391.7042,,,,,,442,FEM,NOWORD,AGR,150,telza,,la,,391.7043,391.7044,-0.564380265,-0.169258568,0,0,0,,0,209,209,441,1,selva,,,,,
,,,,,,6017320a527c3897e958d393,676192165fb32c2e1fb7aee6,67d0c8ff326b88ac50e12780,2025-03-11_20h40.59.508,Tarea de decisión léxica,2024.2.5,Win32,142.8571429,,,,,,,,,,,,,,,,,,,,,,,391.7051,392.7461,l,1,0.3844,,0.3844,1,392.7462,393.2463,,,,,,161,MAS,WORD,DIS,150,coro,,la,,393.2464,393.2464,-0.564380265,-0.169258568,0,0,0,,0,210,210,160,1,bopo,,,,,
,,,,,,6017320a527c3897e958d393,676192165fb32c2e1fb7aee6,67d0c8ff326b88ac50e12780,2025-03-11_20h40.59.508,Tarea de decisión léxica,2024.2.5,Win32,142.8571429,,,,,,,,,,,,,,,,,,,,,,,393.2471,394.1908,a,1,0.2893,,0.2893,1,394.1909,394.6907,,,,,,298,MAS,NOWORD,AGR,150,brubo,,el,,394.6907,394.6908,-0.564380265,-0.169258568,0,0,0,,0,211,211,297,1,grupo,,,,,
,,,,,,6017320a527c3897e958d393,676192165fb32c2e1fb7aee6,67d0c8ff326b88ac50e12780,2025-03-11_20h40.59.508,Tarea de decisión léxica,2024.2.5,Win32,142.8571429,,,,,,,,,,,,,,,,,,,,,,,394.6915,395.7672,l,0,0.4195,,0.4195,0,395.7678,396.2672,,,,,,222,FEM,NOWORD,AGR,150,puca,,la,,396.2673,396.2673,-0.564380265,-0.169258568,0,0,0,,0,212,212,221,1,mula,,,,,
,,,,,,6017320a527c3897e958d393,676192165fb32c2e1fb7aee6,67d0c8ff326b88ac50e12780,2025-03-11_20h40.59.508,Tarea de decisión léxica,2024.2.5,Win32,142.8571429,,,,,,,,,,,,,,,,,,,,,,,396.2681,397.2603,l,1,0.3336,,0.3336,1,397.2608,397.7614,,,,,,443,MAS,WORD,DIS,150,salón,,la,,397.7621,397.7625,-0.564380265,-0.169258568,0,0,0,,0,213,213,442,1,taron,,,,,
,,,,,,6017320a527c3897e958d393,676192165fb32c2e1fb7aee6,67d0c8ff326b88ac50e12780,2025-03-11_20h40.59.508,Tarea de decisión léxica,2024.2.5,Win32,142.8571429,,,,,,,,,,,,,,,,,,,,,,,397.763,398.7815,a,1,0.3614,,0.3614,1,398.7816,399.2814,,,,,,246,FEM,NOWORD,AGR,150,pafle,,la,,399.2815,399.2816,-0.564380265,-0.169258568,0,0,0,,0,214,214,245,1,madre,,,,,
,,,,,,6017320a527c3897e958d393,676192165fb32c2e1fb7aee6,67d0c8ff326b88ac50e12780,2025-03-11_20h40.59.508,Tarea de decisión léxica,2024.2.5,Win32,142.8571429,,,,,,,,,,,,,,,,,,,,,,,399.2824,400.2816,l,1,0.345,,0.345,1,400.2816,400.7816,,,,,,165,FEM,WORD,AGR,150,vela,,la,,400.7816,400.7817,-0.564380265,-0.169258568,0,0,0,,0,215,215,164,1,dera,,,,,
,,,,,,6017320a527c3897e958d393,676192165fb32c2e1fb7aee6,67d0c8ff326b88ac50e12780,2025-03-11_20h40.59.508,Tarea de decisión léxica,2024.2.5,Win32,142.8571429,,,,,,,,,,,,,,,,,,,,,,,400.7827,401.8027,l,1,0.3657,,0.3657,1,401.8028,402.3028,,,,,,11,MAS,WORD,DIS,150,lado,,la,,402.3028,402.3029,-0.564380265,-0.169258568,0,0,0,,0,216,216,10,1,bapo,,,,,
,,,,,,6017320a527c3897e958d393,676192165fb32c2e1fb7aee6,67d0c8ff326b88ac50e12780,2025-03-11_20h40.59.508,Tarea de decisión léxica,2024.2.5,Win32,142.8571429,,,,,,,,,,,,,,,,,,,,,,,402.3036,403.3308,a,1,0.374,,0.374,1,403.3309,403.8307,,,,,,98,MAS,NOWORD,AGR,150,fopo,,el,,403.8307,403.8308,-0.564380265,-0.169258568,0,0,0,,0,217,217,97,1,mono,,,,,
,,,,,,6017320a527c3897e958d393,676192165fb32c2e1fb7aee6,67d0c8ff326b88ac50e12780,2025-03-11_20h40.59.508,Tarea de decisión léxica,2024.2.5,Win32,142.8571429,,,,,,,,,,,,,,,,,,,,,,,403.8316,405.0046,a,1,0.5154,,0.5154,1,405.0047,405.5044,,,,,,234,FEM,NOWORD,AGR,150,fasa,,la,,405.5053,405.5058,-0.564380265,-0.169258568,0,0,0,,0,218,218,233,1,lana,,,,,
,,,,,,6017320a527c3897e958d393,676192165fb32c2e1fb7aee6,67d0c8ff326b88ac50e12780,2025-03-11_20h40.59.508,Tarea de decisión léxica,2024.2.5,Win32,142.8571429,,,,,,,,,,,,,,,,,,,,,,,405.5062,406.4491,l,1,0.2866,,0.2866,1,406.4492,406.9491,,,,,,449,FEM,WORD,AGR,150,pluma,,la,,406.9492,406.9492,-0.564380265,-0.169258568,0,0,0,,0,219,219,448,1,crusa,,,,,
,,,,,,6017320a527c3897e958d393,676192165fb32c2e1fb7aee6,67d0c8ff326b88ac50e12780,2025-03-11_20h40.59.508,Tarea de decisión léxica,2024.2.5,Win32,142.8571429,,,,,,,,,,,,,,,,,,,,,,,406.9499,407.894,l,1,0.2872,,0.2872,1,407.8941,408.394,,,,,,189,MAS,WORD,AGR,150,puño,,el,,408.3941,408.3941,-0.564380265,-0.169258568,0,0,0,,0,220,220,188,1,muvo,,,,,
,,,,,,6017320a527c3897e958d393,676192165fb32c2e1fb7aee6,67d0c8ff326b88ac50e12780,2025-03-11_20h40.59.508,Tarea de decisión léxica,2024.2.5,Win32,142.8571429,,,,,,,,,,,,,,,,,,,,,,,408.3949,409.3731,l,1,0.3244,,0.3244,1,409.3731,409.8732,,,,,,223,FEM,WORD,DIS,150,cera,,el,,409.8733,409.8734,-0.564380265,-0.169258568,0,0,0,,0,221,221,222,1,cira,,,,,
,,,,,,6017320a527c3897e958d393,676192165fb32c2e1fb7aee6,67d0c8ff326b88ac50e12780,2025-03-11_20h40.59.508,Tarea de decisión léxica,2024.2.5,Win32,142.8571429,,,,,,,,,,,,,,,,,,,,,,,409.8742,410.8177,l,1,0.285,,0.285,1,410.8178,411.3178,,,,,,303,MAS,WORD,AGR,150,barco,,el,,411.3179,411.318,-0.564380265,-0.169258568,0,0,0,,0,222,222,302,1,lanco,,,,,
,,,,,,6017320a527c3897e958d393,676192165fb32c2e1fb7aee6,67d0c8ff326b88ac50e12780,2025-03-11_20h40.59.508,Tarea de decisión léxica,2024.2.5,Win32,142.8571429,,,,,,,,,,,,,,,,,,,,,,,411.3188,412.4015,a,1,0.4244,,0.4244,1,412.4016,412.9013,,,,,,230,MAS,NOWORD,AGR,150,ador,,el,,412.9023,412.903,-0.564380265,-0.169258568,0,0,0,,0,223,223,229,1,amor,,,,,
,,,,,,6017320a527c3897e958d393,676192165fb32c2e1fb7aee6,67d0c8ff326b88ac50e12780,2025-03-11_20h40.59.508,Tarea de decisión léxica,2024.2.5,Win32,142.8571429,,,,,,,,,,,,,,,,,,,,,,,412.9034,414.0612,a,1,0.5004,,0.5004,1,414.0612,414.5613,,,,,,330,MAS,NOWORD,AGR,150,nueno,,el,,414.5614,414.5615,-0.564380265,-0.169258568,0,0,0,,0,224,224,329,1,hueso,,,,,
,,,,,,6017320a527c3897e958d393,676192165fb32c2e1fb7aee6,67d0c8ff326b88ac50e12780,2025-03-11_20h40.59.508,Tarea de decisión léxica,2024.2.5,Win32,142.8571429,,,,,,,,,,,,,,,,,,,,,,,414.5623,415.7072,l,1,0.4868,,0.4868,1,415.7074,416.2074,,,,,,61,FEM,WORD,AGR,150,obra,,la,,416.2075,416.2076,-0.564380265,-0.169258568,0,0,0,,0,225,225,60,1,efla,,,,,
,,,,,,6017320a527c3897e958d393,676192165fb32c2e1fb7aee6,67d0c8ff326b88ac50e12780,2025-03-11_20h40.59.508,Tarea de decisión léxica,2024.2.5,Win32,142.8571429,,,,,,,,,,,,,,,,,,,,,,,416.2084,417.1309,l,1,0.2689,,0.2689,1,417.131,417.6311,,,,,,427,FEM,WORD,DIS,150,oreja,,el,,417.6312,417.6312,-0.564380265,-0.169258568,0,0,0,,0,226,226,426,1,oseva,,,,,
,,,,,,6017320a527c3897e958d393,676192165fb32c2e1fb7aee6,67d0c8ff326b88ac50e12780,2025-03-11_20h40.59.508,Tarea de decisión léxica,2024.2.5,Win32,142.8571429,,,,,,,,,,,,,,,,,,,,,,,417.632,418.548,l,1,0.2578,,0.2578,1,418.548,419.0482,,,,,,21,MAS,WORD,DIS,150,plan,,la,,419.049,419.0496,-0.564380265,-0.169258568,0,0,0,,0,227,227,20,1,blan,,,,,
,,,,,,6017320a527c3897e958d393,676192165fb32c2e1fb7aee6,67d0c8ff326b88ac50e12780,2025-03-11_20h40.59.508,Tarea de decisión léxica,2024.2.5,Win32,142.8571429,,,,,,,,,,,,,,,,,,,,,,,419.0501,420.2704,a,1,0.5628,,0.5628,1,420.2705,420.7705,,,,,,292,FEM,NOWORD,DIS,150,mesta,,el,,420.7705,420.7706,-0.564380265,-0.169258568,0,0,0,,0,228,228,291,1,pista,,,,,
,,,,,,6017320a527c3897e958d393,676192165fb32c2e1fb7aee6,67d0c8ff326b88ac50e12780,2025-03-11_20h40.59.508,Tarea de decisión léxica,2024.2.5,Win32,142.8571429,,,,,,,,,,,,,,,,,,,,,,,420.7713,421.7844,l,1,0.3588,,0.3588,1,421.7845,422.2845,,,,,,53,FEM,WORD,AGR,150,boda,,la,,422.2846,422.2847,-0.564380265,-0.169258568,0,0,0,,0,229,229,52,1,rora,,,,,
,,,,,,6017320a527c3897e958d393,676192165fb32c2e1fb7aee6,67d0c8ff326b88ac50e12780,2025-03-11_20h40.59.508,Tarea de decisión léxica,2024.2.5,Win32,142.8571429,,,,,,,,,,,,,,,,,,,,,,,422.2853,423.2082,l,1,0.2659,,0.2659,1,423.2083,423.7082,,,,,,411,MAS,WORD,AGR,150,pollo,,el,,423.7083,423.7085,-0.564380265,-0.169258568,0,0,0,,0,230,230,410,1,mobro,,,,,
,,,,,,6017320a527c3897e958d393,676192165fb32c2e1fb7aee6,67d0c8ff326b88ac50e12780,2025-03-11_20h40.59.508,Tarea de decisión léxica,2024.2.5,Win32,142.8571429,,,,,,,,,,,,,,,,,,,,,,,423.7092,424.6392,l,1,0.2718,,0.2718,1,424.6394,425.1393,,,,,,367,MAS,WORD,AGR,150,reloj,,el,,425.1394,425.1395,-0.564380265,-0.169258568,0,0,0,,0,231,231,366,1,rerob,,,,,
,,,,,,6017320a527c3897e958d393,676192165fb32c2e1fb7aee6,67d0c8ff326b88ac50e12780,2025-03-11_20h40.59.508,Tarea de decisión léxica,2024.2.5,Win32,142.8571429,,,,,,,,,,,,,,,,,,,,,,,425.1405,426.0907,l,1,0.2968,,0.2968,1,426.0908,426.5905,,,,,,275,MAS,WORD,AGR,150,punto,,el,,426.5915,426.5919,-0.564380265,-0.169258568,0,0,0,,0,232,232,274,1,musto,,,,,
,,,,,,6017320a527c3897e958d393,676192165fb32c2e1fb7aee6,67d0c8ff326b88ac50e12780,2025-03-11_20h40.59.508,Tarea de decisión léxica,2024.2.5,Win32,142.8571429,,,,,,,,,,,,,,,,,,,,,,,426.5925,427.6465,a,1,0.3966,,0.3966,1,427.6466,428.1465,,,,,,276,MAS,NOWORD,DIS,150,musto,,la,,428.1466,428.1466,-0.564380265,-0.169258568,0,0,0,,0,233,233,275,1,punto,,,,,
,,,,,,6017320a527c3897e958d393,676192165fb32c2e1fb7aee6,67d0c8ff326b88ac50e12780,2025-03-11_20h40.59.508,Tarea de decisión léxica,2024.2.5,Win32,142.8571429,,,,,,,,,,,,,,,,,,,,,,,428.1473,429.0424,l,1,0.2401,,0.2401,1,429.0424,429.5425,,,,,,87,MAS,WORD,DIS,150,vaso,,la,,429.5426,429.5427,-0.564380265,-0.169258568,0,0,0,,0,234,234,86,1,damo,,,,,
,,,,,,6017320a527c3897e958d393,676192165fb32c2e1fb7aee6,67d0c8ff326b88ac50e12780,2025-03-11_20h40.59.508,Tarea de decisión léxica,2024.2.5,Win32,142.8571429,,,,,,,,,,,,,,,,,,,,,,,429.5435,430.5285,a,1,0.3306,,0.3306,1,430.5286,431.0287,,,,,,104,FEM,NOWORD,DIS,150,rova,,el,,431.0288,431.0288,-0.564380265,-0.169258568,0,0,0,,0,235,235,103,1,ruta,,,,,
,,,,,,6017320a527c3897e958d393,676192165fb32c2e1fb7aee6,67d0c8ff326b88ac50e12780,2025-03-11_20h40.59.508,Tarea de decisión léxica,2024.2.5,Win32,142.8571429,,,,,,,,,,,,,,,,,,,,,,,431.0296,432.0428,l,0,0.3548,,0.3548,0,432.0434,432.5429,,,,,,206,FEM,NOWORD,AGR,150,bara,,la,,432.543,432.5431,-0.564380265,-0.169258568,0,0,0,,0,236,236,205,1,rana,,,,,
,,,,,,6017320a527c3897e958d393,676192165fb32c2e1fb7aee6,67d0c8ff326b88ac50e12780,2025-03-11_20h40.59.508,Tarea de decisión léxica,2024.2.5,Win32,142.8571429,,,,,,,,,,,,,,,,,,,,,,,432.5438,433.6196,a,1,0.417,,0.417,1,433.6203,434.1197,,,,,,68,FEM,NOWORD,DIS,150,gesa,,el,,434.1206,434.1212,-0.564380265,-0.169258568,0,0,0,,0,237,237,67,1,nena,,,,,
,,,,,,6017320a527c3897e958d393,676192165fb32c2e1fb7aee6,67d0c8ff326b88ac50e12780,2025-03-11_20h40.59.508,Tarea de decisión léxica,2024.2.5,Win32,142.8571429,,,,,,,,,,,,,,,,,,,,,,,434.1217,435.1404,l,1,0.3655,,0.3655,1,435.1404,435.6404,,,,,,447,MAS,WORD,DIS,150,bolso,,la,,435.6404,435.6406,-0.564380265,-0.169258568,0,0,0,,0,238,238,446,1,buaso,,,,,
,,,,,,6017320a527c3897e958d393,676192165fb32c2e1fb7aee6,67d0c8ff326b88ac50e12780,2025-03-11_20h40.59.508,Tarea de decisión léxica,2024.2.5,Win32,142.8571429,,,,,,,,,,,,,,,,,,,,,,,435.6412,436.835,l,1,0.535,,0.535,1,436.8351,437.3352,,,,,,225,MAS,WORD,AGR,150,lodo,,el,,437.3352,437.3353,-0.564380265,-0.169258568,0,0,0,,0,239,239,224,1,boco,,,,,
,,,,,,6017320a527c3897e958d393,676192165fb32c2e1fb7aee6,67d0c8ff326b88ac50e12780,2025-03-11_20h40.59.508,Tarea de decisión léxica,2024.2.5,Win32,142.8571429,,,,,,,,,,,,,,,,,,,,,,,437.336,438.4394,l,1,0.447,,0.447,1,438.4394,438.9395,,,,,,151,MAS,WORD,DIS,150,tomo,,la,,438.9396,438.9397,-0.564380265,-0.169258568,0,0,0,,0,240,240,150,1,sogo,,,,,
,,,,,,6017320a527c3897e958d393,676192165fb32c2e1fb7aee6,67d0c8ff326b88ac50e12780,2025-03-11_20h40.59.508,Tarea de decisión léxica,2024.2.5,Win32,142.8571429,,,,,,,,,,,,,,,,,,,,,,,438.9405,439.884,l,1,0.2888,,0.2888,1,439.8841,440.3839,,,,,,231,FEM,WORD,AGR,150,bota,,la,,440.384,440.3841,-0.564380265,-0.169258568,0,0,0,,0,241,241,230,1,heta,,,,,
,,,,,,6017320a527c3897e958d393,676192165fb32c2e1fb7aee6,67d0c8ff326b88ac50e12780,2025-03-11_20h40.59.508,Tarea de decisión léxica,2024.2.5,Win32,142.8571429,,,,,,,,,,,,,,,,,,,,,,,440.3848,441.405,a,1,0.3611,,0.3611,1,441.4051,441.905,,,,,,190,MAS,NOWORD,AGR,150,muvo,,el,,441.9058,441.9063,-0.564380265,-0.169258568,0,0,0,,0,242,242,189,1,puño,,,,,
,,,,,,6017320a527c3897e958d393,676192165fb32c2e1fb7aee6,67d0c8ff326b88ac50e12780,2025-03-11_20h40.59.508,Tarea de decisión léxica,2024.2.5,Win32,142.8571429,,,,,,,,,,,,,,,,,,,,,,,441.9066,442.829,l,0,0.2661,,0.2661,0,442.8294,443.3289,,,,,,228,MAS,NOWORD,DIS,150,laro,,la,,443.329,443.3292,-0.564380265,-0.169258568,0,0,0,,0,243,243,227,1,faro,,,,,
,,,,,,6017320a527c3897e958d393,676192165fb32c2e1fb7aee6,67d0c8ff326b88ac50e12780,2025-03-11_20h40.59.508,Tarea de decisión léxica,2024.2.5,Win32,142.8571429,,,,,,,,,,,,,,,,,,,,,,,443.3299,444.2803,l,1,0.2936,,0.2936,1,444.2809,444.7805,,,,,,283,MAS,WORD,DIS,150,sueño,,la,,444.7806,444.7807,-0.564380265,-0.169258568,0,0,0,,0,244,244,282,1,tuevo,,,,,
,,,,,,6017320a527c3897e958d393,676192165fb32c2e1fb7aee6,67d0c8ff326b88ac50e12780,2025-03-11_20h40.59.508,Tarea de decisión léxica,2024.2.5,Win32,142.8571429,,,,,,,,,,,,,,,,,,,,,,,444.7813,445.7806,l,1,0.3414,,0.3414,1,445.7806,446.2805,,,,,,399,MAS,WORD,DIS,150,techo,,la,,446.2806,446.2808,-0.564380265,-0.169258568,0,0,0,,0,245,245,398,1,serro,,,,,
,,,,,,6017320a527c3897e958d393,676192165fb32c2e1fb7aee6,67d0c8ff326b88ac50e12780,2025-03-11_20h40.59.508,Tarea de decisión léxica,2024.2.5,Win32,142.8571429,,,,,,,,,,,,,,,,,,,,,,,446.2816,447.2946,l,1,0.3566,,0.3566,1,447.2947,447.7947,,,,,,477,MAS,WORD,DIS,150,botón,,la,,447.7948,447.7949,-0.564380265,-0.169258568,0,0,0,,0,246,246,476,1,hocon,,,,,
,,,,,,6017320a527c3897e958d393,676192165fb32c2e1fb7aee6,67d0c8ff326b88ac50e12780,2025-03-11_20h40.59.508,Tarea de decisión léxica,2024.2.5,Win32,142.8571429,,,,,,,,,,,,,,,,,,,,,,,447.7957,448.7323,a,1,0.281,,0.281,1,448.7325,449.2323,,,,,,212,FEM,NOWORD,DIS,150,joad,,el,,449.2332,449.2337,-0.564380265,-0.169258568,0,0,0,,0,247,247,211,1,joya,,,,,
,,,,,,6017320a527c3897e958d393,676192165fb32c2e1fb7aee6,67d0c8ff326b88ac50e12780,2025-03-11_20h40.59.508,Tarea de decisión léxica,2024.2.5,Win32,142.8571429,,,,,,,,,,,,,,,,,,,,,,,449.2342,450.2811,l,1,0.3914,,0.3914,1,450.2811,450.7814,,,,,,465,FEM,WORD,DIS,150,aguja,,el,,450.7814,450.7815,-0.564380265,-0.169258568,0,0,0,,0,248,248,464,1,asuba,,,,,
,,,,,,6017320a527c3897e958d393,676192165fb32c2e1fb7aee6,67d0c8ff326b88ac50e12780,2025-03-11_20h40.59.508,Tarea de decisión léxica,2024.2.5,Win32,142.8571429,,,,,,,,,,,,,,,,,,,,,,,450.7827,451.7676,l,1,0.3269,,0.3269,1,451.7677,452.2677,,,,,,331,MAS,WORD,DIS,150,éxito,,la,,452.2678,452.2679,-0.564380265,-0.169258568,0,0,0,,0,249,249,330,1,erato,,,,,
,,,,,,6017320a527c3897e958d393,676192165fb32c2e1fb7aee6,67d0c8ff326b88ac50e12780,2025-03-11_20h40.59.508,Tarea de decisión léxica,2024.2.5,Win32,142.8571429,,,,,,,,,,,,,,,,,,,,,,,452.2688,453.1774,l,1,0.2517,,0.2517,1,453.1776,453.6774,,,,,,299,FEM,WORD,DIS,150,bolsa,,el,,453.6775,453.6776,-0.564380265,-0.169258568,0,0,0,,0,250,250,298,1,bosga,,,,,
,,,,,,6017320a527c3897e958d393,676192165fb32c2e1fb7aee6,67d0c8ff326b88ac50e12780,2025-03-11_20h40.59.508,Tarea de decisión léxica,2024.2.5,Win32,142.8571429,,,,,,,,,,,,,,,,,,,,,,,453.6784,454.6636,l,1,0.3309,,0.3309,1,454.6637,455.1637,,,,,,403,FEM,WORD,AGR,150,prima,,la,,455.1646,455.1652,-0.564380265,-0.169258568,0,0,0,,0,251,251,402,1,grisa,,,,,
,,,,,,6017320a527c3897e958d393,676192165fb32c2e1fb7aee6,67d0c8ff326b88ac50e12780,2025-03-11_20h40.59.508,Tarea de decisión léxica,2024.2.5,Win32,142.8571429,,,,,,,,,,,,,,,,,,,,,,,455.1656,456.0874,l,1,0.2602,,0.2602,1,456.0877,456.5886,,,,,,369,MAS,WORD,DIS,150,ruido,,la,,456.5886,456.5887,-0.564380265,-0.169258568,0,0,0,,0,252,252,368,1,rioco,,,,,
,,,,,,6017320a527c3897e958d393,676192165fb32c2e1fb7aee6,67d0c8ff326b88ac50e12780,2025-03-11_20h40.59.508,Tarea de decisión léxica,2024.2.5,Win32,142.8571429,,,,,,,,,,,,,,,,,,,,,,,456.5896,457.5252,l,1,0.2781,,0.2781,1,457.5253,458.0252,,,,,,103,FEM,WORD,DIS,150,ruta,,el,,458.0254,458.0255,-0.564380265,-0.169258568,0,0,0,,0,253,253,102,1,rova,,,,,
,,,,,,6017320a527c3897e958d393,676192165fb32c2e1fb7aee6,67d0c8ff326b88ac50e12780,2025-03-11_20h40.59.508,Tarea de decisión léxica,2024.2.5,Win32,142.8571429,,,,,,,,,,,,,,,,,,,,,,,458.0262,458.9698,l,1,0.2861,,0.2861,1,458.9699,459.4698,,,,,,317,FEM,WORD,DIS,150,playa,,el,,459.4698,459.47,-0.564380265,-0.169258568,0,0,0,,0,254,254,316,1,plaad,,,,,
,,,,,,6017320a527c3897e958d393,676192165fb32c2e1fb7aee6,67d0c8ff326b88ac50e12780,2025-03-11_20h40.59.508,Tarea de decisión léxica,2024.2.5,Win32,142.8571429,,,,,,,,,,,,,,,,,,,,,,,459.4708,460.6158,l,0,0.4802,,0.4802,0,460.6164,461.1161,,,,,,366,FEM,NOWORD,AGR,150,gulla,,la,,461.1162,461.1162,-0.564380265,-0.169258568,0,0,0,,0,255,255,365,1,ducha,,,,,
,,,,,,6017320a527c3897e958d393,676192165fb32c2e1fb7aee6,67d0c8ff326b88ac50e12780,2025-03-11_20h40.59.508,Tarea de decisión léxica,2024.2.5,Win32,142.8571429,,,,,,,,,,,,,,,,,,,,,,,461.117,462.0608,l,1,0.2895,,0.2895,1,462.0614,462.5609,,,,,,67,FEM,WORD,AGR,150,nena,,la,,462.5617,462.5622,-0.564380265,-0.169258568,0,0,0,,0,256,256,66,1,gesa,,,,,
,,,,,,6017320a527c3897e958d393,676192165fb32c2e1fb7aee6,67d0c8ff326b88ac50e12780,2025-03-11_20h40.59.508,Tarea de decisión léxica,2024.2.5,Win32,142.8571429,,,,,,,,,,,,,,,,,,,,,,,462.5626,463.4565,l,1,0.2407,,0.2407,1,463.4566,463.9568,,,,,,345,FEM,WORD,DIS,150,arena,,el,,463.9569,463.957,-0.564380265,-0.169258568,0,0,0,,0,257,257,344,1,anera,,,,,
,,,,,,6017320a527c3897e958d393,676192165fb32c2e1fb7aee6,67d0c8ff326b88ac50e12780,2025-03-11_20h40.59.508,Tarea de decisión léxica,2024.2.5,Win32,142.8571429,,,,,,,,,,,,,,,,,,,,,,,463.9576,465.0331,l,1,0.4204,,0.4204,1,465.0331,465.5332,,,,,,285,MAS,WORD,AGR,150,error,,el,,465.5332,465.5334,-0.564380265,-0.169258568,0,0,0,,0,258,258,284,1,echor,,,,,
,,,,,,6017320a527c3897e958d393,676192165fb32c2e1fb7aee6,67d0c8ff326b88ac50e12780,2025-03-11_20h40.59.508,Tarea de decisión léxica,2024.2.5,Win32,142.8571429,,,,,,,,,,,,,,,,,,,,,,,465.5342,466.5332,a,1,0.343,,0.343,1,466.5332,467.0332,,,,,,198,MAS,NOWORD,AGR,150,dade,,el,,467.0332,467.0333,-0.564380265,-0.169258568,0,0,0,,0,259,259,197,1,bate,,,,,
,,,,,,6017320a527c3897e958d393,676192165fb32c2e1fb7aee6,67d0c8ff326b88ac50e12780,2025-03-11_20h40.59.508,Tarea de decisión léxica,2024.2.5,Win32,142.8571429,,,,,,,,,,,,,,,,,,,,,,,467.0342,467.9709,l,1,0.279,,0.279,1,467.971,468.471,,,,,,343,FEM,WORD,AGR,150,plata,,la,,468.4711,468.4712,-0.564380265,-0.169258568,0,0,0,,0,260,260,342,1,trada,,,,,
,,,,,,6017320a527c3897e958d393,676192165fb32c2e1fb7aee6,67d0c8ff326b88ac50e12780,2025-03-11_20h40.59.508,Tarea de decisión léxica,2024.2.5,Win32,142.8571429,,,,,,,,,,,,,,,,,,,,,,,468.4719,469.506,a,1,0.3761,,0.3761,1,469.506,470.0059,,,,,,284,MAS,NOWORD,DIS,150,tuevo,,la,,470.0069,470.0076,-0.564380265,-0.169258568,0,0,0,,0,261,261,283,1,sueño,,,,,
,,,,,,6017320a527c3897e958d393,676192165fb32c2e1fb7aee6,67d0c8ff326b88ac50e12780,2025-03-11_20h40.59.508,Tarea de decisión léxica,2024.2.5,Win32,142.8571429,,,,,,,,,,,,,,,,,,,,,,,470.0083,470.9642,l,1,0.3008,,0.3008,1,470.9643,471.4646,,,,,,323,FEM,WORD,AGR,150,cinta,,la,,471.4646,471.4647,-0.564380265,-0.169258568,0,0,0,,0,262,262,322,1,certa,,,,,
