counterbalancing_condition,consent_prescreening.block_1/declare_consent,consent_prescreening.block_1/age_years,consent_prescreening.block_1/gender,consent_prescreening.block_1/language_disorder,consent_prescreening.block_1/first_language,PROLIFIC_PID,STUDY_ID,SESSION_ID,date,expName,psychopyVersion,OS,frameRate,check_prescreening_answers.started,check_prescreening_answers.stopped,Instructions.started,Instructions.stopped,instr_done_keyboard.keys,instr_done_keyboard.rt,instr_done_keyboard.duration,instr_done_touch.x,instr_done_touch.y,instr_done_touch.leftButton,instr_done_touch.midButton,instr_done_touch.rightButton,instruction_pages.thisRepN,instruction_pages.thisTrialN,instruction_pages.thisN,instruction_pages.thisIndex,instruction_pages.ran,pageN,phase,instruct_text,has_image,instruct_image,presentTrial.started,presentTrial.stopped,response.keys,response.corr,rt,corr,feedback.started,feedback.stopped,practice_trials.thisRepN,practice_trials.thisTrialN,practice_trials.thisN,practice_trials.thisIndex,practice_trials.ran,TrialID,Gender,StimulusType,Condition,PrimeDuration,Prime,len,Flanker,corrAns,response.rt,response.duration,Break.started,Break.stopped,break_done_touch.x,break_done_touch.y,break_done_touch.leftButton,break_done_touch.midButton,break_done_touch.rightButton,break_done_keyboard.keys,experiment_trials.thisRepN,experiment_trials.thisTrialN,experiment_trials.thisN,experiment_trials.thisIndex,experiment_trials.ran,PairedWith,break_done_keyboard.rt,break_done_keyboard.duration,break_done_touch.clicked_name,End.started,End.stopped
0,"[""over_18"",""comfortable"",""read_info"",""consent_given""]",23,M,"[""none""]","[""spanish""]",6025d40ede4e061f3c7ca877,676192165fb32c2e1fb7aee6,67d094550121946b70d710e9,2025-03-11_14h14.04.847,Tarea de decisión léxica,2024.2.5,Win32,59.88023952,,,,,,,,,,,,,,,,,,,,,,,,,,,,,,,,,,,,,,,,,,,,,,,,,,,,,,,,,,,,,,,,,
,,,,,,6025d40ede4e061f3c7ca877,676192165fb32c2e1fb7aee6,67d094550121946b70d710e9,2025-03-11_14h14.04.847,Tarea de decisión léxica,2024.2.5,Win32,59.88023952,11.0193,11.0194,,,,,,,,,,,,,,,,,,,,,,,,,,,,,,,,,,,,,,,,,,,,,,,,,,,,,,,,,,,,,,,
,,,,,,6025d40ede4e061f3c7ca877,676192165fb32c2e1fb7aee6,67d094550121946b70d710e9,2025-03-11_14h14.04.847,Tarea de decisión léxica,2024.2.5,Win32,59.88023952,,,11.0318,11.767,space,0.7078,,0.044444444,-0.110185185,0,0,0,0,0,0,0,1,1,instructions,"INSTRUCCIONES
Va a realizar una prueba de decisión léxica. Desde el comienzo de la prueba mire siempre al centro de la pantalla. Se presentará una serie de cadenas de letras, una a la vez, en la pantalla. Su tarea consiste en determinar si cada cadena de letras constituye una palabra real en español o una no-palabra (una secuencia de letras que no constituye una palabra real). 

Pulse la tecla ESPACIO para continuar.",0,keyboardresponseWN.png,,,,,,,,,,,,,,,,,,,,,,,,,,,,,,,,,,,,,,,,,,,
,,,,,,6025d40ede4e061f3c7ca877,676192165fb32c2e1fb7aee6,67d094550121946b70d710e9,2025-03-11_14h14.04.847,Tarea de decisión léxica,2024.2.5,Win32,59.88023952,,,11.7703,12,space,0.2189,,0.037037037,-0.106481481,0,0,0,0,1,1,1,1,2,instructions,"El procedimiento es el siguiente: Aparecerán dos barras verticales posicionadas en el centro de la pantalla, separadas por un pequeño espacio.Por favor, enfoque su atención en el espacio entre las barras. Esto preparará sus ojos para la siguiente cadena de letras, que aparecerá entre las dos barras durante un instante.

Pulse la tecla ESPACIO para continuar.",0,keyboardresponseNW.png,,,,,,,,,,,,,,,,,,,,,,,,,,,,,,,,,,,,,,,,,,,
,,,,,,6025d40ede4e061f3c7ca877,676192165fb32c2e1fb7aee6,67d094550121946b70d710e9,2025-03-11_14h14.04.847,Tarea de decisión léxica,2024.2.5,Win32,59.88023952,,,12.0026,12.2337,space,0.1857,,0.034259259,-0.106481481,0,0,0,0,2,2,2,1,3,instructions,"En el teclado de su dispositivo, pulse la tecla ""A"" si la cadena de letras es una palabra real en español (por ejemplo: ""mano"") y la tecla ""L"" si la cadena de letras es una no-palabra (por ejemplo: ""minu"").
Pulse la tecla ESPACIO para continuar.",1,keyboardresponseWN.png,,,,,,,,,,,,,,,,,,,,,,,,,,,,,,,,,,,,,,,,,,,
,,,,,,6025d40ede4e061f3c7ca877,676192165fb32c2e1fb7aee6,67d094550121946b70d710e9,2025-03-11_14h14.04.847,Tarea de decisión léxica,2024.2.5,Win32,59.88023952,,,12.2375,13.2,space,0.948,,0.034259259,-0.106481481,0,0,0,0,3,3,3,1,4,instructions,"Es muy importante que responda con la mayor rapidez y precisión posibles. Si no responde dentro de 2 segundos, aparecerá el mensaje ""Muy lento"" y el experimento pasará a la siguiente palabra. Inmediatamente después de su respuesta se indicará si fue correcta o no. Los primeros 15 intentos serán de práctica y habrá dos descansos durante la prueba.

Pulse la tecla ESPACIO  para iniciar la parte de práctica.",0,keyboardresponseWN.png,,,,,,,,,,,,,,,,,,,,,,,,,,,,,,,,,,,,,,,,,,,
,,,,,,6025d40ede4e061f3c7ca877,676192165fb32c2e1fb7aee6,67d094550121946b70d710e9,2025-03-11_14h14.04.847,Tarea de decisión léxica,2024.2.5,Win32,59.88023952,,,,,,,,,,,,,,,,,,,,,,,13.209,15.8504,,0,,-1,15.8509,16.3486,0,0,0,7,1,1008,MAS,WORD,DIS,150,frío,4,la,l,,,,,,,,,,,,,,,,,,,,,
,,,,,,6025d40ede4e061f3c7ca877,676192165fb32c2e1fb7aee6,67d094550121946b70d710e9,2025-03-11_14h14.04.847,Tarea de decisión léxica,2024.2.5,Win32,59.88023952,,,,,,,,,,,,,,,,,,,,,,,16.3541,17.7506,l,1,0.7258,1,17.7661,18.2504,0,1,1,0,1,1001,FEM,NOWORD,AGR,150,croz,4,la,a,0.7258,,,,,,,,,,,,,,,,,,,,
,,,,,,6025d40ede4e061f3c7ca877,676192165fb32c2e1fb7aee6,67d094550121946b70d710e9,2025-03-11_14h14.04.847,Tarea de decisión léxica,2024.2.5,Win32,59.88023952,,,,,,,,,,,,,,,,,,,,,,,18.2536,19.5503,a,1,0.6167,1,19.5507,20.0517,0,2,2,6,1,1007,MAS,WORD,DIS,150,masa,4,la,l,0.6167,,,,,,,,,,,,,,,,,,,,
,,,,,,6025d40ede4e061f3c7ca877,676192165fb32c2e1fb7aee6,67d094550121946b70d710e9,2025-03-11_14h14.04.847,Tarea de decisión léxica,2024.2.5,Win32,59.88023952,,,,,,,,,,,,,,,,,,,,,,,20.0537,21.1173,a,1,0.3796,1,21.1176,21.6172,0,3,3,9,1,1010,MAS,WORD,DIS,150,video,5,la,l,0.3796,,,,,,,,,,,,,,,,,,,,
,,,,,,6025d40ede4e061f3c7ca877,676192165fb32c2e1fb7aee6,67d094550121946b70d710e9,2025-03-11_14h14.04.847,Tarea de decisión léxica,2024.2.5,Win32,59.88023952,,,,,,,,,,,,,,,,,,,,,,,21.6207,22.7038,a,1,0.4137,1,22.7039,23.2013,0,4,4,8,1,1009,FEM,WORD,AGR,150,viejo,5,la,l,0.4137,,,,,,,,,,,,,,,,,,,,
,,,,,,6025d40ede4e061f3c7ca877,676192165fb32c2e1fb7aee6,67d094550121946b70d710e9,2025-03-11_14h14.04.847,Tarea de decisión léxica,2024.2.5,Win32,59.88023952,,,,,,,,,,,,,,,,,,,,,,,23.2036,24.2011,a,1,0.3125,1,24.2014,24.7006,0,5,5,5,1,1006,FEM,WORD,AGR,150,cara,4,la,l,0.3125,,,,,,,,,,,,,,,,,,,,
,,,,,,6025d40ede4e061f3c7ca877,676192165fb32c2e1fb7aee6,67d094550121946b70d710e9,2025-03-11_14h14.04.847,Tarea de decisión léxica,2024.2.5,Win32,59.88023952,,,,,,,,,,,,,,,,,,,,,,,24.7034,25.6238,a,0,0.2342,0,25.6253,26.1174,0,6,6,2,1,1003,FEM,NOWORD,DIS,150,muvor,5,el,a,0.2342,,,,,,,,,,,,,,,,,,,,
,,,,,,6025d40ede4e061f3c7ca877,676192165fb32c2e1fb7aee6,67d094550121946b70d710e9,2025-03-11_14h14.04.847,Tarea de decisión léxica,2024.2.5,Win32,59.88023952,,,,,,,,,,,,,,,,,,,,,,,26.1208,27.1677,a,0,0.3587,0,27.1679,27.6574,0,7,7,4,1,1005,MAS,NOWORD,DIS,150,nobad,5,la,a,0.3587,,,,,,,,,,,,,,,,,,,,
,,,,,,6025d40ede4e061f3c7ca877,676192165fb32c2e1fb7aee6,67d094550121946b70d710e9,2025-03-11_14h14.04.847,Tarea de decisión léxica,2024.2.5,Win32,59.88023952,,,,,,,,,,,,,,,,,,,,,,,27.6588,28.9242,l,1,0.5986,1,28.9251,29.4173,0,8,8,3,1,1004,FEM,NOWORD,AGR,150,bireo,5,la,a,0.5986,,,,,,,,,,,,,,,,,,,,
,,,,,,6025d40ede4e061f3c7ca877,676192165fb32c2e1fb7aee6,67d094550121946b70d710e9,2025-03-11_14h14.04.847,Tarea de decisión léxica,2024.2.5,Win32,59.88023952,,,,,,,,,,,,,,,,,,,,,,,29.4202,30.8008,l,1,0.7063,1,30.8012,31.3002,0,9,9,1,1,1002,FEM,NOWORD,DIS,150,mabo,4,el,a,0.7063,,,,,,,,,,,,,,,,,,,,
,,,,,,6025d40ede4e061f3c7ca877,676192165fb32c2e1fb7aee6,67d094550121946b70d710e9,2025-03-11_14h14.04.847,Tarea de decisión léxica,2024.2.5,Win32,59.88023952,,,33.8207,35.2735,space,1.4326,,-0.009259259,-0.396296296,0,0,0,,,,,,,,,,,35.2992,36.4667,l,1,0.5053,1,36.4669,36.9669,,,,,,468,MAS,NOWORD,AGR,150,peiso,,el,,0.5053,,36.9675,36.9727,-0.009259259,-0.396296296,0,0,0,,0,0,0,467,1,piano,,,,,
,,,,,,6025d40ede4e061f3c7ca877,676192165fb32c2e1fb7aee6,67d094550121946b70d710e9,2025-03-11_14h14.04.847,Tarea de decisión léxica,2024.2.5,Win32,59.88023952,,,,,,,,,,,,,,,,,,,,,,,36.9734,38.2833,l,1,0.6339,1,38.2835,38.7836,,,,,,154,MAS,NOWORD,DIS,150,tado,,la,,0.6339,,38.7838,38.7842,-0.009259259,-0.396296296,0,0,0,,0,1,1,153,1,pato,,,,,
,,,,,,6025d40ede4e061f3c7ca877,676192165fb32c2e1fb7aee6,67d094550121946b70d710e9,2025-03-11_14h14.04.847,Tarea de decisión léxica,2024.2.5,Win32,59.88023952,,,,,,,,,,,,,,,,,,,,,,,38.7864,40.0502,a,1,0.5903,1,40.0502,40.5503,,,,,,397,FEM,WORD,AGR,150,tribu,,la,,0.5903,,40.5526,40.5543,-0.009259259,-0.396296296,0,0,0,,0,2,2,396,1,trigi,,,,,
,,,,,,6025d40ede4e061f3c7ca877,676192165fb32c2e1fb7aee6,67d094550121946b70d710e9,2025-03-11_14h14.04.847,Tarea de decisión léxica,2024.2.5,Win32,59.88023952,,,,,,,,,,,,,,,,,,,,,,,40.5551,41.8,l,1,0.5683,1,41.8002,42.3002,,,,,,122,MAS,NOWORD,DIS,150,bomo,,la,,0.5683,,42.3002,42.3006,-0.009259259,-0.396296296,0,0,0,,0,3,3,121,1,hoyo,,,,,
,,,,,,6025d40ede4e061f3c7ca877,676192165fb32c2e1fb7aee6,67d094550121946b70d710e9,2025-03-11_14h14.04.847,Tarea de decisión léxica,2024.2.5,Win32,59.88023952,,,,,,,,,,,,,,,,,,,,,,,42.302,43.5499,l,1,0.5708,1,43.5499,44.0503,,,,,,166,FEM,NOWORD,DIS,150,dera,,el,,0.5708,,44.0505,44.0509,-0.009259259,-0.396296296,0,0,0,,0,4,4,165,1,vela,,,,,
,,,,,,6025d40ede4e061f3c7ca877,676192165fb32c2e1fb7aee6,67d094550121946b70d710e9,2025-03-11_14h14.04.847,Tarea de decisión léxica,2024.2.5,Win32,59.88023952,,,,,,,,,,,,,,,,,,,,,,,44.053,45.4501,a,0,0.7173,0,45.4513,45.9503,,,,,,338,MAS,NOWORD,DIS,150,nuejo,,la,,0.7173,,45.9504,45.9508,-0.009259259,-0.396296296,0,0,0,,0,5,5,337,1,huevo,,,,,
,,,,,,6025d40ede4e061f3c7ca877,676192165fb32c2e1fb7aee6,67d094550121946b70d710e9,2025-03-11_14h14.04.847,Tarea de decisión léxica,2024.2.5,Win32,59.88023952,,,,,,,,,,,,,,,,,,,,,,,45.953,47.3665,l,1,0.7417,1,47.3672,47.867,,,,,,86,MAS,NOWORD,DIS,150,babo,,la,,0.7417,,47.8672,47.8677,-0.009259259,-0.396296296,0,0,0,,0,6,6,85,1,lago,,,,,
,,,,,,6025d40ede4e061f3c7ca877,676192165fb32c2e1fb7aee6,67d094550121946b70d710e9,2025-03-11_14h14.04.847,Tarea de decisión léxica,2024.2.5,Win32,59.88023952,,,,,,,,,,,,,,,,,,,,,,,47.8706,49.1499,a,1,0.6044,1,49.15,49.6504,,,,,,307,MAS,WORD,DIS,150,hotel,,la,,0.6044,,49.6536,49.655,-0.009259259,-0.396296296,0,0,0,,0,7,7,306,1,holol,,,,,
,,,,,,6025d40ede4e061f3c7ca877,676192165fb32c2e1fb7aee6,67d094550121946b70d710e9,2025-03-11_14h14.04.847,Tarea de decisión léxica,2024.2.5,Win32,59.88023952,,,,,,,,,,,,,,,,,,,,,,,49.6557,50.8168,l,1,0.4907,1,50.8169,51.3169,,,,,,306,MAS,NOWORD,DIS,150,adiol,,la,,0.4907,,51.3173,51.3175,-0.009259259,-0.396296296,0,0,0,,0,8,8,305,1,avión,,,,,
,,,,,,6025d40ede4e061f3c7ca877,676192165fb32c2e1fb7aee6,67d094550121946b70d710e9,2025-03-11_14h14.04.847,Tarea de decisión léxica,2024.2.5,Win32,59.88023952,,,,,,,,,,,,,,,,,,,,,,,51.3191,52.5502,l,1,0.5538,1,52.5503,53.0501,,,,,,158,MAS,NOWORD,DIS,150,hico,,la,,0.5538,,53.0501,53.0502,-0.009259259,-0.396296296,0,0,0,,0,9,9,157,1,nido,,,,,
,,,,,,6025d40ede4e061f3c7ca877,676192165fb32c2e1fb7aee6,67d094550121946b70d710e9,2025-03-11_14h14.04.847,Tarea de decisión léxica,2024.2.5,Win32,59.88023952,,,,,,,,,,,,,,,,,,,,,,,53.0521,54.2168,a,0,0.4835,0,54.2178,54.717,,,,,,460,MAS,NOWORD,AGR,150,fraco,,el,,0.4835,,54.717,54.7175,-0.009259259,-0.396296296,0,0,0,,0,10,10,459,1,grado,,,,,
,,,,,,6025d40ede4e061f3c7ca877,676192165fb32c2e1fb7aee6,67d094550121946b70d710e9,2025-03-11_14h14.04.847,Tarea de decisión léxica,2024.2.5,Win32,59.88023952,,,,,,,,,,,,,,,,,,,,,,,54.7193,55.9836,l,1,0.5855,1,55.9849,56.4841,,,,,,12,MAS,NOWORD,AGR,150,bapo,,el,,0.5855,,56.4859,56.4875,-0.009259259,-0.396296296,0,0,0,,0,11,11,11,1,lado,,,,,
,,,,,,6025d40ede4e061f3c7ca877,676192165fb32c2e1fb7aee6,67d094550121946b70d710e9,2025-03-11_14h14.04.847,Tarea de decisión léxica,2024.2.5,Win32,59.88023952,,,,,,,,,,,,,,,,,,,,,,,56.4889,57.8006,l,1,0.6356,1,57.8009,58.3002,,,,,,188,MAS,NOWORD,AGR,150,suto,,el,,0.6356,,58.3003,58.3004,-0.009259259,-0.396296296,0,0,0,,0,12,12,187,1,mito,,,,,
,,,,,,6025d40ede4e061f3c7ca877,676192165fb32c2e1fb7aee6,67d094550121946b70d710e9,2025-03-11_14h14.04.847,Tarea de decisión léxica,2024.2.5,Win32,59.88023952,,,,,,,,,,,,,,,,,,,,,,,58.3015,59.4832,a,1,0.501,1,59.4833,59.9836,,,,,,315,FEM,WORD,DIS,150,reina,,el,,0.501,,59.9837,59.9838,-0.009259259,-0.396296296,0,0,0,,0,13,13,314,1,riosa,,,,,
,,,,,,6025d40ede4e061f3c7ca877,676192165fb32c2e1fb7aee6,67d094550121946b70d710e9,2025-03-11_14h14.04.847,Tarea de decisión léxica,2024.2.5,Win32,59.88023952,,,,,,,,,,,,,,,,,,,,,,,59.9856,61.0668,a,1,0.4054,1,61.0669,61.5667,,,,,,1,FEM,WORD,AGR,150,casa,,la,,0.4054,,61.5667,61.5669,-0.009259259,-0.396296296,0,0,0,,0,14,14,0,1,mada,,,,,
,,,,,,6025d40ede4e061f3c7ca877,676192165fb32c2e1fb7aee6,67d094550121946b70d710e9,2025-03-11_14h14.04.847,Tarea de decisión léxica,2024.2.5,Win32,59.88023952,,,,,,,,,,,,,,,,,,,,,,,61.568,62.8669,a,0,0.6218,0,62.8681,63.3669,,,,,,270,MAS,NOWORD,DIS,150,mello,,la,,0.6218,,63.367,63.3673,-0.009259259,-0.396296296,0,0,0,,0,15,15,269,1,perro,,,,,
,,,,,,6025d40ede4e061f3c7ca877,676192165fb32c2e1fb7aee6,67d094550121946b70d710e9,2025-03-11_14h14.04.847,Tarea de decisión léxica,2024.2.5,Win32,59.88023952,,,,,,,,,,,,,,,,,,,,,,,63.3691,64.6335,a,1,0.5899,1,64.6344,65.1336,,,,,,99,MAS,WORD,DIS,150,lobo,,la,,0.5899,,65.1359,65.1376,-0.009259259,-0.396296296,0,0,0,,0,16,16,98,1,soro,,,,,
,,,,,,6025d40ede4e061f3c7ca877,676192165fb32c2e1fb7aee6,67d094550121946b70d710e9,2025-03-11_14h14.04.847,Tarea de decisión léxica,2024.2.5,Win32,59.88023952,,,,,,,,,,,,,,,,,,,,,,,65.1386,66.317,a,1,0.5006,1,66.3171,66.8166,,,,,,117,MAS,WORD,AGR,150,palo,,el,,0.5006,,66.8166,66.8167,-0.009259259,-0.396296296,0,0,0,,0,17,17,116,1,movo,,,,,
,,,,,,6025d40ede4e061f3c7ca877,676192165fb32c2e1fb7aee6,67d094550121946b70d710e9,2025-03-11_14h14.04.847,Tarea de decisión léxica,2024.2.5,Win32,59.88023952,,,,,,,,,,,,,,,,,,,,,,,66.8174,67.9498,l,1,0.4531,1,67.9499,68.45,,,,,,308,MAS,NOWORD,AGR,150,holol,,el,,0.4531,,68.45,68.4501,-0.009259259,-0.396296296,0,0,0,,0,18,18,307,1,hotel,,,,,
,,,,,,6025d40ede4e061f3c7ca877,676192165fb32c2e1fb7aee6,67d094550121946b70d710e9,2025-03-11_14h14.04.847,Tarea de decisión léxica,2024.2.5,Win32,59.88023952,,,,,,,,,,,,,,,,,,,,,,,68.4509,69.5665,a,1,0.4381,1,69.5666,70.0665,,,,,,9,MAS,WORD,DIS,150,tipo,,la,,0.4381,,70.0666,70.0666,-0.009259259,-0.396296296,0,0,0,,0,19,19,8,1,sibo,,,,,
,,,,,,6025d40ede4e061f3c7ca877,676192165fb32c2e1fb7aee6,67d094550121946b70d710e9,2025-03-11_14h14.04.847,Tarea de decisión léxica,2024.2.5,Win32,59.88023952,,,,,,,,,,,,,,,,,,,,,,,70.0672,71.3832,l,1,0.6424,1,71.3833,71.8833,,,,,,380,MAS,NOWORD,AGR,150,tunso,,el,,0.6424,,71.8834,71.8835,-0.009259259,-0.396296296,0,0,0,,0,20,20,379,1,turno,,,,,
,,,,,,6025d40ede4e061f3c7ca877,676192165fb32c2e1fb7aee6,67d094550121946b70d710e9,2025-03-11_14h14.04.847,Tarea de decisión léxica,2024.2.5,Win32,59.88023952,,,,,,,,,,,,,,,,,,,,,,,71.8842,72.9332,a,1,0.3774,1,72.9332,73.4332,,,,,,151,MAS,WORD,AGR,150,tomo,,el,,0.3774,,73.4343,73.4361,-0.009259259,-0.396296296,0,0,0,,0,21,21,150,1,sogo,,,,,
,,,,,,6025d40ede4e061f3c7ca877,676192165fb32c2e1fb7aee6,67d094550121946b70d710e9,2025-03-11_14h14.04.847,Tarea de decisión léxica,2024.2.5,Win32,59.88023952,,,,,,,,,,,,,,,,,,,,,,,73.4371,74.4331,a,1,0.3238,1,74.4332,74.9333,,,,,,197,MAS,WORD,AGR,150,bate,,el,,0.3238,,74.9334,74.9335,-0.009259259,-0.396296296,0,0,0,,0,22,22,196,1,dade,,,,,
,,,,,,6025d40ede4e061f3c7ca877,676192165fb32c2e1fb7aee6,67d094550121946b70d710e9,2025-03-11_14h14.04.847,Tarea de decisión léxica,2024.2.5,Win32,59.88023952,,,,,,,,,,,,,,,,,,,,,,,74.9342,75.8665,a,1,0.2497,1,75.8666,76.3668,,,,,,463,FEM,WORD,DIS,150,cabra,,el,,0.2497,,76.3669,76.367,-0.009259259,-0.396296296,0,0,0,,0,23,23,462,1,matla,,,,,
,,,,,,6025d40ede4e061f3c7ca877,676192165fb32c2e1fb7aee6,67d094550121946b70d710e9,2025-03-11_14h14.04.847,Tarea de decisión léxica,2024.2.5,Win32,59.88023952,,,,,,,,,,,,,,,,,,,,,,,76.3679,77.4832,l,1,0.4333,1,77.4832,77.9832,,,,,,152,MAS,NOWORD,AGR,150,sogo,,el,,0.4333,,77.9833,77.9834,-0.009259259,-0.396296296,0,0,0,,0,24,24,151,1,tomo,,,,,
,,,,,,6025d40ede4e061f3c7ca877,676192165fb32c2e1fb7aee6,67d094550121946b70d710e9,2025-03-11_14h14.04.847,Tarea de decisión léxica,2024.2.5,Win32,59.88023952,,,,,,,,,,,,,,,,,,,,,,,77.9844,79.1498,l,1,0.4868,1,79.1499,79.6501,,,,,,32,FEM,NOWORD,AGR,150,bova,,la,,0.4868,,79.6501,79.6502,-0.009259259,-0.396296296,0,0,0,,0,25,25,31,1,ropa,,,,,
,,,,,,6025d40ede4e061f3c7ca877,676192165fb32c2e1fb7aee6,67d094550121946b70d710e9,2025-03-11_14h14.04.847,Tarea de decisión léxica,2024.2.5,Win32,59.88023952,,,,,,,,,,,,,,,,,,,,,,,79.6511,80.6332,a,1,0.3065,1,80.6332,81.1334,,,,,,349,MAS,WORD,AGR,150,color,,el,,0.3065,,81.1341,81.1346,-0.009259259,-0.396296296,0,0,0,,0,26,26,348,1,cosir,,,,,
,,,,,,6025d40ede4e061f3c7ca877,676192165fb32c2e1fb7aee6,67d094550121946b70d710e9,2025-03-11_14h14.04.847,Tarea de decisión léxica,2024.2.5,Win32,59.88023952,,,,,,,,,,,,,,,,,,,,,,,81.1358,82.3166,l,0,0.512,0,82.3171,82.8166,,,,,,83,FEM,WORD,AGR,150,bala,,la,,0.512,,82.8166,82.8166,-0.009259259,-0.396296296,0,0,0,,0,27,27,82,1,taga,,,,,
,,,,,,6025d40ede4e061f3c7ca877,676192165fb32c2e1fb7aee6,67d094550121946b70d710e9,2025-03-11_14h14.04.847,Tarea de decisión léxica,2024.2.5,Win32,59.88023952,,,,,,,,,,,,,,,,,,,,,,,82.8175,83.85,a,0,0.3509,0,83.8501,84.35,,,,,,272,FEM,NOWORD,AGR,150,refal,,la,,0.3509,,84.3501,84.3502,-0.009259259,-0.396296296,0,0,0,,0,28,28,271,1,señal,,,,,
,,,,,,6025d40ede4e061f3c7ca877,676192165fb32c2e1fb7aee6,67d094550121946b70d710e9,2025-03-11_14h14.04.847,Tarea de decisión léxica,2024.2.5,Win32,59.88023952,,,,,,,,,,,,,,,,,,,,,,,84.351,85.5167,l,0,0.4877,0,85.5169,86.017,,,,,,63,FEM,WORD,AGR,150,luna,,la,,0.4877,,86.0172,86.0172,-0.009259259,-0.396296296,0,0,0,,0,29,29,62,1,funa,,,,,
,,,,,,6025d40ede4e061f3c7ca877,676192165fb32c2e1fb7aee6,67d094550121946b70d710e9,2025-03-11_14h14.04.847,Tarea de decisión léxica,2024.2.5,Win32,59.88023952,,,,,,,,,,,,,,,,,,,,,,,86.0194,87.3501,l,1,0.6536,1,87.351,87.8498,,,,,,48,MAS,NOWORD,AGR,150,chub,,el,,0.6536,,87.8498,87.8499,-0.009259259,-0.396296296,0,0,0,,0,30,30,47,1,club,,,,,
,,,,,,6025d40ede4e061f3c7ca877,676192165fb32c2e1fb7aee6,67d094550121946b70d710e9,2025-03-11_14h14.04.847,Tarea de decisión léxica,2024.2.5,Win32,59.88023952,,,,,,,,,,,,,,,,,,,,,,,87.8506,89.2168,l,1,0.6915,1,89.2169,89.717,,,,,,162,MAS,NOWORD,DIS,150,bopo,,la,,0.6915,,89.72,89.7214,-0.009259259,-0.396296296,0,0,0,,0,31,31,161,1,coro,,,,,
,,,,,,6025d40ede4e061f3c7ca877,676192165fb32c2e1fb7aee6,67d094550121946b70d710e9,2025-03-11_14h14.04.847,Tarea de decisión léxica,2024.2.5,Win32,59.88023952,,,,,,,,,,,,,,,,,,,,,,,89.722,90.7001,a,1,0.3049,1,90.7002,91.2003,,,,,,419,MAS,WORD,AGR,150,truco,,el,,0.3049,,91.2003,91.2006,-0.009259259,-0.396296296,0,0,0,,0,32,32,418,1,chudo,,,,,
,,,,,,6025d40ede4e061f3c7ca877,676192165fb32c2e1fb7aee6,67d094550121946b70d710e9,2025-03-11_14h14.04.847,Tarea de decisión léxica,2024.2.5,Win32,59.88023952,,,,,,,,,,,,,,,,,,,,,,,91.2027,92.217,l,1,0.3412,1,92.2172,92.7166,,,,,,244,MAS,NOWORD,AGR,150,asamo,,el,,0.3412,,92.7167,92.7167,-0.009259259,-0.396296296,0,0,0,,0,33,33,243,1,amigo,,,,,
,,,,,,6025d40ede4e061f3c7ca877,676192165fb32c2e1fb7aee6,67d094550121946b70d710e9,2025-03-11_14h14.04.847,Tarea de decisión léxica,2024.2.5,Win32,59.88023952,,,,,,,,,,,,,,,,,,,,,,,92.7185,93.8503,a,0,0.4559,0,93.8516,94.3504,,,,,,392,MAS,NOWORD,AGR,150,dievo,,el,,0.4559,,94.3505,94.3507,-0.009259259,-0.396296296,0,0,0,,0,34,34,391,1,dueño,,,,,
,,,,,,6025d40ede4e061f3c7ca877,676192165fb32c2e1fb7aee6,67d094550121946b70d710e9,2025-03-11_14h14.04.847,Tarea de decisión léxica,2024.2.5,Win32,59.88023952,,,,,,,,,,,,,,,,,,,,,,,94.3524,95.6499,l,0,0.6179,0,95.6501,96.1503,,,,,,137,MAS,WORD,DIS,150,nene,,la,,0.6179,,96.1535,96.1551,-0.009259259,-0.396296296,0,0,0,,0,35,35,136,1,pamo,,,,,
,,,,,,6025d40ede4e061f3c7ca877,676192165fb32c2e1fb7aee6,67d094550121946b70d710e9,2025-03-11_14h14.04.847,Tarea de decisión léxica,2024.2.5,Win32,59.88023952,,,,,,,,,,,,,,,,,,,,,,,96.1559,97.3835,a,1,0.5588,1,97.3843,97.8836,,,,,,379,MAS,WORD,AGR,150,turno,,el,,0.5588,,97.8837,97.8839,-0.009259259,-0.396296296,0,0,0,,0,36,36,378,1,tunso,,,,,
,,,,,,6025d40ede4e061f3c7ca877,676192165fb32c2e1fb7aee6,67d094550121946b70d710e9,2025-03-11_14h14.04.847,Tarea de decisión léxica,2024.2.5,Win32,59.88023952,,,,,,,,,,,,,,,,,,,,,,,97.886,98.9502,a,1,0.3935,1,98.9502,99.4502,,,,,,339,MAS,WORD,AGR,150,brazo,,el,,0.3935,,99.4502,99.4503,-0.009259259,-0.396296296,0,0,0,,0,37,37,338,1,plajo,,,,,
,,,,,,6025d40ede4e061f3c7ca877,676192165fb32c2e1fb7aee6,67d094550121946b70d710e9,2025-03-11_14h14.04.847,Tarea de decisión léxica,2024.2.5,Win32,59.88023952,,,,,,,,,,,,,,,,,,,,,,,99.4519,100.5337,a,1,0.4111,1,100.534,101.0335,,,,,,239,MAS,WORD,DIS,150,mozo,,la,,0.4111,,101.0337,101.0339,-0.009259259,-0.396296296,0,0,0,,0,38,38,238,1,poño,,,,,
,,,,,,6025d40ede4e061f3c7ca877,676192165fb32c2e1fb7aee6,67d094550121946b70d710e9,2025-03-11_14h14.04.847,Tarea de decisión léxica,2024.2.5,Win32,59.88023952,,,,,,,,,,,,,,,,,,,,,,,101.0353,102.0335,a,0,0.3234,0,102.0346,102.5336,,,,,,56,MAS,NOWORD,AGR,150,jado,,el,,0.3234,,102.5336,102.5338,-0.009259259,-0.396296296,0,0,0,,0,39,39,55,1,gato,,,,,
,,,,,,6025d40ede4e061f3c7ca877,676192165fb32c2e1fb7aee6,67d094550121946b70d710e9,2025-03-11_14h14.04.847,Tarea de decisión léxica,2024.2.5,Win32,59.88023952,,,,,,,,,,,,,,,,,,,,,,,102.5353,103.8838,l,1,0.669,1,103.8845,104.3835,,,,,,50,FEM,NOWORD,DIS,150,ecat,,el,,0.669,,104.3858,104.3876,-0.009259259,-0.396296296,0,0,0,,0,40,40,49,1,edad,,,,,
,,,,,,6025d40ede4e061f3c7ca877,676192165fb32c2e1fb7aee6,67d094550121946b70d710e9,2025-03-11_14h14.04.847,Tarea de decisión léxica,2024.2.5,Win32,59.88023952,,,,,,,,,,,,,,,,,,,,,,,104.3882,105.8501,a,0,0.7836,0,105.8514,106.3503,,,,,,444,MAS,NOWORD,AGR,150,taron,,el,,0.7836,,106.3504,106.3506,-0.009259259,-0.396296296,0,0,0,,0,41,41,443,1,salón,,,,,
,,,,,,6025d40ede4e061f3c7ca877,676192165fb32c2e1fb7aee6,67d094550121946b70d710e9,2025-03-11_14h14.04.847,Tarea de decisión léxica,2024.2.5,Win32,59.88023952,,,,,,,,,,,,,,,,,,,,,,,106.3521,107.45,a,1,0.4226,1,107.451,107.9502,,,,,,161,MAS,WORD,AGR,150,coro,,el,,0.4226,,107.9503,107.9505,-0.009259259,-0.396296296,0,0,0,,0,42,42,160,1,bopo,,,,,
,,,,,,6025d40ede4e061f3c7ca877,676192165fb32c2e1fb7aee6,67d094550121946b70d710e9,2025-03-11_14h14.04.847,Tarea de decisión léxica,2024.2.5,Win32,59.88023952,,,,,,,,,,,,,,,,,,,,,,,107.9527,109.0835,a,0,0.4552,0,109.0848,109.5837,,,,,,404,FEM,NOWORD,AGR,150,grisa,,la,,0.4552,,109.5838,109.5841,-0.009259259,-0.396296296,0,0,0,,0,43,43,403,1,prima,,,,,
,,,,,,6025d40ede4e061f3c7ca877,676192165fb32c2e1fb7aee6,67d094550121946b70d710e9,2025-03-11_14h14.04.847,Tarea de decisión léxica,2024.2.5,Win32,59.88023952,,,,,,,,,,,,,,,,,,,,,,,109.586,110.7168,a,0,0.4547,0,110.7169,111.2172,,,,,,472,FEM,NOWORD,AGR,150,prana,,la,,0.4547,,111.2173,111.2175,-0.009259259,-0.396296296,0,0,0,,0,44,44,471,1,grasa,,,,,
,,,,,,6025d40ede4e061f3c7ca877,676192165fb32c2e1fb7aee6,67d094550121946b70d710e9,2025-03-11_14h14.04.847,Tarea de decisión léxica,2024.2.5,Win32,59.88023952,,,,,,,,,,,,,,,,,,,,,,,111.2203,112.5172,l,1,0.6281,1,112.5179,113.017,,,,,,18,FEM,NOWORD,DIS,150,paba,,el,,0.6281,,113.0187,113.0202,-0.009259259,-0.396296296,0,0,0,,0,45,45,17,1,mamá,,,,,
,,,,,,6025d40ede4e061f3c7ca877,676192165fb32c2e1fb7aee6,67d094550121946b70d710e9,2025-03-11_14h14.04.847,Tarea de decisión léxica,2024.2.5,Win32,59.88023952,,,,,,,,,,,,,,,,,,,,,,,113.0216,114.1835,a,0,0.486,0,114.1844,114.6834,,,,,,234,FEM,NOWORD,DIS,150,fasa,,el,,0.486,,114.6835,114.6836,-0.009259259,-0.396296296,0,0,0,,0,46,46,233,1,lana,,,,,
,,,,,,6025d40ede4e061f3c7ca877,676192165fb32c2e1fb7aee6,67d094550121946b70d710e9,2025-03-11_14h14.04.847,Tarea de decisión léxica,2024.2.5,Win32,59.88023952,,,,,,,,,,,,,,,,,,,,,,,114.6849,115.7835,a,1,0.4182,1,115.7844,116.2833,,,,,,135,MAS,WORD,AGR,150,tubo,,el,,0.4182,,116.2833,116.2834,-0.009259259,-0.396296296,0,0,0,,0,47,47,134,1,geso,,,,,
,,,,,,6025d40ede4e061f3c7ca877,676192165fb32c2e1fb7aee6,67d094550121946b70d710e9,2025-03-11_14h14.04.847,Tarea de decisión léxica,2024.2.5,Win32,59.88023952,,,,,,,,,,,,,,,,,,,,,,,116.2841,117.4001,a,1,0.4343,1,117.4002,117.9003,,,,,,431,MAS,WORD,DIS,150,motor,,la,,0.4343,,117.9004,117.9005,-0.009259259,-0.396296296,0,0,0,,0,48,48,430,1,tetor,,,,,
,,,,,,6025d40ede4e061f3c7ca877,676192165fb32c2e1fb7aee6,67d094550121946b70d710e9,2025-03-11_14h14.04.847,Tarea de decisión léxica,2024.2.5,Win32,59.88023952,,,,,,,,,,,,,,,,,,,,,,,117.9032,118.9832,a,1,0.4027,1,118.9833,119.4837,,,,,,145,MAS,WORD,AGR,150,león,,el,,0.4027,,119.4838,119.4839,-0.009259259,-0.396296296,0,0,0,,0,49,49,144,1,nobo,,,,,
,,,,,,6025d40ede4e061f3c7ca877,676192165fb32c2e1fb7aee6,67d094550121946b70d710e9,2025-03-11_14h14.04.847,Tarea de decisión léxica,2024.2.5,Win32,59.88023952,,,,,,,,,,,,,,,,,,,,,,,119.4859,120.6669,a,1,0.5008,1,120.667,121.1669,,,,,,425,FEM,WORD,DIS,150,viuda,,el,,0.5008,,121.1688,121.1704,-0.009259259,-0.396296296,0,0,0,,0,50,50,424,1,virca,,,,,
,,,,,,6025d40ede4e061f3c7ca877,676192165fb32c2e1fb7aee6,67d094550121946b70d710e9,2025-03-11_14h14.04.847,Tarea de decisión léxica,2024.2.5,Win32,59.88023952,,,,,,,,,,,,,,,,,,,,,,,121.1715,122.2501,l,1,0.4009,1,122.2503,122.7502,,,,,,16,FEM,NOWORD,AGR,150,odea,,la,,0.4009,,122.7502,122.7506,-0.009259259,-0.396296296,0,0,0,,0,51,51,15,1,idea,,,,,
,,,,,,6025d40ede4e061f3c7ca877,676192165fb32c2e1fb7aee6,67d094550121946b70d710e9,2025-03-11_14h14.04.847,Tarea de decisión léxica,2024.2.5,Win32,59.88023952,,,,,,,,,,,,,,,,,,,,,,,122.7526,123.8335,a,1,0.4014,1,123.8337,124.3333,,,,,,387,FEM,WORD,DIS,150,crema,,el,,0.4014,,124.3335,124.3335,-0.009259259,-0.396296296,0,0,0,,0,52,52,386,1,bresa,,,,,
,,,,,,6025d40ede4e061f3c7ca877,676192165fb32c2e1fb7aee6,67d094550121946b70d710e9,2025-03-11_14h14.04.847,Tarea de decisión léxica,2024.2.5,Win32,59.88023952,,,,,,,,,,,,,,,,,,,,,,,124.3346,125.3832,a,0,0.3749,0,125.384,125.8836,,,,,,200,MAS,NOWORD,AGR,150,fano,,el,,0.3749,,125.8837,125.8838,-0.009259259,-0.396296296,0,0,0,,0,53,53,199,1,lazo,,,,,
,,,,,,6025d40ede4e061f3c7ca877,676192165fb32c2e1fb7aee6,67d094550121946b70d710e9,2025-03-11_14h14.04.847,Tarea de decisión léxica,2024.2.5,Win32,59.88023952,,,,,,,,,,,,,,,,,,,,,,,125.8856,127.0501,l,1,0.4842,1,127.0509,127.5501,,,,,,314,MAS,NOWORD,DIS,150,govio,,la,,0.4842,,127.5503,127.5505,-0.009259259,-0.396296296,0,0,0,,0,54,54,313,1,novio,,,,,
,,,,,,6025d40ede4e061f3c7ca877,676192165fb32c2e1fb7aee6,67d094550121946b70d710e9,2025-03-11_14h14.04.847,Tarea de decisión léxica,2024.2.5,Win32,59.88023952,,,,,,,,,,,,,,,,,,,,,,,127.5524,128.7168,l,1,0.4858,1,128.717,129.2169,,,,,,342,MAS,NOWORD,DIS,150,daror,,la,,0.4858,,129.2186,129.2204,-0.009259259,-0.396296296,0,0,0,,0,55,55,341,1,valor,,,,,
,,,,,,6025d40ede4e061f3c7ca877,676192165fb32c2e1fb7aee6,67d094550121946b70d710e9,2025-03-11_14h14.04.847,Tarea de decisión léxica,2024.2.5,Win32,59.88023952,,,,,,,,,,,,,,,,,,,,,,,129.2215,130.3835,a,0,0.4852,0,130.3847,130.8837,,,,,,14,FEM,NOWORD,DIS,150,nola,,el,,0.4852,,130.8837,130.8839,-0.009259259,-0.396296296,0,0,0,,0,56,56,13,1,hora,,,,,
,,,,,,6025d40ede4e061f3c7ca877,676192165fb32c2e1fb7aee6,67d094550121946b70d710e9,2025-03-11_14h14.04.847,Tarea de decisión léxica,2024.2.5,Win32,59.88023952,,,,,,,,,,,,,,,,,,,,,,,130.8856,132.0001,a,1,0.4337,1,132.0012,132.5002,,,,,,97,MAS,WORD,AGR,150,mono,,el,,0.4337,,132.5004,132.5004,-0.009259259,-0.396296296,0,0,0,,0,57,57,96,1,fopo,,,,,
,,,,,,6025d40ede4e061f3c7ca877,676192165fb32c2e1fb7aee6,67d094550121946b70d710e9,2025-03-11_14h14.04.847,Tarea de decisión léxica,2024.2.5,Win32,59.88023952,,,,,,,,,,,,,,,,,,,,,,,132.5023,133.5667,l,1,0.3863,1,133.5667,134.0669,,,,,,436,MAS,NOWORD,AGR,150,ricno,,el,,0.3863,,134.067,134.0672,-0.009259259,-0.396296296,0,0,0,,0,58,58,435,1,ritmo,,,,,
,,,,,,6025d40ede4e061f3c7ca877,676192165fb32c2e1fb7aee6,67d094550121946b70d710e9,2025-03-11_14h14.04.847,Tarea de decisión léxica,2024.2.5,Win32,59.88023952,,,,,,,,,,,,,,,,,,,,,,,134.0689,135.3001,l,1,0.5557,1,135.3002,135.8,,,,,,98,MAS,NOWORD,DIS,150,fopo,,la,,0.5557,,135.8014,135.8029,-0.009259259,-0.396296296,0,0,0,,0,59,59,97,1,mono,,,,,
,,,,,,6025d40ede4e061f3c7ca877,676192165fb32c2e1fb7aee6,67d094550121946b70d710e9,2025-03-11_14h14.04.847,Tarea de decisión léxica,2024.2.5,Win32,59.88023952,,,,,,,,,,,,,,,,,,,,,,,135.8041,136.8668,l,1,0.384,1,136.8669,137.3669,,,,,,60,FEM,NOWORD,AGR,150,tafa,,la,,0.384,,137.367,137.3673,-0.009259259,-0.396296296,0,0,0,,0,60,60,59,1,sala,,,,,
,,,,,,6025d40ede4e061f3c7ca877,676192165fb32c2e1fb7aee6,67d094550121946b70d710e9,2025-03-11_14h14.04.847,Tarea de decisión léxica,2024.2.5,Win32,59.88023952,,,,,,,,,,,,,,,,,,,,,,,137.3693,138.5665,l,1,0.5199,1,138.5666,139.0669,,,,,,390,MAS,NOWORD,DIS,150,cenco,,la,,0.5199,,139.067,139.0671,-0.009259259,-0.396296296,0,0,0,,0,61,61,389,1,cerdo,,,,,
,,,,,,6025d40ede4e061f3c7ca877,676192165fb32c2e1fb7aee6,67d094550121946b70d710e9,2025-03-11_14h14.04.847,Tarea de decisión léxica,2024.2.5,Win32,59.88023952,,,,,,,,,,,,,,,,,,,,,,,139.0689,140.2668,a,1,0.5177,1,140.267,140.7671,,,,,,77,MAS,WORD,AGR,150,loco,,el,,0.5177,,140.7672,140.7674,-0.009259259,-0.396296296,0,0,0,,0,62,62,76,1,fodo,,,,,
,,,,,,6025d40ede4e061f3c7ca877,676192165fb32c2e1fb7aee6,67d094550121946b70d710e9,2025-03-11_14h14.04.847,Tarea de decisión léxica,2024.2.5,Win32,59.88023952,,,,,,,,,,,,,,,,,,,,,,,140.7693,142.0833,a,0,0.6375,0,142.084,142.5833,,,,,,156,FEM,NOWORD,AGR,150,luma,,la,,0.6375,,142.5833,142.5834,-0.009259259,-0.396296296,0,0,0,,0,63,63,155,1,fuga,,,,,
,,,,,,6025d40ede4e061f3c7ca877,676192165fb32c2e1fb7aee6,67d094550121946b70d710e9,2025-03-11_14h14.04.847,Tarea de decisión léxica,2024.2.5,Win32,59.88023952,,,,,,,,,,,,,,,,,,,,,,,142.5839,143.8668,a,1,0.6054,1,143.8679,144.3669,,,,,,157,MAS,WORD,AGR,150,nido,,el,,0.6054,,144.369,144.371,-0.009259259,-0.396296296,0,0,0,,0,64,64,156,1,hico,,,,,
,,,,,,6025d40ede4e061f3c7ca877,676192165fb32c2e1fb7aee6,67d094550121946b70d710e9,2025-03-11_14h14.04.847,Tarea de decisión léxica,2024.2.5,Win32,59.88023952,,,,,,,,,,,,,,,,,,,,,,,144.3719,145.55,a,0,0.5103,0,145.5508,146.0503,,,,,,288,FEM,NOWORD,AGR,150,fosta,,la,,0.5103,,146.0504,146.0505,-0.009259259,-0.396296296,0,0,0,,0,65,65,287,1,lista,,,,,
,,,,,,6025d40ede4e061f3c7ca877,676192165fb32c2e1fb7aee6,67d094550121946b70d710e9,2025-03-11_14h14.04.847,Tarea de decisión léxica,2024.2.5,Win32,59.88023952,,,,,,,,,,,,,,,,,,,,,,,146.0524,147.15,a,1,0.4271,1,147.1511,147.65,,,,,,455,MAS,WORD,DIS,150,reino,,la,,0.4271,,147.65,147.6502,-0.009259259,-0.396296296,0,0,0,,0,66,66,454,1,riaso,,,,,
,,,,,,6025d40ede4e061f3c7ca877,676192165fb32c2e1fb7aee6,67d094550121946b70d710e9,2025-03-11_14h14.04.847,Tarea de decisión léxica,2024.2.5,Win32,59.88023952,,,,,,,,,,,,,,,,,,,,,,,147.6511,148.7168,a,1,0.3843,1,148.7169,149.2169,,,,,,305,MAS,WORD,AGR,150,avión,,el,,0.3843,,149.217,149.2173,-0.009259259,-0.396296296,0,0,0,,0,67,67,304,1,adiol,,,,,
,,,,,,6025d40ede4e061f3c7ca877,676192165fb32c2e1fb7aee6,67d094550121946b70d710e9,2025-03-11_14h14.04.847,Tarea de decisión léxica,2024.2.5,Win32,59.88023952,,,,,,,,,,,,,,,,,,,,,,,149.2195,150.3834,a,1,0.492,1,150.3835,150.8836,,,,,,223,FEM,WORD,AGR,150,cera,,la,,0.492,,150.8837,150.884,-0.009259259,-0.396296296,0,0,0,,0,68,68,222,1,cira,,,,,
,,,,,,6025d40ede4e061f3c7ca877,676192165fb32c2e1fb7aee6,67d094550121946b70d710e9,2025-03-11_14h14.04.847,Tarea de decisión léxica,2024.2.5,Win32,59.88023952,,,,,,,,,,,,,,,,,,,,,,,150.886,151.8503,a,1,0.2893,1,151.8505,152.3501,,,,,,361,FEM,WORD,DIS,150,torre,,el,,0.2893,,152.3519,152.3537,-0.009259259,-0.396296296,0,0,0,,0,69,69,360,1,solle,,,,,
,,,,,,6025d40ede4e061f3c7ca877,676192165fb32c2e1fb7aee6,67d094550121946b70d710e9,2025-03-11_14h14.04.847,Tarea de decisión léxica,2024.2.5,Win32,59.88023952,,,,,,,,,,,,,,,,,,,,,,,152.3552,153.5169,l,1,0.4846,1,153.517,154.0169,,,,,,446,MAS,NOWORD,DIS,150,ascor,,la,,0.4846,,154.017,154.0172,-0.009259259,-0.396296296,0,0,0,,0,70,70,445,1,actor,,,,,
,,,,,,6025d40ede4e061f3c7ca877,676192165fb32c2e1fb7aee6,67d094550121946b70d710e9,2025-03-11_14h14.04.847,Tarea de decisión léxica,2024.2.5,Win32,59.88023952,,,,,,,,,,,,,,,,,,,,,,,154.0189,155.35,l,1,0.655,1,155.3501,155.8503,,,,,,470,MAS,NOWORD,DIS,150,matia,,la,,0.655,,155.8504,155.8505,-0.009259259,-0.396296296,0,0,0,,0,71,71,469,1,patio,,,,,
,,,,,,6025d40ede4e061f3c7ca877,676192165fb32c2e1fb7aee6,67d094550121946b70d710e9,2025-03-11_14h14.04.847,Tarea de decisión léxica,2024.2.5,Win32,59.88023952,,,,,,,,,,,,,,,,,,,,,,,155.8524,156.9502,l,1,0.4266,1,156.9503,157.4503,,,,,,142,FEM,NOWORD,DIS,150,sina,,el,,0.4266,,157.4504,157.4507,-0.009259259,-0.396296296,0,0,0,,0,72,72,141,1,cruz,,,,,
,,,,,,6025d40ede4e061f3c7ca877,676192165fb32c2e1fb7aee6,67d094550121946b70d710e9,2025-03-11_14h14.04.847,Tarea de decisión léxica,2024.2.5,Win32,59.88023952,,,,,,,,,,,,,,,,,,,,,,,157.4526,158.7505,a,0,0.627,0,158.7511,159.2503,,,,,,418,FEM,NOWORD,DIS,150,banja,,el,,0.627,,159.2503,159.2504,-0.009259259,-0.396296296,0,0,0,,0,73,73,417,1,barba,,,,,
,,,,,,6025d40ede4e061f3c7ca877,676192165fb32c2e1fb7aee6,67d094550121946b70d710e9,2025-03-11_14h14.04.847,Tarea de decisión léxica,2024.2.5,Win32,59.88023952,,,,,,,,,,,,,,,,,,,,,,,159.2518,160.5338,a,0,0.6116,0,160.5339,161.0331,,,,,,320,MAS,NOWORD,AGR,150,tuero,,el,,0.6116,,161.0338,161.0347,-0.009259259,-0.396296296,0,0,0,,0,74,74,319,1,suelo,,,,,
,,,,,,6025d40ede4e061f3c7ca877,676192165fb32c2e1fb7aee6,67d094550121946b70d710e9,2025-03-11_14h14.04.847,Tarea de decisión léxica,2024.2.5,Win32,59.88023952,,,,,,,,,,,,,,,,,,,,,,,161.0358,162.2501,a,1,0.5354,1,162.2512,162.7502,,,,,,371,FEM,WORD,AGR,150,pasta,,la,,0.5354,,162.7503,162.7503,-0.009259259,-0.396296296,0,0,0,,0,75,75,370,1,mosta,,,,,
,,,,,,6025d40ede4e061f3c7ca877,676192165fb32c2e1fb7aee6,67d094550121946b70d710e9,2025-03-11_14h14.04.847,Tarea de decisión léxica,2024.2.5,Win32,59.88023952,,,,,,,,,,,,,,,,,,,,,,,162.7514,164.0334,l,1,0.6033,1,164.0336,164.5335,,,,,,364,FEM,NOWORD,AGR,150,veida,,la,,0.6033,,164.5335,164.5336,-0.009259259,-0.396296296,0,0,0,,0,76,76,363,1,deuda,,,,,
,,,,,,6025d40ede4e061f3c7ca877,676192165fb32c2e1fb7aee6,67d094550121946b70d710e9,2025-03-11_14h14.04.847,Tarea de decisión léxica,2024.2.5,Win32,59.88023952,,,,,,,,,,,,,,,,,,,,,,,164.5352,165.717,l,1,0.5045,1,165.7171,166.2168,,,,,,428,FEM,NOWORD,AGR,150,oseva,,la,,0.5045,,166.217,166.2171,-0.009259259,-0.396296296,0,0,0,,0,77,77,427,1,oreja,,,,,
,,,,,,6025d40ede4e061f3c7ca877,676192165fb32c2e1fb7aee6,67d094550121946b70d710e9,2025-03-11_14h14.04.847,Tarea de decisión léxica,2024.2.5,Win32,59.88023952,,,,,,,,,,,,,,,,,,,,,,,166.2192,167.2501,l,1,0.3517,1,167.2502,167.7501,,,,,,66,MAS,NOWORD,DIS,150,nios,,la,,0.3517,,167.7502,167.7503,-0.009259259,-0.396296296,0,0,0,,0,78,78,65,1,dios,,,,,
,,,,,,6025d40ede4e061f3c7ca877,676192165fb32c2e1fb7aee6,67d094550121946b70d710e9,2025-03-11_14h14.04.847,Tarea de decisión léxica,2024.2.5,Win32,59.88023952,,,,,,,,,,,,,,,,,,,,,,,167.7513,169.1169,a,1,0.6846,1,169.1171,169.617,,,,,,473,FEM,WORD,AGR,150,feria,,la,,0.6846,,169.6192,169.6209,-0.009259259,-0.396296296,0,0,0,,0,79,79,472,1,felia,,,,,
,,,,,,6025d40ede4e061f3c7ca877,676192165fb32c2e1fb7aee6,67d094550121946b70d710e9,2025-03-11_14h14.04.847,Tarea de decisión léxica,2024.2.5,Win32,59.88023952,,,,,,,,,,,,,,,,,,,,,,,169.6219,170.75,l,1,0.4615,1,170.75,171.2503,,,,,,38,MAS,NOWORD,DIS,150,gaco,,la,,0.4615,,171.2504,171.2505,-0.009259259,-0.396296296,0,0,0,,0,80,80,37,1,rato,,,,,
,,,,,,6025d40ede4e061f3c7ca877,676192165fb32c2e1fb7aee6,67d094550121946b70d710e9,2025-03-11_14h14.04.847,Tarea de decisión léxica,2024.2.5,Win32,59.88023952,,,,,,,,,,,,,,,,,,,,,,,171.2525,172.3339,l,1,0.411,1,172.3341,172.8333,,,,,,210,MAS,NOWORD,DIS,150,dero,,la,,0.411,,172.8333,172.8334,-0.009259259,-0.396296296,0,0,0,,0,81,81,209,1,velo,,,,,
,,,,,,6025d40ede4e061f3c7ca877,676192165fb32c2e1fb7aee6,67d094550121946b70d710e9,2025-03-11_14h14.04.847,Tarea de decisión léxica,2024.2.5,Win32,59.88023952,,,,,,,,,,,,,,,,,,,,,,,172.8344,173.9001,l,1,0.3885,1,173.9002,174.4006,,,,,,160,MAS,NOWORD,AGR,150,bilo,,el,,0.3885,,174.4007,174.401,-0.009259259,-0.396296296,0,0,0,,0,82,82,159,1,giro,,,,,
,,,,,,6025d40ede4e061f3c7ca877,676192165fb32c2e1fb7aee6,67d094550121946b70d710e9,2025-03-11_14h14.04.847,Tarea de decisión léxica,2024.2.5,Win32,59.88023952,,,,,,,,,,,,,,,,,,,,,,,174.4037,175.5668,l,1,0.4846,1,175.567,176.0669,,,,,,334,FEM,NOWORD,DIS,150,dalea,,el,,0.4846,,176.0694,176.0715,-0.009259259,-0.396296296,0,0,0,,0,83,83,333,1,tarea,,,,,
,,,,,,6025d40ede4e061f3c7ca877,676192165fb32c2e1fb7aee6,67d094550121946b70d710e9,2025-03-11_14h14.04.847,Tarea de decisión léxica,2024.2.5,Win32,59.88023952,,,,,,,,,,,,,,,,,,,,,,,176.0724,177.2167,l,1,0.4748,1,177.217,177.717,,,,,,30,MAS,NOWORD,DIS,150,pono,,la,,0.4748,,177.717,177.7172,-0.009259259,-0.396296296,0,0,0,,0,84,84,29,1,modo,,,,,
,,,,,,6025d40ede4e061f3c7ca877,676192165fb32c2e1fb7aee6,67d094550121946b70d710e9,2025-03-11_14h14.04.847,Tarea de decisión léxica,2024.2.5,Win32,59.88023952,,,,,,,,,,,,,,,,,,,,,,,177.7189,178.7177,l,1,0.3278,1,178.7178,179.2168,,,,,,130,MAS,NOWORD,DIS,150,pima,,la,,0.3278,,179.217,179.2172,-0.009259259,-0.396296296,0,0,0,,0,85,85,129,1,oído,,,,,
,,,,,,6025d40ede4e061f3c7ca877,676192165fb32c2e1fb7aee6,67d094550121946b70d710e9,2025-03-11_14h14.04.847,Tarea de decisión léxica,2024.2.5,Win32,59.88023952,,,,,,,,,,,,,,,,,,,,,,,179.219,180.3333,a,1,0.439,1,180.3334,180.8335,,,,,,369,MAS,WORD,AGR,150,ruido,,el,,0.439,,180.8336,180.8337,-0.009259259,-0.396296296,0,0,0,,0,86,86,368,1,rioco,,,,,
,,,,,,6025d40ede4e061f3c7ca877,676192165fb32c2e1fb7aee6,67d094550121946b70d710e9,2025-03-11_14h14.04.847,Tarea de decisión léxica,2024.2.5,Win32,59.88023952,,,,,,,,,,,,,,,,,,,,,,,180.8353,181.8668,a,1,0.3556,1,181.867,182.3669,,,,,,5,FEM,WORD,AGR,150,cosa,,la,,0.3556,,182.367,182.3673,-0.009259259,-0.396296296,0,0,0,,0,87,87,4,1,poga,,,,,
,,,,,,6025d40ede4e061f3c7ca877,676192165fb32c2e1fb7aee6,67d094550121946b70d710e9,2025-03-11_14h14.04.847,Tarea de decisión léxica,2024.2.5,Win32,59.88023952,,,,,,,,,,,,,,,,,,,,,,,182.3691,183.4002,l,1,0.3515,1,183.4004,183.9002,,,,,,280,FEM,NOWORD,AGR,150,grina,,la,,0.3515,,183.9018,183.9039,-0.009259259,-0.396296296,0,0,0,,0,88,88,279,1,prisa,,,,,
,,,,,,6025d40ede4e061f3c7ca877,676192165fb32c2e1fb7aee6,67d094550121946b70d710e9,2025-03-11_14h14.04.847,Tarea de decisión léxica,2024.2.5,Win32,59.88023952,,,,,,,,,,,,,,,,,,,,,,,183.9049,185.0167,l,0,0.4344,0,185.0179,185.5169,,,,,,107,MAS,WORD,DIS,150,saco,,la,,0.4344,,185.517,185.5172,-0.009259259,-0.396296296,0,0,0,,0,89,89,106,1,raot,,,,,
,,,,,,6025d40ede4e061f3c7ca877,676192165fb32c2e1fb7aee6,67d094550121946b70d710e9,2025-03-11_14h14.04.847,Tarea de decisión léxica,2024.2.5,Win32,59.88023952,,,,,,,,,,,,,,,,,,,,,,,185.5191,186.5667,a,1,0.3763,1,186.5676,187.0669,,,,,,245,FEM,WORD,AGR,150,madre,,la,,0.3763,,187.0669,187.0672,-0.009259259,-0.396296296,0,0,0,,0,90,90,244,1,pafle,,,,,
,,,,,,6025d40ede4e061f3c7ca877,676192165fb32c2e1fb7aee6,67d094550121946b70d710e9,2025-03-11_14h14.04.847,Tarea de decisión léxica,2024.2.5,Win32,59.88023952,,,,,,,,,,,,,,,,,,,,,,,187.0692,188.0833,a,1,0.3384,1,188.0834,188.5837,,,,,,477,MAS,WORD,AGR,150,botón,,el,,0.3384,,188.584,188.5842,-0.009259259,-0.396296296,0,0,0,,0,91,91,476,1,hocon,,,,,
,,,,,,6025d40ede4e061f3c7ca877,676192165fb32c2e1fb7aee6,67d094550121946b70d710e9,2025-03-11_14h14.04.847,Tarea de decisión léxica,2024.2.5,Win32,59.88023952,,,,,,,,,,,,,,,,,,,,,,,188.5871,189.6667,a,1,0.4052,1,189.6668,190.1668,,,,,,109,MAS,WORD,AGR,150,rayo,,el,,0.4052,,190.167,190.1671,-0.009259259,-0.396296296,0,0,0,,0,92,92,108,1,suno,,,,,
,,,,,,6025d40ede4e061f3c7ca877,676192165fb32c2e1fb7aee6,67d094550121946b70d710e9,2025-03-11_14h14.04.847,Tarea de decisión léxica,2024.2.5,Win32,59.88023952,,,,,,,,,,,,,,,,,,,,,,,190.1689,191.2833,l,1,0.4387,1,191.2834,191.7836,,,,,,384,FEM,NOWORD,AGR,150,brame,,la,,0.4387,,191.7854,191.7871,-0.009259259,-0.396296296,0,0,0,,0,93,93,383,1,frase,,,,,
,,,,,,6025d40ede4e061f3c7ca877,676192165fb32c2e1fb7aee6,67d094550121946b70d710e9,2025-03-11_14h14.04.847,Tarea de decisión léxica,2024.2.5,Win32,59.88023952,,,,,,,,,,,,,,,,,,,,,,,191.7882,192.8664,a,0,0.3998,0,192.867,193.3669,,,,,,310,FEM,NOWORD,DIS,150,tirra,,el,,0.3998,,193.3671,193.3673,-0.009259259,-0.396296296,0,0,0,,0,94,94,309,1,silla,,,,,
,,,,,,6025d40ede4e061f3c7ca877,676192165fb32c2e1fb7aee6,67d094550121946b70d710e9,2025-03-11_14h14.04.847,Tarea de decisión léxica,2024.2.5,Win32,59.88023952,,,,,,,,,,,,,,,,,,,,,,,193.3698,194.5333,a,1,0.4883,1,194.5342,195.0336,,,,,,207,MAS,WORD,AGR,150,kilo,,el,,0.4883,,195.0336,195.0338,-0.009259259,-0.396296296,0,0,0,,0,95,95,206,1,kedo,,,,,
,,,,,,6025d40ede4e061f3c7ca877,676192165fb32c2e1fb7aee6,67d094550121946b70d710e9,2025-03-11_14h14.04.847,Tarea de decisión léxica,2024.2.5,Win32,59.88023952,,,,,,,,,,,,,,,,,,,,,,,195.0355,196.1341,a,1,0.4278,1,196.1343,196.6337,,,,,,357,FEM,WORD,AGR,150,bruja,,la,,0.4278,,196.6338,196.634,-0.009259259,-0.396296296,0,0,0,,0,96,96,356,1,gruba,,,,,
,,,,,,6025d40ede4e061f3c7ca877,676192165fb32c2e1fb7aee6,67d094550121946b70d710e9,2025-03-11_14h14.04.847,Tarea de decisión léxica,2024.2.5,Win32,59.88023952,,,,,,,,,,,,,,,,,,,,,,,196.6357,197.75,l,0,0.4373,0,197.7508,198.2503,,,,,,385,FEM,WORD,AGR,150,letra,,la,,0.4373,,198.2504,198.2505,-0.009259259,-0.396296296,0,0,0,,0,97,97,384,1,febra,,,,,
,,,,,,6025d40ede4e061f3c7ca877,676192165fb32c2e1fb7aee6,67d094550121946b70d710e9,2025-03-11_14h14.04.847,Tarea de decisión léxica,2024.2.5,Win32,59.88023952,,,,,,,,,,,,,,,,,,,,,,,198.2519,199.4333,l,1,0.5012,1,199.4344,199.9335,,,,,,354,FEM,NOWORD,DIS,150,cezca,,el,,0.5012,,199.9356,199.9377,-0.009259259,-0.396296296,0,0,0,,0,98,98,353,1,celda,,,,,
,,,,,,6025d40ede4e061f3c7ca877,676192165fb32c2e1fb7aee6,67d094550121946b70d710e9,2025-03-11_14h14.04.847,Tarea de decisión léxica,2024.2.5,Win32,59.88023952,,,,,,,,,,,,,,,,,,,,,,,199.9385,201.0166,l,1,0.3995,1,201.0167,201.5167,,,,,,8,MAS,NOWORD,AGR,150,nivo,,el,,0.3995,,201.5168,201.5169,-0.009259259,-0.396296296,0,0,0,,0,99,99,7,1,hijo,,,,,
,,,,,,6025d40ede4e061f3c7ca877,676192165fb32c2e1fb7aee6,67d094550121946b70d710e9,2025-03-11_14h14.04.847,Tarea de decisión léxica,2024.2.5,Win32,59.88023952,,,,,,,,,,,,,,,,,,,,,,,201.518,202.5,l,1,0.3026,1,202.5001,202.9999,,,,,,134,FEM,NOWORD,DIS,150,vesa,,el,,0.3026,,203,203.0001,-0.009259259,-0.396296296,0,0,0,,0,100,100,133,1,vaca,,,,,
,,,,,,6025d40ede4e061f3c7ca877,676192165fb32c2e1fb7aee6,67d094550121946b70d710e9,2025-03-11_14h14.04.847,Tarea de decisión léxica,2024.2.5,Win32,59.88023952,,,,,,,,,,,,,,,,,,,,,,,203.001,204.0334,l,1,0.3569,1,204.0335,204.5336,,,,,,94,FEM,NOWORD,DIS,150,rona,,el,,0.3569,,204.5336,204.5339,-0.009259259,-0.396296296,0,0,0,,0,101,101,93,1,bola,,,,,
,,,,,,6025d40ede4e061f3c7ca877,676192165fb32c2e1fb7aee6,67d094550121946b70d710e9,2025-03-11_14h14.04.847,Tarea de decisión léxica,2024.2.5,Win32,59.88023952,,,,,,,,,,,,,,,,,,,,,,,204.5356,205.5665,l,1,0.3544,1,205.5665,206.0673,,,,,,108,MAS,NOWORD,AGR,150,raot,,el,,0.3544,,206.0674,206.0674,-0.009259259,-0.396296296,0,0,0,,0,102,102,107,1,saco,,,,,
,,,,,,6025d40ede4e061f3c7ca877,676192165fb32c2e1fb7aee6,67d094550121946b70d710e9,2025-03-11_14h14.04.847,Tarea de decisión léxica,2024.2.5,Win32,59.88023952,,,,,,,,,,,,,,,,,,,,,,,206.0689,207.2499,a,1,0.5008,1,207.2501,207.7502,,,,,,121,MAS,WORD,AGR,150,hoyo,,el,,0.5008,,207.752,207.7538,-0.009259259,-0.396296296,0,0,0,,0,103,103,120,1,bomo,,,,,
,,,,,,6025d40ede4e061f3c7ca877,676192165fb32c2e1fb7aee6,67d094550121946b70d710e9,2025-03-11_14h14.04.847,Tarea de decisión léxica,2024.2.5,Win32,59.88023952,,,,,,,,,,,,,,,,,,,,,,,207.7549,208.8002,a,1,0.3674,1,208.8006,209.3001,,,,,,423,MAS,WORD,AGR,150,queso,,el,,0.3674,,209.3001,209.3004,-0.009259259,-0.396296296,0,0,0,,0,104,104,422,1,quigo,,,,,
,,,,,,6025d40ede4e061f3c7ca877,676192165fb32c2e1fb7aee6,67d094550121946b70d710e9,2025-03-11_14h14.04.847,Tarea de decisión léxica,2024.2.5,Win32,59.88023952,,,,,,,,,,,,,,,,,,,,,,,209.3021,210.3667,a,1,0.3856,1,210.3669,210.8669,,,,,,47,MAS,WORD,AGR,150,club,,el,,0.3856,,210.867,210.8671,-0.009259259,-0.396296296,0,0,0,,0,105,105,46,1,chub,,,,,
,,,,,,6025d40ede4e061f3c7ca877,676192165fb32c2e1fb7aee6,67d094550121946b70d710e9,2025-03-11_14h14.04.847,Tarea de decisión léxica,2024.2.5,Win32,59.88023952,,,,,,,,,,,,,,,,,,,,,,,210.8688,212.0001,l,1,0.4507,1,212.0003,212.5002,,,,,,260,MAS,NOWORD,AGR,150,jaumo,,el,,0.4507,,212.5003,212.5005,-0.009259259,-0.396296296,0,0,0,,0,106,106,259,1,juego,,,,,
,,,,,,6025d40ede4e061f3c7ca877,676192165fb32c2e1fb7aee6,67d094550121946b70d710e9,2025-03-11_14h14.04.847,Tarea de decisión léxica,2024.2.5,Win32,59.88023952,,,,,,,,,,,,,,,,,,,,,,,212.5023,213.5834,a,1,0.4083,1,213.5834,214.0834,,,,,,389,MAS,WORD,AGR,150,cerdo,,el,,0.4083,,214.0845,214.0858,-0.009259259,-0.396296296,0,0,0,,0,107,107,388,1,cenco,,,,,
,,,,,,6025d40ede4e061f3c7ca877,676192165fb32c2e1fb7aee6,67d094550121946b70d710e9,2025-03-11_14h14.04.847,Tarea de decisión léxica,2024.2.5,Win32,59.88023952,,,,,,,,,,,,,,,,,,,,,,,214.0873,215.2168,a,1,0.4513,1,215.217,215.7168,,,,,,101,MAS,WORD,AGR,150,tono,,el,,0.4513,,215.7169,215.717,-0.009259259,-0.396296296,0,0,0,,0,108,108,100,1,gito,,,,,
,,,,,,6025d40ede4e061f3c7ca877,676192165fb32c2e1fb7aee6,67d094550121946b70d710e9,2025-03-11_14h14.04.847,Tarea de decisión léxica,2024.2.5,Win32,59.88023952,,,,,,,,,,,,,,,,,,,,,,,215.7185,216.7501,a,1,0.3599,1,216.7501,217.2501,,,,,,115,FEM,WORD,DIS,150,pata,,el,,0.3599,,217.2502,217.2505,-0.009259259,-0.396296296,0,0,0,,0,109,109,114,1,haca,,,,,
,,,,,,6025d40ede4e061f3c7ca877,676192165fb32c2e1fb7aee6,67d094550121946b70d710e9,2025-03-11_14h14.04.847,Tarea de decisión léxica,2024.2.5,Win32,59.88023952,,,,,,,,,,,,,,,,,,,,,,,217.2519,218.2335,a,1,0.3012,1,218.2338,218.7336,,,,,,325,FEM,WORD,AGR,150,magia,,la,,0.3012,,218.7337,218.7339,-0.009259259,-0.396296296,0,0,0,,0,110,110,324,1,mabia,,,,,
,,,,,,6025d40ede4e061f3c7ca877,676192165fb32c2e1fb7aee6,67d094550121946b70d710e9,2025-03-11_14h14.04.847,Tarea de decisión léxica,2024.2.5,Win32,59.88023952,,,,,,,,,,,,,,,,,,,,,,,218.7354,220.2836,a,1,0.868,1,220.2837,220.7835,,,,,,21,MAS,WORD,AGR,150,plan,,el,,0.868,,220.7837,220.7838,-0.009259259,-0.396296296,0,0,0,,0,111,111,20,1,blan,,,,,
,,,,,,6025d40ede4e061f3c7ca877,676192165fb32c2e1fb7aee6,67d094550121946b70d710e9,2025-03-11_14h14.04.847,Tarea de decisión léxica,2024.2.5,Win32,59.88023952,,,,,,,,,,,,,,,,,,,,,,,220.7855,221.7832,a,0,0.3247,0,221.7837,222.2834,,,,,,202,FEM,NOWORD,DIS,150,cusa,,el,,0.3247,,222.2848,222.2861,-0.009259259,-0.396296296,0,0,0,,0,112,112,201,1,cuna,,,,,
,,,,,,6025d40ede4e061f3c7ca877,676192165fb32c2e1fb7aee6,67d094550121946b70d710e9,2025-03-11_14h14.04.847,Tarea de decisión léxica,2024.2.5,Win32,59.88023952,,,,,,,,,,,,,,,,,,,,,,,222.2874,223.4668,l,1,0.5014,1,223.4679,223.9669,,,,,,46,FEM,NOWORD,DIS,150,pema,,el,,0.5014,,223.967,223.9672,-0.009259259,-0.396296296,0,0,0,,0,113,113,45,1,mesa,,,,,
,,,,,,6025d40ede4e061f3c7ca877,676192165fb32c2e1fb7aee6,67d094550121946b70d710e9,2025-03-11_14h14.04.847,Tarea de decisión léxica,2024.2.5,Win32,59.88023952,,,,,,,,,,,,,,,,,,,,,,,223.969,225.017,l,1,0.3677,1,225.017,225.5168,,,,,,128,MAS,NOWORD,AGR,150,itio,,el,,0.3677,,225.5169,225.5172,-0.009259259,-0.396296296,0,0,0,,0,114,114,127,1,pico,,,,,
,,,,,,6025d40ede4e061f3c7ca877,676192165fb32c2e1fb7aee6,67d094550121946b70d710e9,2025-03-11_14h14.04.847,Tarea de decisión léxica,2024.2.5,Win32,59.88023952,,,,,,,,,,,,,,,,,,,,,,,225.5186,226.5336,a,1,0.3446,1,226.5337,227.0335,,,,,,405,FEM,WORD,AGR,150,barra,,la,,0.3446,,227.0335,227.0337,-0.009259259,-0.396296296,0,0,0,,0,115,115,404,1,rarra,,,,,
,,,,,,6025d40ede4e061f3c7ca877,676192165fb32c2e1fb7aee6,67d094550121946b70d710e9,2025-03-11_14h14.04.847,Tarea de decisión léxica,2024.2.5,Win32,59.88023952,,,,,,,,,,,,,,,,,,,,,,,227.0354,228.1336,l,1,0.4284,1,228.1336,228.6336,,,,,,192,FEM,NOWORD,AGR,150,bila,,la,,0.4284,,228.6337,228.634,-0.009259259,-0.396296296,0,0,0,,0,116,116,191,1,pila,,,,,
,,,,,,6025d40ede4e061f3c7ca877,676192165fb32c2e1fb7aee6,67d094550121946b70d710e9,2025-03-11_14h14.04.847,Tarea de decisión léxica,2024.2.5,Win32,59.88023952,,,,,,,,,,,,,,,,,,,,,,,228.6361,229.7333,l,0,0.4209,0,229.7342,230.2336,,,,,,85,MAS,WORD,DIS,150,lago,,la,,0.4209,,230.2353,230.237,-0.009259259,-0.396296296,0,0,0,,0,117,117,84,1,babo,,,,,
,,,,,,6025d40ede4e061f3c7ca877,676192165fb32c2e1fb7aee6,67d094550121946b70d710e9,2025-03-11_14h14.04.847,Tarea de decisión léxica,2024.2.5,Win32,59.88023952,,,,,,,,,,,,,,,,,,,,,,,230.2384,231.3833,a,1,0.4754,1,231.3844,231.8835,,,,,,283,MAS,WORD,AGR,150,sueño,,el,,0.4754,,231.8837,231.8838,-0.009259259,-0.396296296,0,0,0,,0,118,118,282,1,tuevo,,,,,
,,,,,,6025d40ede4e061f3c7ca877,676192165fb32c2e1fb7aee6,67d094550121946b70d710e9,2025-03-11_14h14.04.847,Tarea de decisión léxica,2024.2.5,Win32,59.88023952,,,,,,,,,,,,,,,,,,,,,,,231.8856,232.9666,a,1,0.4033,1,232.9666,233.4668,,,,,,269,MAS,WORD,AGR,150,perro,,el,,0.4033,,233.4669,233.4671,-0.009259259,-0.396296296,0,0,0,,0,119,119,268,1,mello,,,,,
,,,,,,6025d40ede4e061f3c7ca877,676192165fb32c2e1fb7aee6,67d094550121946b70d710e9,2025-03-11_14h14.04.847,Tarea de decisión léxica,2024.2.5,Win32,59.88023952,,,,,,,,,,,,,,,,,,,,,,,233.4688,234.55,l,1,0.4104,1,234.5502,235.0502,,,,,,368,MAS,NOWORD,AGR,150,rerob,,el,,0.4104,,235.0503,235.0505,-0.009259259,-0.396296296,0,0,0,,0,120,120,367,1,reloj,,,,,
,,,,,,6025d40ede4e061f3c7ca877,676192165fb32c2e1fb7aee6,67d094550121946b70d710e9,2025-03-11_14h14.04.847,Tarea de decisión léxica,2024.2.5,Win32,59.88023952,,,,,,,,,,,,,,,,,,,,,,,235.0523,236.2334,a,1,0.5066,1,236.2335,236.7335,,,,,,65,MAS,WORD,DIS,150,dios,,la,,0.5066,,236.7336,236.7339,-0.009259259,-0.396296296,0,0,0,,0,121,121,64,1,nios,,,,,
,,,,,,6025d40ede4e061f3c7ca877,676192165fb32c2e1fb7aee6,67d094550121946b70d710e9,2025-03-11_14h14.04.847,Tarea de decisión léxica,2024.2.5,Win32,59.88023952,,,,,,,,,,,,,,,,,,,,,,,236.7358,237.9833,a,1,0.5676,1,237.9835,238.4832,,,,,,141,FEM,WORD,DIS,150,cruz,,el,,0.5676,,238.4842,238.4856,-0.009259259,-0.396296296,0,0,0,,0,122,122,140,1,sina,,,,,
,,,,,,6025d40ede4e061f3c7ca877,676192165fb32c2e1fb7aee6,67d094550121946b70d710e9,2025-03-11_14h14.04.847,Tarea de decisión léxica,2024.2.5,Win32,59.88023952,,,,,,,,,,,,,,,,,,,,,,,238.4869,239.5835,l,1,0.4184,1,239.5837,240.0836,,,,,,184,FEM,NOWORD,AGR,150,raad,,la,,0.4184,,240.0837,240.084,-0.009259259,-0.396296296,0,0,0,,0,123,123,183,1,raya,,,,,
,,,,,,6025d40ede4e061f3c7ca877,676192165fb32c2e1fb7aee6,67d094550121946b70d710e9,2025-03-11_14h14.04.847,Tarea de decisión léxica,2024.2.5,Win32,59.88023952,,,,,,,,,,,,,,,,,,,,,,,240.0862,241.2001,a,1,0.4334,1,241.2002,241.7002,,,,,,351,MAS,WORD,DIS,150,vuelo,,la,,0.4334,,241.7004,241.7005,-0.009259259,-0.396296296,0,0,0,,0,124,124,350,1,duepo,,,,,
,,,,,,6025d40ede4e061f3c7ca877,676192165fb32c2e1fb7aee6,67d094550121946b70d710e9,2025-03-11_14h14.04.847,Tarea de decisión léxica,2024.2.5,Win32,59.88023952,,,,,,,,,,,,,,,,,,,,,,,241.702,242.8501,l,1,0.4674,1,242.8502,243.3502,,,,,,222,FEM,NOWORD,DIS,150,puca,,el,,0.4674,,243.3502,243.3506,-0.009259259,-0.396296296,0,0,0,,0,125,125,221,1,mula,,,,,
,,,,,,6025d40ede4e061f3c7ca877,676192165fb32c2e1fb7aee6,67d094550121946b70d710e9,2025-03-11_14h14.04.847,Tarea de decisión léxica,2024.2.5,Win32,59.88023952,,,,,,,,,,,,,,,,,,,,,,,243.3523,244.5337,a,1,0.501,1,244.5338,245.0335,,,,,,81,FEM,WORD,DIS,150,dama,,el,,0.501,,245.0335,245.0337,-0.009259259,-0.396296296,0,0,0,,0,126,126,80,1,vasa,,,,,
,,,,,,6025d40ede4e061f3c7ca877,676192165fb32c2e1fb7aee6,67d094550121946b70d710e9,2025-03-11_14h14.04.847,Tarea de decisión léxica,2024.2.5,Win32,59.88023952,,,,,,,,,,,,,,,,,,,,,,,245.035,246.1835,a,1,0.4686,1,246.1836,246.6836,,,,,,411,MAS,WORD,DIS,150,pollo,,la,,0.4686,,246.6854,246.6873,-0.009259259,-0.396296296,0,0,0,,0,127,127,410,1,mobro,,,,,
,,,,,,6025d40ede4e061f3c7ca877,676192165fb32c2e1fb7aee6,67d094550121946b70d710e9,2025-03-11_14h14.04.847,Tarea de decisión léxica,2024.2.5,Win32,59.88023952,,,,,,,,,,,,,,,,,,,,,,,246.6884,247.9668,a,1,0.603,1,247.9669,248.4669,,,,,,221,FEM,WORD,DIS,150,mula,,el,,0.603,,248.4671,248.4673,-0.009259259,-0.396296296,0,0,0,,0,128,128,220,1,puca,,,,,
,,,,,,6025d40ede4e061f3c7ca877,676192165fb32c2e1fb7aee6,67d094550121946b70d710e9,2025-03-11_14h14.04.847,Tarea de decisión léxica,2024.2.5,Win32,59.88023952,,,,,,,,,,,,,,,,,,,,,,,248.4689,249.5669,a,1,0.4191,1,249.567,250.0668,,,,,,393,FEM,WORD,AGR,150,aldea,,la,,0.4191,,250.0669,250.0671,-0.009259259,-0.396296296,0,0,0,,0,129,129,392,1,ashea,,,,,
,,,,,,6025d40ede4e061f3c7ca877,676192165fb32c2e1fb7aee6,67d094550121946b70d710e9,2025-03-11_14h14.04.847,Tarea de decisión léxica,2024.2.5,Win32,59.88023952,,,,,,,,,,,,,,,,,,,,,,,250.0687,251.3168,l,1,0.5674,1,251.3168,251.8166,,,,,,336,FEM,NOWORD,AGR,150,pesta,,la,,0.5674,,251.8167,251.8168,-0.009259259,-0.396296296,0,0,0,,0,130,130,335,1,costa,,,,,
,,,,,,6025d40ede4e061f3c7ca877,676192165fb32c2e1fb7aee6,67d094550121946b70d710e9,2025-03-11_14h14.04.847,Tarea de decisión léxica,2024.2.5,Win32,59.88023952,,,,,,,,,,,,,,,,,,,,,,,251.8182,253.134,l,1,0.6444,1,253.1342,253.6338,,,,,,146,MAS,NOWORD,DIS,150,nobo,,la,,0.6444,,253.6354,253.6372,-0.009259259,-0.396296296,0,0,0,,0,131,131,145,1,león,,,,,
,,,,,,6025d40ede4e061f3c7ca877,676192165fb32c2e1fb7aee6,67d094550121946b70d710e9,2025-03-11_14h14.04.847,Tarea de decisión léxica,2024.2.5,Win32,59.88023952,,,,,,,,,,,,,,,,,,,,,,,253.6383,254.8166,l,1,0.5019,1,254.8167,255.3169,,,,,,464,FEM,NOWORD,AGR,150,matla,,la,,0.5019,,255.317,255.3172,-0.009259259,-0.396296296,0,0,0,,0,132,132,463,1,cabra,,,,,
,,,,,,6025d40ede4e061f3c7ca877,676192165fb32c2e1fb7aee6,67d094550121946b70d710e9,2025-03-11_14h14.04.847,Tarea de decisión léxica,2024.2.5,Win32,59.88023952,,,,,,,,,,,,,,,,,,,,,,,255.3189,256.5338,l,1,0.5443,1,256.5339,257.0336,,,,,,406,FEM,NOWORD,DIS,150,rarra,,el,,0.5443,,257.0338,257.0339,-0.009259259,-0.396296296,0,0,0,,0,133,133,405,1,barra,,,,,
,,,,,,6025d40ede4e061f3c7ca877,676192165fb32c2e1fb7aee6,67d094550121946b70d710e9,2025-03-11_14h14.04.847,Tarea de decisión léxica,2024.2.5,Win32,59.88023952,,,,,,,,,,,,,,,,,,,,,,,257.0358,258.2,a,0,0.4917,0,258.2012,258.7001,,,,,,456,MAS,NOWORD,AGR,150,riaso,,el,,0.4917,,258.7001,258.7003,-0.009259259,-0.396296296,0,0,0,,0,134,134,455,1,reino,,,,,
,,,,,,6025d40ede4e061f3c7ca877,676192165fb32c2e1fb7aee6,67d094550121946b70d710e9,2025-03-11_14h14.04.847,Tarea de decisión léxica,2024.2.5,Win32,59.88023952,,,,,,,,,,,,,,,,,,,,,,,258.7016,259.7834,a,0,0.4084,0,259.7835,260.2833,,,,,,332,MAS,NOWORD,AGR,150,erato,,el,,0.4084,,260.2833,260.2834,-0.009259259,-0.396296296,0,0,0,,0,135,135,331,1,éxito,,,,,
,,,,,,6025d40ede4e061f3c7ca877,676192165fb32c2e1fb7aee6,67d094550121946b70d710e9,2025-03-11_14h14.04.847,Tarea de decisión léxica,2024.2.5,Win32,59.88023952,,,,,,,,,,,,,,,,,,,,,,,260.2844,261.5166,a,1,0.5515,1,261.5172,262.0168,,,,,,467,MAS,WORD,AGR,150,piano,,el,,0.5515,,262.0187,262.0203,-0.009259259,-0.396296296,0,0,0,,0,136,136,466,1,peiso,,,,,
,,,,,,6025d40ede4e061f3c7ca877,676192165fb32c2e1fb7aee6,67d094550121946b70d710e9,2025-03-11_14h14.04.847,Tarea de decisión léxica,2024.2.5,Win32,59.88023952,,,,,,,,,,,,,,,,,,,,,,,262.0215,263.0667,a,0,0.3719,0,263.068,263.5669,,,,,,26,FEM,NOWORD,DIS,150,paza,,el,,0.3719,,263.567,263.5671,-0.009259259,-0.396296296,0,0,0,,0,137,137,25,1,cama,,,,,
,,,,,,6025d40ede4e061f3c7ca877,676192165fb32c2e1fb7aee6,67d094550121946b70d710e9,2025-03-11_14h14.04.847,Tarea de decisión léxica,2024.2.5,Win32,59.88023952,,,,,,,,,,,,,,,,,,,,,,,263.5689,264.7001,a,1,0.4515,1,264.7009,265.1998,,,,,,333,FEM,WORD,DIS,150,tarea,,el,,0.4515,,265.1998,265.1999,-0.009259259,-0.396296296,0,0,0,,0,138,138,332,1,dalea,,,,,
,,,,,,6025d40ede4e061f3c7ca877,676192165fb32c2e1fb7aee6,67d094550121946b70d710e9,2025-03-11_14h14.04.847,Tarea de decisión léxica,2024.2.5,Win32,59.88023952,,,,,,,,,,,,,,,,,,,,,,,265.2005,266.3001,a,0,0.4373,0,266.3011,266.7998,,,,,,132,FEM,NOWORD,AGR,150,fada,,la,,0.4373,,266.7998,266.8,-0.009259259,-0.396296296,0,0,0,,0,139,139,131,1,mina,,,,,
,,,,,,6025d40ede4e061f3c7ca877,676192165fb32c2e1fb7aee6,67d094550121946b70d710e9,2025-03-11_14h14.04.847,Tarea de decisión léxica,2024.2.5,Win32,59.88023952,,,,,,,,,,,,,,,,,,,,,,,266.8007,268.0002,l,0,0.5173,0,268.0003,268.4999,,,,,,449,FEM,WORD,DIS,150,pluma,,el,,0.5173,,268.5,268.5001,-0.009259259,-0.396296296,0,0,0,,0,140,140,448,1,crusa,,,,,
,,,,,,6025d40ede4e061f3c7ca877,676192165fb32c2e1fb7aee6,67d094550121946b70d710e9,2025-03-11_14h14.04.847,Tarea de decisión léxica,2024.2.5,Win32,59.88023952,,,,,,,,,,,,,,,,,,,,,,,268.5012,269.5165,l,1,0.3328,1,269.5174,270.0169,,,,,,350,MAS,NOWORD,DIS,150,cosir,,la,,0.3328,,270.0193,270.0212,-0.009259259,-0.396296296,0,0,0,,0,141,141,349,1,color,,,,,
,,,,,,6025d40ede4e061f3c7ca877,676192165fb32c2e1fb7aee6,67d094550121946b70d710e9,2025-03-11_14h14.04.847,Tarea de decisión léxica,2024.2.5,Win32,59.88023952,,,,,,,,,,,,,,,,,,,,,,,270.0221,271.1,l,1,0.4044,1,271.1002,271.6001,,,,,,246,FEM,NOWORD,DIS,150,pafle,,el,,0.4044,,271.6002,271.6003,-0.009259259,-0.396296296,0,0,0,,0,142,142,245,1,madre,,,,,
,,,,,,6025d40ede4e061f3c7ca877,676192165fb32c2e1fb7aee6,67d094550121946b70d710e9,2025-03-11_14h14.04.847,Tarea de decisión léxica,2024.2.5,Win32,59.88023952,,,,,,,,,,,,,,,,,,,,,,,271.602,272.5668,l,1,0.2925,1,272.5669,273.0668,,,,,,208,MAS,NOWORD,AGR,150,kedo,,el,,0.2925,,273.0669,273.0671,-0.009259259,-0.396296296,0,0,0,,0,143,143,207,1,kilo,,,,,
,,,,,,6025d40ede4e061f3c7ca877,676192165fb32c2e1fb7aee6,67d094550121946b70d710e9,2025-03-11_14h14.04.847,Tarea de decisión léxica,2024.2.5,Win32,59.88023952,,,,,,,,,,,,,,,,,,,,,,,273.0684,274.5667,a,1,0.8272,1,274.5668,275.0669,,,,,,365,FEM,WORD,DIS,150,ducha,,el,,0.8272,,275.067,275.0672,-0.009259259,-0.396296296,0,0,0,,0,144,144,364,1,gulla,,,,,
,,,,,,6025d40ede4e061f3c7ca877,676192165fb32c2e1fb7aee6,67d094550121946b70d710e9,2025-03-11_14h14.04.847,Tarea de decisión léxica,2024.2.5,Win32,59.88023952,,,,,,,,,,,,,,,,,,,,,,,275.0688,276.2002,l,1,0.4586,1,276.2003,276.7001,,,,,,438,FEM,NOWORD,DIS,150,glava,,el,,0.4586,,276.7001,276.7003,-0.009259259,-0.396296296,0,0,0,,0,145,145,437,1,plaza,,,,,
,,,,,,6025d40ede4e061f3c7ca877,676192165fb32c2e1fb7aee6,67d094550121946b70d710e9,2025-03-11_14h14.04.847,Tarea de decisión léxica,2024.2.5,Win32,59.88023952,,,,,,,,,,,,,,,,,,,,,,,276.7017,278.0832,a,1,0.7007,1,278.0832,278.5833,,,,,,329,MAS,WORD,DIS,150,hueso,,la,,0.7007,,278.5846,278.5862,-0.009259259,-0.396296296,0,0,0,,0,146,146,328,1,nueno,,,,,
,,,,,,6025d40ede4e061f3c7ca877,676192165fb32c2e1fb7aee6,67d094550121946b70d710e9,2025-03-11_14h14.04.847,Tarea de decisión léxica,2024.2.5,Win32,59.88023952,,,,,,,,,,,,,,,,,,,,,,,278.5875,279.8334,l,1,0.5674,1,279.8334,280.3335,,,,,,58,MAS,NOWORD,DIS,150,heco,,la,,0.5674,,280.3335,280.3338,-0.009259259,-0.396296296,0,0,0,,0,147,147,57,1,dedo,,,,,
,,,,,,6025d40ede4e061f3c7ca877,676192165fb32c2e1fb7aee6,67d094550121946b70d710e9,2025-03-11_14h14.04.847,Tarea de decisión léxica,2024.2.5,Win32,59.88023952,,,,,,,,,,,,,,,,,,,,,,,280.3355,281.5167,a,1,0.5014,1,281.5168,282.0169,,,,,,179,MAS,WORD,AGR,150,toro,,el,,0.5014,,282.017,282.0172,-0.009259259,-0.396296296,0,0,0,,0,148,148,178,1,sono,,,,,
,,,,,,6025d40ede4e061f3c7ca877,676192165fb32c2e1fb7aee6,67d094550121946b70d710e9,2025-03-11_14h14.04.847,Tarea de decisión léxica,2024.2.5,Win32,59.88023952,,,,,,,,,,,,,,,,,,,,,,,282.0192,283.2999,a,1,0.6054,1,283.3,283.8003,,,,,,323,FEM,WORD,DIS,150,cinta,,el,,0.6054,,283.8004,283.8005,-0.009259259,-0.396296296,0,0,0,,0,149,149,322,1,certa,,,,,
,,,,,,6025d40ede4e061f3c7ca877,676192165fb32c2e1fb7aee6,67d094550121946b70d710e9,2025-03-11_14h14.04.847,Tarea de decisión léxica,2024.2.5,Win32,59.88023952,,,,,,,,,,,,,,,,,,,,,,,283.8019,285.1003,l,1,0.6177,1,285.1004,285.6002,,,,,,194,FEM,NOWORD,DIS,150,foda,,el,,0.6177,,285.6002,285.6004,-0.009259259,-0.396296296,0,0,0,,0,150,150,193,1,loca,,,,,
,,,,,,6025d40ede4e061f3c7ca877,676192165fb32c2e1fb7aee6,67d094550121946b70d710e9,2025-03-11_14h14.04.847,Tarea de decisión léxica,2024.2.5,Win32,59.88023952,,,,,,,,,,,,,,,,,,,,,,,285.602,286.7177,a,1,0.4462,1,286.7178,287.2165,,,,,,89,MAS,WORD,DIS,150,humo,,la,,0.4462,,287.2173,287.2184,-0.009259259,-0.396296296,0,0,0,,0,151,151,88,1,guso,,,,,
,,,,,,6025d40ede4e061f3c7ca877,676192165fb32c2e1fb7aee6,67d094550121946b70d710e9,2025-03-11_14h14.04.847,Tarea de decisión léxica,2024.2.5,Win32,59.88023952,,,,,,,,,,,,,,,,,,,,,,,287.2197,288.4335,a,1,0.5407,1,288.4336,288.9336,,,,,,171,MAS,WORD,AGR,150,hilo,,el,,0.5407,,288.9336,288.934,-0.009259259,-0.396296296,0,0,0,,0,152,152,170,1,niro,,,,,
,,,,,,6025d40ede4e061f3c7ca877,676192165fb32c2e1fb7aee6,67d094550121946b70d710e9,2025-03-11_14h14.04.847,Tarea de decisión léxica,2024.2.5,Win32,59.88023952,,,,,,,,,,,,,,,,,,,,,,,288.9358,290.2666,a,0,0.6498,0,290.2674,290.7667,,,,,,282,MAS,NOWORD,DIS,150,cauro,,la,,0.6498,,290.7669,290.767,-0.009259259,-0.396296296,0,0,0,,0,153,153,281,1,cielo,,,,,
,,,,,,6025d40ede4e061f3c7ca877,676192165fb32c2e1fb7aee6,67d094550121946b70d710e9,2025-03-11_14h14.04.847,Tarea de decisión léxica,2024.2.5,Win32,59.88023952,,,,,,,,,,,,,,,,,,,,,,,290.7689,292.0333,a,1,0.5899,1,292.0344,292.5334,,,,,,289,FEM,WORD,AGR,150,bomba,,la,,0.5899,,292.5336,292.5337,-0.009259259,-0.396296296,0,0,0,,0,154,154,288,1,bumpa,,,,,
,,,,,,6025d40ede4e061f3c7ca877,676192165fb32c2e1fb7aee6,67d094550121946b70d710e9,2025-03-11_14h14.04.847,Tarea de decisión léxica,2024.2.5,Win32,59.88023952,,,,,,,,,,,,,,,,,,,,,,,292.5354,293.9499,a,1,0.743,1,293.9499,294.4506,,,,,,373,FEM,WORD,DIS,150,pizza,,el,,0.743,,294.4526,294.4544,-0.009259259,-0.396296296,0,0,0,,0,155,155,372,1,pogza,,,,,
,,,,,,6025d40ede4e061f3c7ca877,676192165fb32c2e1fb7aee6,67d094550121946b70d710e9,2025-03-11_14h14.04.847,Tarea de decisión léxica,2024.2.5,Win32,59.88023952,,,,,,,,,,,,,,,,,,,,,,,294.4555,295.5499,l,1,0.4221,1,295.55,296.0502,,,,,,426,FEM,NOWORD,DIS,150,virca,,el,,0.4221,,296.0502,296.0504,-0.009259259,-0.396296296,0,0,0,,0,156,156,425,1,viuda,,,,,
,,,,,,6025d40ede4e061f3c7ca877,676192165fb32c2e1fb7aee6,67d094550121946b70d710e9,2025-03-11_14h14.04.847,Tarea de decisión léxica,2024.2.5,Win32,59.88023952,,,,,,,,,,,,,,,,,,,,,,,296.0517,297.2169,a,1,0.491,1,297.217,297.7169,,,,,,363,FEM,WORD,AGR,150,deuda,,la,,0.491,,297.717,297.7171,-0.009259259,-0.396296296,0,0,0,,0,157,157,362,1,veida,,,,,
,,,,,,6025d40ede4e061f3c7ca877,676192165fb32c2e1fb7aee6,67d094550121946b70d710e9,2025-03-11_14h14.04.847,Tarea de decisión léxica,2024.2.5,Win32,59.88023952,,,,,,,,,,,,,,,,,,,,,,,297.719,298.8,l,1,0.4082,1,298.8002,299.2999,,,,,,216,FEM,NOWORD,AGR,150,raua,,la,,0.4082,,299.2999,299.3,-0.009259259,-0.396296296,0,0,0,,0,158,158,215,1,raíz,,,,,
,,,,,,6025d40ede4e061f3c7ca877,676192165fb32c2e1fb7aee6,67d094550121946b70d710e9,2025-03-11_14h14.04.847,Tarea de decisión léxica,2024.2.5,Win32,59.88023952,,,,,,,,,,,,,,,,,,,,,,,299.3007,300.5333,a,1,0.5544,1,300.5334,301.0336,,,,,,403,FEM,WORD,DIS,150,prima,,el,,0.5544,,301.0336,301.0339,-0.009259259,-0.396296296,0,0,0,,0,159,159,402,1,grisa,,,,,
,,,,,,6025d40ede4e061f3c7ca877,676192165fb32c2e1fb7aee6,67d094550121946b70d710e9,2025-03-11_14h14.04.847,Tarea de decisión léxica,2024.2.5,Win32,59.88023952,,,,,,,,,,,,,,,,,,,,,,,301.0357,302.1665,l,1,0.4589,1,302.1666,302.6669,,,,,,430,FEM,NOWORD,DIS,150,tenta,,el,,0.4589,,302.6684,391.6169,0.230555556,-0.386111111,0,0,0,space,0,160,160,429,1,tarta,88.9354,,,,
,,,,,,6025d40ede4e061f3c7ca877,676192165fb32c2e1fb7aee6,67d094550121946b70d710e9,2025-03-11_14h14.04.847,Tarea de decisión léxica,2024.2.5,Win32,59.88023952,,,,,,,,,,,,,,,,,,,,,,,391.6185,394.0335,l,1,1.7348,1,394.0336,394.5334,,,,,,82,FEM,NOWORD,DIS,150,vasa,,el,,1.7348,,394.5335,394.5337,0.230555556,-0.386111111,0,0,0,,0,161,161,81,1,dama,,,,,
,,,,,,6025d40ede4e061f3c7ca877,676192165fb32c2e1fb7aee6,67d094550121946b70d710e9,2025-03-11_14h14.04.847,Tarea de decisión léxica,2024.2.5,Win32,59.88023952,,,,,,,,,,,,,,,,,,,,,,,394.5355,395.6664,a,1,0.4545,1,395.6665,396.1668,,,,,,257,FEM,WORD,DIS,150,amiga,,el,,0.4545,,396.1669,396.1672,0.230555556,-0.386111111,0,0,0,,0,162,162,256,1,asama,,,,,
,,,,,,6025d40ede4e061f3c7ca877,676192165fb32c2e1fb7aee6,67d094550121946b70d710e9,2025-03-11_14h14.04.847,Tarea de decisión léxica,2024.2.5,Win32,59.88023952,,,,,,,,,,,,,,,,,,,,,,,396.1689,397.4334,l,1,0.5901,1,397.4335,397.9335,,,,,,370,MAS,NOWORD,DIS,150,rioco,,la,,0.5901,,397.9336,397.9338,0.230555556,-0.386111111,0,0,0,,0,163,163,369,1,ruido,,,,,
,,,,,,6025d40ede4e061f3c7ca877,676192165fb32c2e1fb7aee6,67d094550121946b70d710e9,2025-03-11_14h14.04.847,Tarea de decisión léxica,2024.2.5,Win32,59.88023952,,,,,,,,,,,,,,,,,,,,,,,397.9359,399.0502,l,0,0.4341,0,399.051,399.5502,,,,,,301,FEM,WORD,DIS,150,banda,,el,,0.4341,,399.5502,399.5506,0.230555556,-0.386111111,0,0,0,,0,164,164,300,1,ranga,,,,,
,,,,,,6025d40ede4e061f3c7ca877,676192165fb32c2e1fb7aee6,67d094550121946b70d710e9,2025-03-11_14h14.04.847,Tarea de decisión léxica,2024.2.5,Win32,59.88023952,,,,,,,,,,,,,,,,,,,,,,,399.5523,400.7331,l,1,0.5029,1,400.734,401.2336,,,,,,290,FEM,NOWORD,DIS,150,bumpa,,el,,0.5029,,401.2356,401.2373,0.230555556,-0.386111111,0,0,0,,0,165,165,289,1,bomba,,,,,
,,,,,,6025d40ede4e061f3c7ca877,676192165fb32c2e1fb7aee6,67d094550121946b70d710e9,2025-03-11_14h14.04.847,Tarea de decisión léxica,2024.2.5,Win32,59.88023952,,,,,,,,,,,,,,,,,,,,,,,401.2383,402.3665,a,1,0.4527,1,402.3667,402.8666,,,,,,303,MAS,WORD,DIS,150,barco,,la,,0.4527,,402.8668,402.8668,0.230555556,-0.386111111,0,0,0,,0,166,166,302,1,lanco,,,,,
,,,,,,6025d40ede4e061f3c7ca877,676192165fb32c2e1fb7aee6,67d094550121946b70d710e9,2025-03-11_14h14.04.847,Tarea de decisión léxica,2024.2.5,Win32,59.88023952,,,,,,,,,,,,,,,,,,,,,,,402.8681,403.8833,a,1,0.3398,1,403.8834,404.3834,,,,,,93,FEM,WORD,AGR,150,bola,,la,,0.3398,,404.3834,404.3836,0.230555556,-0.386111111,0,0,0,,0,167,167,92,1,rona,,,,,
,,,,,,6025d40ede4e061f3c7ca877,676192165fb32c2e1fb7aee6,67d094550121946b70d710e9,2025-03-11_14h14.04.847,Tarea de decisión léxica,2024.2.5,Win32,59.88023952,,,,,,,,,,,,,,,,,,,,,,,404.3855,405.5499,l,1,0.4872,1,405.5501,406.0502,,,,,,448,MAS,NOWORD,AGR,150,buaso,,el,,0.4872,,406.0502,406.0504,0.230555556,-0.386111111,0,0,0,,0,168,168,447,1,bolso,,,,,
,,,,,,6025d40ede4e061f3c7ca877,676192165fb32c2e1fb7aee6,67d094550121946b70d710e9,2025-03-11_14h14.04.847,Tarea de decisión léxica,2024.2.5,Win32,59.88023952,,,,,,,,,,,,,,,,,,,,,,,406.0521,407.4167,l,1,0.6917,1,407.4169,407.9167,,,,,,312,MAS,NOWORD,AGR,150,nosor,,el,,0.6917,,407.9169,407.917,0.230555556,-0.386111111,0,0,0,,0,169,169,311,1,honor,,,,,
,,,,,,6025d40ede4e061f3c7ca877,676192165fb32c2e1fb7aee6,67d094550121946b70d710e9,2025-03-11_14h14.04.847,Tarea de decisión léxica,2024.2.5,Win32,59.88023952,,,,,,,,,,,,,,,,,,,,,,,407.9184,409.0665,a,1,0.4718,1,409.0665,409.5667,,,,,,205,FEM,WORD,AGR,150,rana,,la,,0.4718,,409.5679,409.5694,0.230555556,-0.386111111,0,0,0,,0,170,170,204,1,bara,,,,,
,,,,,,6025d40ede4e061f3c7ca877,676192165fb32c2e1fb7aee6,67d094550121946b70d710e9,2025-03-11_14h14.04.847,Tarea de decisión léxica,2024.2.5,Win32,59.88023952,,,,,,,,,,,,,,,,,,,,,,,409.5708,410.9004,l,1,0.6512,1,410.9004,411.4,,,,,,356,FEM,NOWORD,AGR,150,bepla,,la,,0.6512,,411.4,411.4002,0.230555556,-0.386111111,0,0,0,,0,171,171,355,1,regla,,,,,
,,,,,,6025d40ede4e061f3c7ca877,676192165fb32c2e1fb7aee6,67d094550121946b70d710e9,2025-03-11_14h14.04.847,Tarea de decisión léxica,2024.2.5,Win32,59.88023952,,,,,,,,,,,,,,,,,,,,,,,411.4015,412.7332,l,1,0.6507,1,412.7334,413.2334,,,,,,104,FEM,NOWORD,AGR,150,rova,,la,,0.6507,,413.2335,413.2337,0.230555556,-0.386111111,0,0,0,,0,172,172,103,1,ruta,,,,,
,,,,,,6025d40ede4e061f3c7ca877,676192165fb32c2e1fb7aee6,67d094550121946b70d710e9,2025-03-11_14h14.04.847,Tarea de decisión léxica,2024.2.5,Win32,59.88023952,,,,,,,,,,,,,,,,,,,,,,,413.2352,414.5501,l,1,0.6435,1,414.5501,415.0502,,,,,,348,FEM,NOWORD,AGR,150,mueza,,la,,0.6435,,415.0502,415.0504,0.230555556,-0.386111111,0,0,0,,0,173,173,347,1,pieza,,,,,
,,,,,,6025d40ede4e061f3c7ca877,676192165fb32c2e1fb7aee6,67d094550121946b70d710e9,2025-03-11_14h14.04.847,Tarea de decisión léxica,2024.2.5,Win32,59.88023952,,,,,,,,,,,,,,,,,,,,,,,415.0524,416.2168,a,1,0.4829,1,416.217,416.7167,,,,,,415,FEM,WORD,DIS,150,jaula,,el,,0.4829,,416.7169,416.717,0.230555556,-0.386111111,0,0,0,,0,174,174,414,1,juira,,,,,
,,,,,,6025d40ede4e061f3c7ca877,676192165fb32c2e1fb7aee6,67d094550121946b70d710e9,2025-03-11_14h14.04.847,Tarea de decisión léxica,2024.2.5,Win32,59.88023952,,,,,,,,,,,,,,,,,,,,,,,416.7182,417.8334,a,1,0.44,1,417.8335,418.3334,,,,,,35,MAS,WORD,DIS,150,pelo,,la,,0.44,,418.3347,418.3359,0.230555556,-0.386111111,0,0,0,,0,175,175,34,1,meno,,,,,
,,,,,,6025d40ede4e061f3c7ca877,676192165fb32c2e1fb7aee6,67d094550121946b70d710e9,2025-03-11_14h14.04.847,Tarea de decisión léxica,2024.2.5,Win32,59.88023952,,,,,,,,,,,,,,,,,,,,,,,418.3374,419.3332,l,1,0.3269,1,419.3333,419.8332,,,,,,480,MAS,NOWORD,AGR,150,rimpo,,el,,0.3269,,419.8333,419.8334,0.230555556,-0.386111111,0,0,0,,0,176,176,479,1,rumbo,,,,,
,,,,,,6025d40ede4e061f3c7ca877,676192165fb32c2e1fb7aee6,67d094550121946b70d710e9,2025-03-11_14h14.04.847,Tarea de decisión léxica,2024.2.5,Win32,59.88023952,,,,,,,,,,,,,,,,,,,,,,,419.8343,421.0168,l,1,0.5007,1,421.0169,421.5168,,,,,,138,MAS,NOWORD,DIS,150,pamo,,la,,0.5007,,421.5169,421.517,0.230555556,-0.386111111,0,0,0,,0,177,177,137,1,nene,,,,,
,,,,,,6025d40ede4e061f3c7ca877,676192165fb32c2e1fb7aee6,67d094550121946b70d710e9,2025-03-11_14h14.04.847,Tarea de decisión léxica,2024.2.5,Win32,59.88023952,,,,,,,,,,,,,,,,,,,,,,,421.5189,422.7341,a,1,0.546,1,422.7343,423.2336,,,,,,45,FEM,WORD,AGR,150,mesa,,la,,0.546,,423.2336,423.2338,0.230555556,-0.386111111,0,0,0,,0,178,178,44,1,pema,,,,,
,,,,,,6025d40ede4e061f3c7ca877,676192165fb32c2e1fb7aee6,67d094550121946b70d710e9,2025-03-11_14h14.04.847,Tarea de decisión léxica,2024.2.5,Win32,59.88023952,,,,,,,,,,,,,,,,,,,,,,,423.2354,424.45,l,0,0.534,0,424.451,424.9501,,,,,,343,FEM,WORD,DIS,150,plata,,el,,0.534,,424.9519,424.9539,0.230555556,-0.386111111,0,0,0,,0,179,179,342,1,trada,,,,,
,,,,,,6025d40ede4e061f3c7ca877,676192165fb32c2e1fb7aee6,67d094550121946b70d710e9,2025-03-11_14h14.04.847,Tarea de decisión léxica,2024.2.5,Win32,59.88023952,,,,,,,,,,,,,,,,,,,,,,,424.9549,426.0166,a,1,0.3832,1,426.0174,426.5167,,,,,,11,MAS,WORD,AGR,150,lado,,el,,0.3832,,426.5168,426.5169,0.230555556,-0.386111111,0,0,0,,0,180,180,10,1,bapo,,,,,
,,,,,,6025d40ede4e061f3c7ca877,676192165fb32c2e1fb7aee6,67d094550121946b70d710e9,2025-03-11_14h14.04.847,Tarea de decisión léxica,2024.2.5,Win32,59.88023952,,,,,,,,,,,,,,,,,,,,,,,426.5181,428.0498,l,1,0.8552,1,428.0499,428.55,,,,,,318,FEM,NOWORD,DIS,150,plaad,,el,,0.8552,,428.5501,428.5501,0.230555556,-0.386111111,0,0,0,,0,181,181,317,1,playa,,,,,
,,,,,,6025d40ede4e061f3c7ca877,676192165fb32c2e1fb7aee6,67d094550121946b70d710e9,2025-03-11_14h14.04.847,Tarea de decisión léxica,2024.2.5,Win32,59.88023952,,,,,,,,,,,,,,,,,,,,,,,428.5512,429.7664,l,1,0.5358,1,429.7664,430.2668,,,,,,442,FEM,NOWORD,DIS,150,telza,,el,,0.5358,,430.2669,430.2673,0.230555556,-0.386111111,0,0,0,,0,182,182,441,1,selva,,,,,
,,,,,,6025d40ede4e061f3c7ca877,676192165fb32c2e1fb7aee6,67d094550121946b70d710e9,2025-03-11_14h14.04.847,Tarea de decisión léxica,2024.2.5,Win32,59.88023952,,,,,,,,,,,,,,,,,,,,,,,430.269,431.3664,a,1,0.4255,1,431.3665,431.867,,,,,,337,MAS,WORD,DIS,150,huevo,,la,,0.4255,,431.867,431.8672,0.230555556,-0.386111111,0,0,0,,0,183,183,336,1,nuejo,,,,,
,,,,,,6025d40ede4e061f3c7ca877,676192165fb32c2e1fb7aee6,67d094550121946b70d710e9,2025-03-11_14h14.04.847,Tarea de decisión léxica,2024.2.5,Win32,59.88023952,,,,,,,,,,,,,,,,,,,,,,,431.8688,432.9333,l,1,0.388,1,432.9334,433.4335,,,,,,408,FEM,NOWORD,AGR,150,cauba,,la,,0.388,,433.4355,433.4372,0.230555556,-0.386111111,0,0,0,,0,184,184,407,1,cueva,,,,,
,,,,,,6025d40ede4e061f3c7ca877,676192165fb32c2e1fb7aee6,67d094550121946b70d710e9,2025-03-11_14h14.04.847,Tarea de decisión léxica,2024.2.5,Win32,59.88023952,,,,,,,,,,,,,,,,,,,,,,,433.4384,434.4334,l,1,0.3236,1,434.4335,434.9334,,,,,,386,FEM,NOWORD,DIS,150,febra,,el,,0.3236,,434.9335,434.9339,0.230555556,-0.386111111,0,0,0,,0,185,185,385,1,letra,,,,,
,,,,,,6025d40ede4e061f3c7ca877,676192165fb32c2e1fb7aee6,67d094550121946b70d710e9,2025-03-11_14h14.04.847,Tarea de decisión léxica,2024.2.5,Win32,59.88023952,,,,,,,,,,,,,,,,,,,,,,,434.9354,436.0173,l,1,0.4002,1,436.0173,436.5169,,,,,,410,MAS,NOWORD,DIS,150,pafro,,la,,0.4002,,436.517,436.5172,0.230555556,-0.386111111,0,0,0,,0,186,186,409,1,carro,,,,,
,,,,,,6025d40ede4e061f3c7ca877,676192165fb32c2e1fb7aee6,67d094550121946b70d710e9,2025-03-11_14h14.04.847,Tarea de decisión léxica,2024.2.5,Win32,59.88023952,,,,,,,,,,,,,,,,,,,,,,,436.5197,437.4999,l,0,0.3038,0,437.5009,438.0001,,,,,,331,MAS,WORD,AGR,150,éxito,,el,,0.3038,,438.0002,438.0006,0.230555556,-0.386111111,0,0,0,,0,187,187,330,1,erato,,,,,
,,,,,,6025d40ede4e061f3c7ca877,676192165fb32c2e1fb7aee6,67d094550121946b70d710e9,2025-03-11_14h14.04.847,Tarea de decisión léxica,2024.2.5,Win32,59.88023952,,,,,,,,,,,,,,,,,,,,,,,438.0023,439.0667,l,0,0.384,0,439.0668,439.5666,,,,,,251,MAS,WORD,AGR,150,señor,,el,,0.384,,439.5667,439.567,0.230555556,-0.386111111,0,0,0,,0,188,188,250,1,refor,,,,,
,,,,,,6025d40ede4e061f3c7ca877,676192165fb32c2e1fb7aee6,67d094550121946b70d710e9,2025-03-11_14h14.04.847,Tarea de decisión léxica,2024.2.5,Win32,59.88023952,,,,,,,,,,,,,,,,,,,,,,,439.5684,440.6666,a,1,0.4225,1,440.6677,441.1667,,,,,,453,FEM,WORD,DIS,150,mafia,,el,,0.4225,,441.1686,441.1704,0.230555556,-0.386111111,0,0,0,,0,189,189,452,1,pafia,,,,,
,,,,,,6025d40ede4e061f3c7ca877,676192165fb32c2e1fb7aee6,67d094550121946b70d710e9,2025-03-11_14h14.04.847,Tarea de decisión léxica,2024.2.5,Win32,59.88023952,,,,,,,,,,,,,,,,,,,,,,,441.1714,442.2001,l,0,0.3595,0,442.2012,442.7,,,,,,73,MAS,WORD,AGR,150,odio,,el,,0.3595,,442.7,442.7002,0.230555556,-0.386111111,0,0,0,,0,190,190,72,1,omio,,,,,
,,,,,,6025d40ede4e061f3c7ca877,676192165fb32c2e1fb7aee6,67d094550121946b70d710e9,2025-03-11_14h14.04.847,Tarea de decisión léxica,2024.2.5,Win32,59.88023952,,,,,,,,,,,,,,,,,,,,,,,442.7015,443.7666,a,1,0.3934,1,443.7675,444.2666,,,,,,259,MAS,WORD,DIS,150,juego,,la,,0.3934,,444.2667,444.2669,0.230555556,-0.386111111,0,0,0,,0,191,191,258,1,jaumo,,,,,
,,,,,,6025d40ede4e061f3c7ca877,676192165fb32c2e1fb7aee6,67d094550121946b70d710e9,2025-03-11_14h14.04.847,Tarea de decisión léxica,2024.2.5,Win32,59.88023952,,,,,,,,,,,,,,,,,,,,,,,444.269,445.4169,a,1,0.4745,1,445.417,445.9167,,,,,,233,FEM,WORD,AGR,150,lana,,la,,0.4745,,445.9168,445.9169,0.230555556,-0.386111111,0,0,0,,0,192,192,232,1,fasa,,,,,
,,,,,,6025d40ede4e061f3c7ca877,676192165fb32c2e1fb7aee6,67d094550121946b70d710e9,2025-03-11_14h14.04.847,Tarea de decisión léxica,2024.2.5,Win32,59.88023952,,,,,,,,,,,,,,,,,,,,,,,445.9181,446.9833,a,0,0.3921,0,446.9841,447.4835,,,,,,102,MAS,NOWORD,DIS,150,gito,,la,,0.3921,,447.4835,447.4839,0.230555556,-0.386111111,0,0,0,,0,193,193,101,1,tono,,,,,
,,,,,,6025d40ede4e061f3c7ca877,676192165fb32c2e1fb7aee6,67d094550121946b70d710e9,2025-03-11_14h14.04.847,Tarea de decisión léxica,2024.2.5,Win32,59.88023952,,,,,,,,,,,,,,,,,,,,,,,447.4856,448.7331,a,1,0.5711,1,448.7339,449.2333,,,,,,49,FEM,WORD,DIS,150,edad,,el,,0.5711,,449.2346,449.2357,0.230555556,-0.386111111,0,0,0,,0,194,194,48,1,ecat,,,,,
,,,,,,6025d40ede4e061f3c7ca877,676192165fb32c2e1fb7aee6,67d094550121946b70d710e9,2025-03-11_14h14.04.847,Tarea de decisión léxica,2024.2.5,Win32,59.88023952,,,,,,,,,,,,,,,,,,,,,,,449.2369,450.3168,a,1,0.4,1,450.317,450.8168,,,,,,163,FEM,WORD,AGR,150,fama,,la,,0.4,,450.8168,450.817,0.230555556,-0.386111111,0,0,0,,0,195,195,162,1,laga,,,,,
,,,,,,6025d40ede4e061f3c7ca877,676192165fb32c2e1fb7aee6,67d094550121946b70d710e9,2025-03-11_14h14.04.847,Tarea de decisión léxica,2024.2.5,Win32,59.88023952,,,,,,,,,,,,,,,,,,,,,,,450.8192,451.9176,l,0,0.4281,0,451.9188,452.4171,,,,,,39,MAS,WORD,DIS,150,voto,,la,,0.4281,,452.4172,452.4174,0.230555556,-0.386111111,0,0,0,,0,196,196,38,1,redo,,,,,
,,,,,,6025d40ede4e061f3c7ca877,676192165fb32c2e1fb7aee6,67d094550121946b70d710e9,2025-03-11_14h14.04.847,Tarea de decisión léxica,2024.2.5,Win32,59.88023952,,,,,,,,,,,,,,,,,,,,,,,452.4191,453.5665,a,1,0.4724,1,453.5671,454.0669,,,,,,71,FEM,WORD,DIS,150,isla,,el,,0.4724,,454.067,454.0671,0.230555556,-0.386111111,0,0,0,,0,197,197,70,1,urla,,,,,
,,,,,,6025d40ede4e061f3c7ca877,676192165fb32c2e1fb7aee6,67d094550121946b70d710e9,2025-03-11_14h14.04.847,Tarea de decisión léxica,2024.2.5,Win32,59.88023952,,,,,,,,,,,,,,,,,,,,,,,454.0689,455.4169,l,1,0.668,1,455.417,455.9167,,,,,,346,FEM,NOWORD,DIS,150,anera,,el,,0.668,,455.9169,455.917,0.230555556,-0.386111111,0,0,0,,0,198,198,345,1,arena,,,,,
,,,,,,6025d40ede4e061f3c7ca877,676192165fb32c2e1fb7aee6,67d094550121946b70d710e9,2025-03-11_14h14.04.847,Tarea de decisión léxica,2024.2.5,Win32,59.88023952,,,,,,,,,,,,,,,,,,,,,,,455.9181,457.1166,l,1,0.5208,1,457.1167,457.6167,,,,,,398,FEM,NOWORD,DIS,150,trigi,,el,,0.5208,,457.618,457.6195,0.230555556,-0.386111111,0,0,0,,0,199,199,397,1,tribu,,,,,
,,,,,,6025d40ede4e061f3c7ca877,676192165fb32c2e1fb7aee6,67d094550121946b70d710e9,2025-03-11_14h14.04.847,Tarea de decisión léxica,2024.2.5,Win32,59.88023952,,,,,,,,,,,,,,,,,,,,,,,457.6207,458.7001,l,1,0.4002,1,458.7002,459.1997,,,,,,204,FEM,NOWORD,AGR,150,beja,,la,,0.4002,,459.1997,459.1998,0.230555556,-0.386111111,0,0,0,,0,200,200,203,1,leña,,,,,
,,,,,,6025d40ede4e061f3c7ca877,676192165fb32c2e1fb7aee6,67d094550121946b70d710e9,2025-03-11_14h14.04.847,Tarea de decisión léxica,2024.2.5,Win32,59.88023952,,,,,,,,,,,,,,,,,,,,,,,459.2006,460.3165,a,1,0.4354,1,460.3165,460.8168,,,,,,111,MAS,WORD,DIS,150,muro,,la,,0.4354,,460.8169,460.8171,0.230555556,-0.386111111,0,0,0,,0,201,201,110,1,siro,,,,,
,,,,,,6025d40ede4e061f3c7ca877,676192165fb32c2e1fb7aee6,67d094550121946b70d710e9,2025-03-11_14h14.04.847,Tarea de decisión léxica,2024.2.5,Win32,59.88023952,,,,,,,,,,,,,,,,,,,,,,,460.8187,461.983,l,1,0.4928,1,461.983,462.4832,,,,,,372,FEM,NOWORD,AGR,150,mosta,,la,,0.4928,,462.4833,462.4834,0.230555556,-0.386111111,0,0,0,,0,202,202,371,1,pasta,,,,,
,,,,,,6025d40ede4e061f3c7ca877,676192165fb32c2e1fb7aee6,67d094550121946b70d710e9,2025-03-11_14h14.04.847,Tarea de decisión léxica,2024.2.5,Win32,59.88023952,,,,,,,,,,,,,,,,,,,,,,,462.4845,463.7,l,1,0.5383,1,463.7001,464.2,,,,,,394,FEM,NOWORD,DIS,150,ashea,,el,,0.5383,,464.2018,464.2034,0.230555556,-0.386111111,0,0,0,,0,203,203,393,1,aldea,,,,,
,,,,,,6025d40ede4e061f3c7ca877,676192165fb32c2e1fb7aee6,67d094550121946b70d710e9,2025-03-11_14h14.04.847,Tarea de decisión léxica,2024.2.5,Win32,59.88023952,,,,,,,,,,,,,,,,,,,,,,,464.2044,465.6334,l,1,0.7504,1,465.6335,466.1334,,,,,,366,FEM,NOWORD,DIS,150,gulla,,el,,0.7504,,466.1335,466.1336,0.230555556,-0.386111111,0,0,0,,0,204,204,365,1,ducha,,,,,
,,,,,,6025d40ede4e061f3c7ca877,676192165fb32c2e1fb7aee6,67d094550121946b70d710e9,2025-03-11_14h14.04.847,Tarea de decisión léxica,2024.2.5,Win32,59.88023952,,,,,,,,,,,,,,,,,,,,,,,466.1362,467.3331,l,1,0.521,1,467.3332,467.8334,,,,,,70,FEM,NOWORD,DIS,150,ñola,,el,,0.521,,467.8335,467.8339,0.230555556,-0.386111111,0,0,0,,0,205,205,69,1,zona,,,,,
,,,,,,6025d40ede4e061f3c7ca877,676192165fb32c2e1fb7aee6,67d094550121946b70d710e9,2025-03-11_14h14.04.847,Tarea de decisión léxica,2024.2.5,Win32,59.88023952,,,,,,,,,,,,,,,,,,,,,,,467.8359,468.9501,a,1,0.4439,1,468.9501,469.4502,,,,,,87,MAS,WORD,AGR,150,vaso,,el,,0.4439,,469.4502,469.4505,0.230555556,-0.386111111,0,0,0,,0,206,206,86,1,damo,,,,,
,,,,,,6025d40ede4e061f3c7ca877,676192165fb32c2e1fb7aee6,67d094550121946b70d710e9,2025-03-11_14h14.04.847,Tarea de decisión léxica,2024.2.5,Win32,59.88023952,,,,,,,,,,,,,,,,,,,,,,,469.4522,470.7665,a,1,0.6353,1,470.7666,471.2667,,,,,,3,FEM,WORD,DIS,150,vida,,el,,0.6353,,471.2668,471.2669,0.230555556,-0.386111111,0,0,0,,0,207,207,2,1,dica,,,,,
,,,,,,6025d40ede4e061f3c7ca877,676192165fb32c2e1fb7aee6,67d094550121946b70d710e9,2025-03-11_14h14.04.847,Tarea de decisión léxica,2024.2.5,Win32,59.88023952,,,,,,,,,,,,,,,,,,,,,,,471.2686,472.3833,l,1,0.4348,1,472.3834,472.8836,,,,,,84,FEM,NOWORD,AGR,150,taga,,la,,0.4348,,472.8856,472.8873,0.230555556,-0.386111111,0,0,0,,0,208,208,83,1,bala,,,,,
,,,,,,6025d40ede4e061f3c7ca877,676192165fb32c2e1fb7aee6,67d094550121946b70d710e9,2025-03-11_14h14.04.847,Tarea de decisión léxica,2024.2.5,Win32,59.88023952,,,,,,,,,,,,,,,,,,,,,,,472.888,474.1834,a,1,0.6184,1,474.1835,474.6834,,,,,,181,FEM,WORD,DIS,150,seda,,el,,0.6184,,474.6835,474.6839,0.230555556,-0.386111111,0,0,0,,0,209,209,180,1,teda,,,,,
,,,,,,6025d40ede4e061f3c7ca877,676192165fb32c2e1fb7aee6,67d094550121946b70d710e9,2025-03-11_14h14.04.847,Tarea de decisión léxica,2024.2.5,Win32,59.88023952,,,,,,,,,,,,,,,,,,,,,,,474.6853,475.7835,l,1,0.4259,1,475.7836,476.2833,,,,,,340,MAS,NOWORD,AGR,150,plajo,,el,,0.4259,,476.2834,476.2836,0.230555556,-0.386111111,0,0,0,,0,210,210,339,1,brazo,,,,,
,,,,,,6025d40ede4e061f3c7ca877,676192165fb32c2e1fb7aee6,67d094550121946b70d710e9,2025-03-11_14h14.04.847,Tarea de decisión léxica,2024.2.5,Win32,59.88023952,,,,,,,,,,,,,,,,,,,,,,,476.2848,477.7666,a,1,0.8094,1,477.7666,478.2666,,,,,,147,FEM,WORD,AGR,150,hoja,,la,,0.8094,,478.2667,478.2668,0.230555556,-0.386111111,0,0,0,,0,211,211,146,1,pama,,,,,
,,,,,,6025d40ede4e061f3c7ca877,676192165fb32c2e1fb7aee6,67d094550121946b70d710e9,2025-03-11_14h14.04.847,Tarea de decisión léxica,2024.2.5,Win32,59.88023952,,,,,,,,,,,,,,,,,,,,,,,478.2682,479.4332,l,1,0.4902,1,479.4333,479.9334,,,,,,462,FEM,NOWORD,DIS,150,pagra,,el,,0.4902,,479.9335,479.9336,0.230555556,-0.386111111,0,0,0,,0,212,212,461,1,tabla,,,,,
,,,,,,6025d40ede4e061f3c7ca877,676192165fb32c2e1fb7aee6,67d094550121946b70d710e9,2025-03-11_14h14.04.847,Tarea de decisión léxica,2024.2.5,Win32,59.88023952,,,,,,,,,,,,,,,,,,,,,,,479.9351,481.1667,a,1,0.5532,1,481.1668,481.6668,,,,,,255,MAS,WORD,AGR,150,miedo,,el,,0.5532,,481.6691,481.6711,0.230555556,-0.386111111,0,0,0,,0,213,213,254,1,mauco,,,,,
,,,,,,6025d40ede4e061f3c7ca877,676192165fb32c2e1fb7aee6,67d094550121946b70d710e9,2025-03-11_14h14.04.847,Tarea de decisión léxica,2024.2.5,Win32,59.88023952,,,,,,,,,,,,,,,,,,,,,,,481.6719,482.75,l,1,0.4037,1,482.75,483.25,,,,,,328,MAS,NOWORD,AGR,150,lendo,,el,,0.4037,,483.2502,483.2504,0.230555556,-0.386111111,0,0,0,,0,214,214,327,1,fondo,,,,,
,,,,,,6025d40ede4e061f3c7ca877,676192165fb32c2e1fb7aee6,67d094550121946b70d710e9,2025-03-11_14h14.04.847,Tarea de decisión léxica,2024.2.5,Win32,59.88023952,,,,,,,,,,,,,,,,,,,,,,,483.2521,484.3332,l,1,0.4041,1,484.3332,484.8334,,,,,,92,FEM,NOWORD,AGR,150,sava,,la,,0.4041,,484.8334,484.8336,0.230555556,-0.386111111,0,0,0,,0,215,215,91,1,taza,,,,,
,,,,,,6025d40ede4e061f3c7ca877,676192165fb32c2e1fb7aee6,67d094550121946b70d710e9,2025-03-11_14h14.04.847,Tarea de decisión léxica,2024.2.5,Win32,59.88023952,,,,,,,,,,,,,,,,,,,,,,,484.8353,485.9837,a,1,0.4758,1,485.9839,486.4834,,,,,,469,MAS,WORD,DIS,150,patio,,la,,0.4758,,486.4835,486.4837,0.230555556,-0.386111111,0,0,0,,0,216,216,468,1,matia,,,,,
,,,,,,6025d40ede4e061f3c7ca877,676192165fb32c2e1fb7aee6,67d094550121946b70d710e9,2025-03-11_14h14.04.847,Tarea de decisión léxica,2024.2.5,Win32,59.88023952,,,,,,,,,,,,,,,,,,,,,,,486.4869,487.6333,l,0,0.4742,0,487.6344,488.1334,,,,,,185,MAS,WORD,DIS,150,baúl,,la,,0.4742,,488.1335,488.1338,0.230555556,-0.386111111,0,0,0,,0,217,217,184,1,raol,,,,,
,,,,,,6025d40ede4e061f3c7ca877,676192165fb32c2e1fb7aee6,67d094550121946b70d710e9,2025-03-11_14h14.04.847,Tarea de decisión léxica,2024.2.5,Win32,59.88023952,,,,,,,,,,,,,,,,,,,,,,,488.1355,489.2333,a,1,0.4167,1,489.234,489.7332,,,,,,265,FEM,WORD,DIS,150,mitad,,el,,0.4167,,489.7348,489.7366,0.230555556,-0.386111111,0,0,0,,0,218,218,264,1,pitat,,,,,
,,,,,,6025d40ede4e061f3c7ca877,676192165fb32c2e1fb7aee6,67d094550121946b70d710e9,2025-03-11_14h14.04.847,Tarea de decisión léxica,2024.2.5,Win32,59.88023952,,,,,,,,,,,,,,,,,,,,,,,489.7375,490.8167,a,0,0.4009,0,490.8178,491.3167,,,,,,388,FEM,NOWORD,AGR,150,bresa,,la,,0.4009,,491.3168,491.3171,0.230555556,-0.386111111,0,0,0,,0,219,219,387,1,crema,,,,,
,,,,,,6025d40ede4e061f3c7ca877,676192165fb32c2e1fb7aee6,67d094550121946b70d710e9,2025-03-11_14h14.04.847,Tarea de decisión léxica,2024.2.5,Win32,59.88023952,,,,,,,,,,,,,,,,,,,,,,,491.319,492.3834,a,1,0.3852,1,492.3845,492.8834,,,,,,53,FEM,WORD,DIS,150,boda,,el,,0.3852,,492.8836,492.8838,0.230555556,-0.386111111,0,0,0,,0,220,220,52,1,rora,,,,,
,,,,,,6025d40ede4e061f3c7ca877,676192165fb32c2e1fb7aee6,67d094550121946b70d710e9,2025-03-11_14h14.04.847,Tarea de decisión léxica,2024.2.5,Win32,59.88023952,,,,,,,,,,,,,,,,,,,,,,,492.8856,493.9832,l,1,0.4174,1,493.9833,494.4835,,,,,,106,FEM,NOWORD,DIS,150,vina,,el,,0.4174,,494.4836,494.4839,0.230555556,-0.386111111,0,0,0,,0,221,221,105,1,sopa,,,,,
,,,,,,6025d40ede4e061f3c7ca877,676192165fb32c2e1fb7aee6,67d094550121946b70d710e9,2025-03-11_14h14.04.847,Tarea de decisión léxica,2024.2.5,Win32,59.88023952,,,,,,,,,,,,,,,,,,,,,,,494.4858,495.5834,a,1,0.4182,1,495.5836,496.0837,,,,,,293,MAS,WORD,AGR,150,campo,,el,,0.4182,,496.0838,496.0839,0.230555556,-0.386111111,0,0,0,,0,222,222,292,1,cacso,,,,,
,,,,,,6025d40ede4e061f3c7ca877,676192165fb32c2e1fb7aee6,67d094550121946b70d710e9,2025-03-11_14h14.04.847,Tarea de decisión léxica,2024.2.5,Win32,59.88023952,,,,,,,,,,,,,,,,,,,,,,,496.0857,497.1998,l,1,0.4412,1,497.1998,497.7002,,,,,,248,FEM,NOWORD,AGR,150,trida,,la,,0.4412,,497.7022,497.7038,0.230555556,-0.386111111,0,0,0,,0,223,223,247,1,chica,,,,,
,,,,,,6025d40ede4e061f3c7ca877,676192165fb32c2e1fb7aee6,67d094550121946b70d710e9,2025-03-11_14h14.04.847,Tarea de decisión léxica,2024.2.5,Win32,59.88023952,,,,,,,,,,,,,,,,,,,,,,,497.7049,498.8167,a,1,0.4345,1,498.8169,499.3168,,,,,,429,FEM,WORD,DIS,150,tarta,,el,,0.4345,,499.3169,499.3171,0.230555556,-0.386111111,0,0,0,,0,224,224,428,1,tenta,,,,,
,,,,,,6025d40ede4e061f3c7ca877,676192165fb32c2e1fb7aee6,67d094550121946b70d710e9,2025-03-11_14h14.04.847,Tarea de decisión léxica,2024.2.5,Win32,59.88023952,,,,,,,,,,,,,,,,,,,,,,,499.3189,500.2999,l,1,0.3036,1,500.3,500.8001,,,,,,74,MAS,NOWORD,DIS,150,omio,,la,,0.3036,,500.8002,500.8004,0.230555556,-0.386111111,0,0,0,,0,225,225,73,1,odio,,,,,
,,,,,,6025d40ede4e061f3c7ca877,676192165fb32c2e1fb7aee6,67d094550121946b70d710e9,2025-03-11_14h14.04.847,Tarea de decisión léxica,2024.2.5,Win32,59.88023952,,,,,,,,,,,,,,,,,,,,,,,500.8022,501.8,l,1,0.3249,1,501.8001,502.3,,,,,,242,MAS,NOWORD,DIS,150,mirdo,,la,,0.3249,,502.3001,502.3003,0.230555556,-0.386111111,0,0,0,,0,226,226,241,1,mundo,,,,,
,,,,,,6025d40ede4e061f3c7ca877,676192165fb32c2e1fb7aee6,67d094550121946b70d710e9,2025-03-11_14h14.04.847,Tarea de decisión léxica,2024.2.5,Win32,59.88023952,,,,,,,,,,,,,,,,,,,,,,,502.3016,503.3337,l,1,0.3609,1,503.3338,503.8336,,,,,,416,FEM,NOWORD,AGR,150,juira,,la,,0.3609,,503.8355,503.8375,0.230555556,-0.386111111,0,0,0,,0,227,227,415,1,jaula,,,,,
,,,,,,6025d40ede4e061f3c7ca877,676192165fb32c2e1fb7aee6,67d094550121946b70d710e9,2025-03-11_14h14.04.847,Tarea de decisión léxica,2024.2.5,Win32,59.88023952,,,,,,,,,,,,,,,,,,,,,,,503.8384,504.8665,l,1,0.3511,1,504.8667,505.3667,,,,,,296,MAS,NOWORD,AGR,150,goler,,el,,0.3511,,505.3668,505.367,0.230555556,-0.386111111,0,0,0,,0,228,228,295,1,dolor,,,,,
,,,,,,6025d40ede4e061f3c7ca877,676192165fb32c2e1fb7aee6,67d094550121946b70d710e9,2025-03-11_14h14.04.847,Tarea de decisión léxica,2024.2.5,Win32,59.88023952,,,,,,,,,,,,,,,,,,,,,,,505.369,506.4333,a,1,0.3837,1,506.4334,506.9334,,,,,,319,MAS,WORD,AGR,150,suelo,,el,,0.3837,,506.9335,506.9338,0.230555556,-0.386111111,0,0,0,,0,229,229,318,1,tuero,,,,,
,,,,,,6025d40ede4e061f3c7ca877,676192165fb32c2e1fb7aee6,67d094550121946b70d710e9,2025-03-11_14h14.04.847,Tarea de decisión léxica,2024.2.5,Win32,59.88023952,,,,,,,,,,,,,,,,,,,,,,,506.9355,508.0498,l,1,0.4361,1,508.05,508.5501,,,,,,76,MAS,NOWORD,AGR,150,ocer,,el,,0.4361,,508.5501,508.5503,0.230555556,-0.386111111,0,0,0,,0,230,230,75,1,olor,,,,,
,,,,,,6025d40ede4e061f3c7ca877,676192165fb32c2e1fb7aee6,67d094550121946b70d710e9,2025-03-11_14h14.04.847,Tarea de decisión léxica,2024.2.5,Win32,59.88023952,,,,,,,,,,,,,,,,,,,,,,,508.5518,509.7334,a,1,0.5006,1,509.7335,510.2334,,,,,,209,MAS,WORD,DIS,150,velo,,la,,0.5006,,510.2336,510.2338,0.230555556,-0.386111111,0,0,0,,0,231,231,208,1,dero,,,,,
,,,,,,6025d40ede4e061f3c7ca877,676192165fb32c2e1fb7aee6,67d094550121946b70d710e9,2025-03-11_14h14.04.847,Tarea de decisión léxica,2024.2.5,Win32,59.88023952,,,,,,,,,,,,,,,,,,,,,,,510.2354,511.3164,a,1,0.4029,1,511.3166,511.8165,,,,,,345,FEM,WORD,AGR,150,arena,,la,,0.4029,,511.8173,511.8186,0.230555556,-0.386111111,0,0,0,,0,232,232,344,1,anera,,,,,
,,,,,,6025d40ede4e061f3c7ca877,676192165fb32c2e1fb7aee6,67d094550121946b70d710e9,2025-03-11_14h14.04.847,Tarea de decisión léxica,2024.2.5,Win32,59.88023952,,,,,,,,,,,,,,,,,,,,,,,511.8199,512.8667,l,1,0.3715,1,512.8668,513.3667,,,,,,112,MAS,NOWORD,AGR,150,siro,,el,,0.3715,,513.3667,513.3668,0.230555556,-0.386111111,0,0,0,,0,233,233,111,1,muro,,,,,
,,,,,,6025d40ede4e061f3c7ca877,676192165fb32c2e1fb7aee6,67d094550121946b70d710e9,2025-03-11_14h14.04.847,Tarea de decisión léxica,2024.2.5,Win32,59.88023952,,,,,,,,,,,,,,,,,,,,,,,513.3678,514.3831,l,1,0.3351,1,514.3831,514.8835,,,,,,72,FEM,NOWORD,AGR,150,urla,,la,,0.3351,,514.8837,514.8838,0.230555556,-0.386111111,0,0,0,,0,234,234,71,1,isla,,,,,
,,,,,,6025d40ede4e061f3c7ca877,676192165fb32c2e1fb7aee6,67d094550121946b70d710e9,2025-03-11_14h14.04.847,Tarea de decisión léxica,2024.2.5,Win32,59.88023952,,,,,,,,,,,,,,,,,,,,,,,514.8858,515.933,a,1,0.3715,1,515.9332,516.4334,,,,,,235,FEM,WORD,DIS,150,grúa,,el,,0.3715,,516.4335,516.4337,0.230555556,-0.386111111,0,0,0,,0,235,235,234,1,tria,,,,,
,,,,,,6025d40ede4e061f3c7ca877,676192165fb32c2e1fb7aee6,67d094550121946b70d710e9,2025-03-11_14h14.04.847,Tarea de decisión léxica,2024.2.5,Win32,59.88023952,,,,,,,,,,,,,,,,,,,,,,,516.4358,517.5176,a,1,0.4113,1,517.5177,518.0168,,,,,,383,FEM,WORD,DIS,150,frase,,el,,0.4113,,518.0169,518.017,0.230555556,-0.386111111,0,0,0,,0,236,236,382,1,brame,,,,,
,,,,,,6025d40ede4e061f3c7ca877,676192165fb32c2e1fb7aee6,67d094550121946b70d710e9,2025-03-11_14h14.04.847,Tarea de decisión léxica,2024.2.5,Win32,59.88023952,,,,,,,,,,,,,,,,,,,,,,,518.0186,519.1341,a,1,0.4456,1,519.1342,519.6335,,,,,,309,FEM,WORD,AGR,150,silla,,la,,0.4456,,519.6354,519.637,0.230555556,-0.386111111,0,0,0,,0,237,237,308,1,tirra,,,,,
,,,,,,6025d40ede4e061f3c7ca877,676192165fb32c2e1fb7aee6,67d094550121946b70d710e9,2025-03-11_14h14.04.847,Tarea de decisión léxica,2024.2.5,Win32,59.88023952,,,,,,,,,,,,,,,,,,,,,,,519.6382,520.7168,a,1,0.4014,1,520.7169,521.217,,,,,,321,MAS,WORD,DIS,150,banco,,la,,0.4014,,521.2171,521.2173,0.230555556,-0.386111111,0,0,0,,0,238,238,320,1,rarco,,,,,
,,,,,,6025d40ede4e061f3c7ca877,676192165fb32c2e1fb7aee6,67d094550121946b70d710e9,2025-03-11_14h14.04.847,Tarea de decisión léxica,2024.2.5,Win32,59.88023952,,,,,,,,,,,,,,,,,,,,,,,521.2191,522.1664,a,1,0.2699,1,522.1664,522.6666,,,,,,139,MAS,WORD,AGR,150,mago,,el,,0.2699,,522.6667,522.6668,0.230555556,-0.386111111,0,0,0,,0,239,239,138,1,nila,,,,,
,,,,,,6025d40ede4e061f3c7ca877,676192165fb32c2e1fb7aee6,67d094550121946b70d710e9,2025-03-11_14h14.04.847,Tarea de decisión léxica,2024.2.5,Win32,59.88023952,,,,,,,,,,,,,,,,,,,,,,,522.6687,523.6336,a,1,0.284,1,523.6338,524.1336,,,,,,153,MAS,WORD,DIS,150,pato,,la,,0.284,,524.1337,524.1338,0.230555556,-0.386111111,0,0,0,,0,240,240,152,1,tado,,,,,
,,,,,,6025d40ede4e061f3c7ca877,676192165fb32c2e1fb7aee6,67d094550121946b70d710e9,2025-03-11_14h14.04.847,Tarea de decisión léxica,2024.2.5,Win32,59.88023952,,,,,,,,,,,,,,,,,,,,,,,524.1354,525.3334,l,1,0.5272,1,525.3336,525.8335,,,,,,114,FEM,NOWORD,DIS,150,tada,,el,,0.5272,,525.8336,525.8338,0.230555556,-0.386111111,0,0,0,,0,241,241,113,1,miel,,,,,
,,,,,,6025d40ede4e061f3c7ca877,676192165fb32c2e1fb7aee6,67d094550121946b70d710e9,2025-03-11_14h14.04.847,Tarea de decisión léxica,2024.2.5,Win32,59.88023952,,,,,,,,,,,,,,,,,,,,,,,525.8359,526.9668,l,1,0.4525,1,526.9669,527.4667,,,,,,54,FEM,NOWORD,DIS,150,rora,,el,,0.4525,,527.4686,527.4704,0.230555556,-0.386111111,0,0,0,,0,242,242,53,1,boda,,,,,
,,,,,,6025d40ede4e061f3c7ca877,676192165fb32c2e1fb7aee6,67d094550121946b70d710e9,2025-03-11_14h14.04.847,Tarea de decisión léxica,2024.2.5,Win32,59.88023952,,,,,,,,,,,,,,,,,,,,,,,527.4714,528.4834,a,1,0.3365,1,528.4835,528.9833,,,,,,451,FEM,WORD,AGR,150,fruta,,la,,0.3365,,528.9835,528.9836,0.230555556,-0.386111111,0,0,0,,0,243,243,450,1,clita,,,,,
,,,,,,6025d40ede4e061f3c7ca877,676192165fb32c2e1fb7aee6,67d094550121946b70d710e9,2025-03-11_14h14.04.847,Tarea de decisión léxica,2024.2.5,Win32,59.88023952,,,,,,,,,,,,,,,,,,,,,,,528.9851,530.1164,a,1,0.4541,1,530.1165,530.6167,,,,,,125,MAS,WORD,DIS,150,lujo,,la,,0.4541,,530.6169,530.617,0.230555556,-0.386111111,0,0,0,,0,244,244,124,1,vudo,,,,,
,,,,,,6025d40ede4e061f3c7ca877,676192165fb32c2e1fb7aee6,67d094550121946b70d710e9,2025-03-11_14h14.04.847,Tarea de decisión léxica,2024.2.5,Win32,59.88023952,,,,,,,,,,,,,,,,,,,,,,,530.6191,531.6999,a,1,0.4051,1,531.7,532.2,,,,,,7,MAS,WORD,AGR,150,hijo,,el,,0.4051,,532.2,532.2001,0.230555556,-0.386111111,0,0,0,,0,245,245,6,1,nivo,,,,,
,,,,,,6025d40ede4e061f3c7ca877,676192165fb32c2e1fb7aee6,67d094550121946b70d710e9,2025-03-11_14h14.04.847,Tarea de decisión léxica,2024.2.5,Win32,59.88023952,,,,,,,,,,,,,,,,,,,,,,,532.2013,533.25,a,1,0.3699,1,533.2502,533.7501,,,,,,399,MAS,WORD,AGR,150,techo,,el,,0.3699,,533.7502,533.7504,0.230555556,-0.386111111,0,0,0,,0,246,246,398,1,serro,,,,,
,,,,,,6025d40ede4e061f3c7ca877,676192165fb32c2e1fb7aee6,67d094550121946b70d710e9,2025-03-11_14h14.04.847,Tarea de decisión léxica,2024.2.5,Win32,59.88023952,,,,,,,,,,,,,,,,,,,,,,,533.7524,535.1665,a,1,0.7365,1,535.1666,535.6666,,,,,,217,MAS,WORD,AGR,150,luto,,el,,0.7365,,535.6681,535.6697,0.230555556,-0.386111111,0,0,0,,0,247,247,216,1,budo,,,,,
,,,,,,6025d40ede4e061f3c7ca877,676192165fb32c2e1fb7aee6,67d094550121946b70d710e9,2025-03-11_14h14.04.847,Tarea de decisión léxica,2024.2.5,Win32,59.88023952,,,,,,,,,,,,,,,,,,,,,,,535.6709,536.6335,a,1,0.2909,1,536.6336,537.1336,,,,,,167,FEM,WORD,AGR,150,jefa,,la,,0.2909,,537.1337,537.1338,0.230555556,-0.386111111,0,0,0,,0,248,248,166,1,zifa,,,,,
,,,,,,6025d40ede4e061f3c7ca877,676192165fb32c2e1fb7aee6,67d094550121946b70d710e9,2025-03-11_14h14.04.847,Tarea de decisión léxica,2024.2.5,Win32,59.88023952,,,,,,,,,,,,,,,,,,,,,,,537.1352,538.1164,a,1,0.3043,1,538.1165,538.6164,,,,,,57,MAS,WORD,AGR,150,dedo,,el,,0.3043,,538.6165,538.6165,0.230555556,-0.386111111,0,0,0,,0,249,249,56,1,heco,,,,,
,,,,,,6025d40ede4e061f3c7ca877,676192165fb32c2e1fb7aee6,67d094550121946b70d710e9,2025-03-11_14h14.04.847,Tarea de decisión léxica,2024.2.5,Win32,59.88023952,,,,,,,,,,,,,,,,,,,,,,,538.6172,539.5497,a,1,0.254,1,539.5498,540.0499,,,,,,33,FEM,WORD,DIS,150,boca,,el,,0.254,,540.05,540.0501,0.230555556,-0.386111111,0,0,0,,0,250,250,32,1,loda,,,,,
,,,,,,6025d40ede4e061f3c7ca877,676192165fb32c2e1fb7aee6,67d094550121946b70d710e9,2025-03-11_14h14.04.847,Tarea de decisión léxica,2024.2.5,Win32,59.88023952,,,,,,,,,,,,,,,,,,,,,,,540.0518,541.2841,a,1,0.5508,1,541.2842,541.7834,,,,,,243,MAS,WORD,DIS,150,amigo,,la,,0.5508,,541.7854,541.7873,0.230555556,-0.386111111,0,0,0,,0,251,251,242,1,asamo,,,,,
,,,,,,6025d40ede4e061f3c7ca877,676192165fb32c2e1fb7aee6,67d094550121946b70d710e9,2025-03-11_14h14.04.847,Tarea de decisión léxica,2024.2.5,Win32,59.88023952,,,,,,,,,,,,,,,,,,,,,,,541.7882,542.8167,a,1,0.3509,1,542.8168,543.3167,,,,,,475,FEM,WORD,DIS,150,manta,,el,,0.3509,,543.3169,543.3171,0.230555556,-0.386111111,0,0,0,,0,252,252,474,1,mucta,,,,,
,,,,,,6025d40ede4e061f3c7ca877,676192165fb32c2e1fb7aee6,67d094550121946b70d710e9,2025-03-11_14h14.04.847,Tarea de decisión léxica,2024.2.5,Win32,59.88023952,,,,,,,,,,,,,,,,,,,,,,,543.3188,544.3337,a,1,0.3443,1,544.3338,544.8334,,,,,,37,MAS,WORD,AGR,150,rato,,el,,0.3443,,544.8335,544.8336,0.230555556,-0.386111111,0,0,0,,0,253,253,36,1,gaco,,,,,
,,,,,,6025d40ede4e061f3c7ca877,676192165fb32c2e1fb7aee6,67d094550121946b70d710e9,2025-03-11_14h14.04.847,Tarea de decisión léxica,2024.2.5,Win32,59.88023952,,,,,,,,,,,,,,,,,,,,,,,544.835,546.0999,l,1,0.5882,1,546.1,546.6,,,,,,176,FEM,NOWORD,AGR,150,hosa,,la,,0.5882,,546.6001,546.6003,0.230555556,-0.386111111,0,0,0,,0,254,254,175,1,goma,,,,,
,,,,,,6025d40ede4e061f3c7ca877,676192165fb32c2e1fb7aee6,67d094550121946b70d710e9,2025-03-11_14h14.04.847,Tarea de decisión léxica,2024.2.5,Win32,59.88023952,,,,,,,,,,,,,,,,,,,,,,,546.6024,547.6,a,1,0.322,1,547.6001,548.1,,,,,,375,FEM,WORD,AGR,150,salsa,,la,,0.322,,548.1002,548.1004,0.230555556,-0.386111111,0,0,0,,0,255,255,374,1,sasna,,,,,
,,,,,,6025d40ede4e061f3c7ca877,676192165fb32c2e1fb7aee6,67d094550121946b70d710e9,2025-03-11_14h14.04.847,Tarea de decisión léxica,2024.2.5,Win32,59.88023952,,,,,,,,,,,,,,,,,,,,,,,548.1025,549.2999,l,1,0.5174,1,549.3,549.8002,,,,,,412,MAS,NOWORD,AGR,150,mobro,,el,,0.5174,,549.8018,549.8036,0.230555556,-0.386111111,0,0,0,,0,256,256,411,1,pollo,,,,,
,,,,,,6025d40ede4e061f3c7ca877,676192165fb32c2e1fb7aee6,67d094550121946b70d710e9,2025-03-11_14h14.04.847,Tarea de decisión léxica,2024.2.5,Win32,59.88023952,,,,,,,,,,,,,,,,,,,,,,,549.8048,551.0332,l,1,0.5579,1,551.0333,551.5332,,,,,,286,MAS,NOWORD,DIS,150,echor,,la,,0.5579,,551.5334,551.5334,0.230555556,-0.386111111,0,0,0,,0,257,257,285,1,error,,,,,
,,,,,,6025d40ede4e061f3c7ca877,676192165fb32c2e1fb7aee6,67d094550121946b70d710e9,2025-03-11_14h14.04.847,Tarea de decisión léxica,2024.2.5,Win32,59.88023952,,,,,,,,,,,,,,,,,,,,,,,551.5349,552.6165,l,1,0.4032,1,552.6166,553.1166,,,,,,36,MAS,NOWORD,AGR,150,meno,,el,,0.4032,,553.1167,553.1169,0.230555556,-0.386111111,0,0,0,,0,258,258,35,1,pelo,,,,,
,,,,,,6025d40ede4e061f3c7ca877,676192165fb32c2e1fb7aee6,67d094550121946b70d710e9,2025-03-11_14h14.04.847,Tarea de decisión léxica,2024.2.5,Win32,59.88023952,,,,,,,,,,,,,,,,,,,,,,,553.1184,554.2667,a,1,0.4717,1,554.2668,554.7668,,,,,,231,FEM,WORD,DIS,150,bota,,el,,0.4717,,554.7668,554.7671,0.230555556,-0.386111111,0,0,0,,0,259,259,230,1,heta,,,,,
,,,,,,6025d40ede4e061f3c7ca877,676192165fb32c2e1fb7aee6,67d094550121946b70d710e9,2025-03-11_14h14.04.847,Tarea de decisión léxica,2024.2.5,Win32,59.88023952,,,,,,,,,,,,,,,,,,,,,,,554.7691,555.9001,l,1,0.4511,1,555.9002,556.4001,,,,,,278,MAS,NOWORD,DIS,150,vuemo,,la,,0.4511,,556.4002,556.4003,0.230555556,-0.386111111,0,0,0,,0,260,260,277,1,fuego,,,,,
,,,,,,6025d40ede4e061f3c7ca877,676192165fb32c2e1fb7aee6,67d094550121946b70d710e9,2025-03-11_14h14.04.847,Tarea de decisión léxica,2024.2.5,Win32,59.88023952,,,,,,,,,,,,,,,,,,,,,,,556.4026,557.4499,l,1,0.3721,1,557.45,557.9502,,,,,,40,MAS,NOWORD,AGR,150,redo,,el,,0.3721,,557.9521,557.9539,0.230555556,-0.386111111,0,0,0,,0,261,261,39,1,voto,,,,,
,,,,,,6025d40ede4e061f3c7ca877,676192165fb32c2e1fb7aee6,67d094550121946b70d710e9,2025-03-11_14h14.04.847,Tarea de decisión léxica,2024.2.5,Win32,59.88023952,,,,,,,,,,,,,,,,,,,,,,,557.9549,559.0167,a,1,0.3902,1,559.0168,559.5167,,,,,,227,MAS,WORD,AGR,150,faro,,el,,0.3902,,559.5169,559.5172,0.230555556,-0.386111111,0,0,0,,0,262,262,226,1,laro,,,,,
,,,,,,6025d40ede4e061f3c7ca877,676192165fb32c2e1fb7aee6,67d094550121946b70d710e9,2025-03-11_14h14.04.847,Tarea de decisión léxica,2024.2.5,Win32,59.88023952,,,,,,,,,,,,,,,,,,,,,,,559.5188,560.5499,l,1,0.3542,1,560.55,561.0504,,,,,,294,MAS,NOWORD,DIS,150,cacso,,la,,0.3542,,561.0505,561.0507,0.230555556,-0.386111111,0,0,0,,0,263,263,293,1,campo,,,,,
