counterbalancing_condition,consent_prescreening.block_1/declare_consent,consent_prescreening.block_1/age_years,consent_prescreening.block_1/gender,consent_prescreening.block_1/language_disorder,consent_prescreening.block_1/first_language,PROLIFIC_PID,STUDY_ID,SESSION_ID,date,expName,psychopyVersion,OS,frameRate,check_prescreening_answers.started,check_prescreening_answers.stopped,Instructions.started,Instructions.stopped,instr_done_keyboard.keys,instr_done_keyboard.rt,instr_done_keyboard.duration,instr_done_touch.x,instr_done_touch.y,instr_done_touch.leftButton,instr_done_touch.midButton,instr_done_touch.rightButton,instr_done_touch.clicked_name,instruction_pages.thisRepN,instruction_pages.thisTrialN,instruction_pages.thisN,instruction_pages.thisIndex,instruction_pages.ran,pageN,phase,instruct_text,has_image,instruct_image,presentTrial.started,presentTrial.stopped,response.keys,response.corr,response.rt,response.duration,rt,corr,feedback.started,feedback.stopped,practice_trials.thisRepN,practice_trials.thisTrialN,practice_trials.thisN,practice_trials.thisIndex,practice_trials.ran,TrialID,Gender,StimulusType,Condition,PrimeDuration,Prime,len,Flanker,corrAns,Break.started,Break.stopped,break_done_touch.x,break_done_touch.y,break_done_touch.leftButton,break_done_touch.midButton,break_done_touch.rightButton,break_done_keyboard.keys,experiment_trials.thisRepN,experiment_trials.thisTrialN,experiment_trials.thisN,experiment_trials.thisIndex,experiment_trials.ran,PairedWith,break_done_keyboard.rt,break_done_keyboard.duration,break_done_touch.clicked_name,End.started,End.stopped
0,"[""over_18"",""comfortable"",""read_info"",""consent_given""]",23,M,"[""none""]","[""spanish""]",6046dba06dcb8815046f1d4b,676192165fb32c2e1fb7aee6,67d0b2dbb3426713474bd61f,2025-03-11_16h02.36.152,Tarea de decisión léxica,2024.2.5,Win32,16.02564103,,,,,,,,,,,,,,,,,,,,,,,,,,,,,,,,,,,,,,,,,,,,,,,,,,,,,,,,,,,,,,,,,,
,,,,,,6046dba06dcb8815046f1d4b,676192165fb32c2e1fb7aee6,67d0b2dbb3426713474bd61f,2025-03-11_16h02.36.152,Tarea de decisión léxica,2024.2.5,Win32,16.02564103,67.8118,67.8119,,,,,,,,,,,,,,,,,,,,,,,,,,,,,,,,,,,,,,,,,,,,,,,,,,,,,,,,,,,,,,,,
,,,,,,6046dba06dcb8815046f1d4b,676192165fb32c2e1fb7aee6,67d0b2dbb3426713474bd61f,2025-03-11_16h02.36.152,Tarea de decisión léxica,2024.2.5,Win32,16.02564103,,,67.8253,78.1272,space,10.198,,0.155758114,-0.104517671,0,0,0,,0,0,0,0,1,1,instructions,"INSTRUCCIONES
Va a realizar una prueba de decisión léxica. Desde el comienzo de la prueba mire siempre al centro de la pantalla. Se presentará una serie de cadenas de letras, una a la vez, en la pantalla. Su tarea consiste en determinar si cada cadena de letras constituye una palabra real en español o una no-palabra (una secuencia de letras que no constituye una palabra real). 

Pulse la tecla ESPACIO para continuar.",0,keyboardresponseWN.png,,,,,,,,,,,,,,,,,,,,,,,,,,,,,,,,,,,,,,,,,,,
,,,,,,6046dba06dcb8815046f1d4b,676192165fb32c2e1fb7aee6,67d0b2dbb3426713474bd61f,2025-03-11_16h02.36.152,Tarea de decisión léxica,2024.2.5,Win32,16.02564103,,,78.1292,99.7891,space,21.5789,,0.897287528,0.052860641,0,0,0,,0,1,1,1,1,2,instructions,"El procedimiento es el siguiente: Aparecerán dos barras verticales posicionadas en el centro de la pantalla, separadas por un pequeño espacio.Por favor, enfoque su atención en el espacio entre las barras. Esto preparará sus ojos para la siguiente cadena de letras, que aparecerá entre las dos barras durante un instante.

Pulse la tecla ESPACIO para continuar.",0,keyboardresponseNW.png,,,,,,,,,,,,,,,,,,,,,,,,,,,,,,,,,,,,,,,,,,,
,,,,,,6046dba06dcb8815046f1d4b,676192165fb32c2e1fb7aee6,67d0b2dbb3426713474bd61f,2025-03-11_16h02.36.152,Tarea de decisión léxica,2024.2.5,Win32,16.02564103,,,99.7907,115.2483,space,15.3526,,0.558461362,0.001018361,0,0,0,,0,2,2,2,1,3,instructions,"En el teclado de su dispositivo, pulse la tecla ""A"" si la cadena de letras es una palabra real en español (por ejemplo: ""mano"") y la tecla ""L"" si la cadena de letras es una no-palabra (por ejemplo: ""minu"").
Pulse la tecla ESPACIO para continuar.",1,keyboardresponseWN.png,,,,,,,,,,,,,,,,,,,,,,,,,,,,,,,,,,,,,,,,,,,
,,,,,,6046dba06dcb8815046f1d4b,676192165fb32c2e1fb7aee6,67d0b2dbb3426713474bd61f,2025-03-11_16h02.36.152,Tarea de decisión léxica,2024.2.5,Win32,16.02564103,,,115.2503,131.9999,space,16.6593,,0.558461362,0.001018361,0,0,0,,0,3,3,3,1,4,instructions,"Es muy importante que responda con la mayor rapidez y precisión posibles. Si no responde dentro de 2 segundos, aparecerá el mensaje ""Muy lento"" y el experimento pasará a la siguiente palabra. Inmediatamente después de su respuesta se indicará si fue correcta o no. Los primeros 15 intentos serán de práctica y habrá dos descansos durante la prueba.

Pulse la tecla ESPACIO  para iniciar la parte de práctica.",0,keyboardresponseWN.png,,,,,,,,,,,,,,,,,,,,,,,,,,,,,,,,,,,,,,,,,,,
,,,,,,6046dba06dcb8815046f1d4b,676192165fb32c2e1fb7aee6,67d0b2dbb3426713474bd61f,2025-03-11_16h02.36.152,Tarea de decisión léxica,2024.2.5,Win32,16.02564103,,,,,,,,,,,,,,,,,,,,,,,,132.0106,134.0059,l,1,1.2014,,1.2014,1,134.0063,134.5008,0,0,0,0,1,1001,FEM,NOWORD,AGR,150,croz,4,la,a,,,,,,,,,,,,,,,,,,,
,,,,,,6046dba06dcb8815046f1d4b,676192165fb32c2e1fb7aee6,67d0b2dbb3426713474bd61f,2025-03-11_16h02.36.152,Tarea de decisión léxica,2024.2.5,Win32,16.02564103,,,,,,,,,,,,,,,,,,,,,,,,134.502,135.949,a,1,0.7192,,0.7192,1,135.949,136.4191,0,1,1,6,1,1007,MAS,WORD,DIS,150,masa,4,la,l,,,,,,,,,,,,,,,,,,,
,,,,,,6046dba06dcb8815046f1d4b,676192165fb32c2e1fb7aee6,67d0b2dbb3426713474bd61f,2025-03-11_16h02.36.152,Tarea de decisión léxica,2024.2.5,Win32,16.02564103,,,,,,,,,,,,,,,,,,,,,,,,136.4203,137.8084,l,1,0.6544,,0.6544,1,137.8084,138.3139,0,2,2,2,1,1003,FEM,NOWORD,DIS,150,muvor,5,el,a,,,,,,,,,,,,,,,,,,,
,,,,,,6046dba06dcb8815046f1d4b,676192165fb32c2e1fb7aee6,67d0b2dbb3426713474bd61f,2025-03-11_16h02.36.152,Tarea de decisión léxica,2024.2.5,Win32,16.02564103,,,,,,,,,,,,,,,,,,,,,,,,138.3154,139.7742,l,1,0.7226,,0.7226,1,139.7743,140.2745,0,3,3,3,1,1004,FEM,NOWORD,AGR,150,bireo,5,la,a,,,,,,,,,,,,,,,,,,,
,,,,,,6046dba06dcb8815046f1d4b,676192165fb32c2e1fb7aee6,67d0b2dbb3426713474bd61f,2025-03-11_16h02.36.152,Tarea de decisión léxica,2024.2.5,Win32,16.02564103,,,,,,,,,,,,,,,,,,,,,,,,140.276,141.492,a,1,0.4877,,0.4877,1,141.4923,141.9646,0,4,4,8,1,1009,FEM,WORD,AGR,150,viejo,5,la,l,,,,,,,,,,,,,,,,,,,
,,,,,,6046dba06dcb8815046f1d4b,676192165fb32c2e1fb7aee6,67d0b2dbb3426713474bd61f,2025-03-11_16h02.36.152,Tarea de decisión léxica,2024.2.5,Win32,16.02564103,,,,,,,,,,,,,,,,,,,,,,,,141.9657,143.2695,a,1,0.5699,,0.5699,1,143.2696,143.7514,0,5,5,9,1,1010,MAS,WORD,DIS,150,video,5,la,l,,,,,,,,,,,,,,,,,,,
,,,,,,6046dba06dcb8815046f1d4b,676192165fb32c2e1fb7aee6,67d0b2dbb3426713474bd61f,2025-03-11_16h02.36.152,Tarea de decisión léxica,2024.2.5,Win32,16.02564103,,,,,,,,,,,,,,,,,,,,,,,,143.7522,145.1024,l,1,0.5666,,0.5666,1,145.1024,145.575,0,6,6,1,1,1002,FEM,NOWORD,DIS,150,mabo,4,el,a,,,,,,,,,,,,,,,,,,,
,,,,,,6046dba06dcb8815046f1d4b,676192165fb32c2e1fb7aee6,67d0b2dbb3426713474bd61f,2025-03-11_16h02.36.152,Tarea de decisión léxica,2024.2.5,Win32,16.02564103,,,,,,,,,,,,,,,,,,,,,,,,145.5761,146.9415,a,1,0.5838,,0.5838,1,146.9416,147.4261,0,7,7,7,1,1008,MAS,WORD,DIS,150,frío,4,la,l,,,,,,,,,,,,,,,,,,,
,,,,,,6046dba06dcb8815046f1d4b,676192165fb32c2e1fb7aee6,67d0b2dbb3426713474bd61f,2025-03-11_16h02.36.152,Tarea de decisión léxica,2024.2.5,Win32,16.02564103,,,,,,,,,,,,,,,,,,,,,,,,147.4268,148.6599,l,0,0.502,,0.502,0,148.6609,149.1417,0,8,8,5,1,1006,FEM,WORD,AGR,150,cara,4,la,l,,,,,,,,,,,,,,,,,,,
,,,,,,6046dba06dcb8815046f1d4b,676192165fb32c2e1fb7aee6,67d0b2dbb3426713474bd61f,2025-03-11_16h02.36.152,Tarea de decisión léxica,2024.2.5,Win32,16.02564103,,,,,,,,,,,,,,,,,,,,,,,,149.1428,150.5814,l,1,0.6456,,0.6456,1,150.5822,151.0782,0,9,9,4,1,1005,MAS,NOWORD,DIS,150,nobad,5,la,a,,,,,,,,,,,,,,,,,,,
,,,,,,6046dba06dcb8815046f1d4b,676192165fb32c2e1fb7aee6,67d0b2dbb3426713474bd61f,2025-03-11_16h02.36.152,Tarea de decisión léxica,2024.2.5,Win32,16.02564103,,,153.9319,157.3069,space,3.2918,,0.558461362,0.001018361,0,0,0,,,,,,,,,,,,157.3371,158.5826,a,1,0.5098,,0.5098,1,158.5828,159.0638,,,,,,125,MAS,WORD,DIS,150,lujo,,la,,159.0641,159.0668,0.558461362,0.001018361,0,0,0,,0,0,0,124,1,vudo,,,,,
,,,,,,6046dba06dcb8815046f1d4b,676192165fb32c2e1fb7aee6,67d0b2dbb3426713474bd61f,2025-03-11_16h02.36.152,Tarea de decisión léxica,2024.2.5,Win32,16.02564103,,,,,,,,,,,,,,,,,,,,,,,,159.0675,160.2857,a,1,0.4829,,0.4829,1,160.2858,160.7771,,,,,,355,FEM,WORD,DIS,150,regla,,el,,160.7771,160.7773,0.558461362,0.001018361,0,0,0,,0,1,1,354,1,bepla,,,,,
,,,,,,6046dba06dcb8815046f1d4b,676192165fb32c2e1fb7aee6,67d0b2dbb3426713474bd61f,2025-03-11_16h02.36.152,Tarea de decisión léxica,2024.2.5,Win32,16.02564103,,,,,,,,,,,,,,,,,,,,,,,,160.7781,161.9692,a,1,0.4125,,0.4125,1,161.9693,162.4399,,,,,,61,FEM,WORD,DIS,150,obra,,el,,162.4407,162.4416,0.558461362,0.001018361,0,0,0,,0,2,2,60,1,efla,,,,,
,,,,,,6046dba06dcb8815046f1d4b,676192165fb32c2e1fb7aee6,67d0b2dbb3426713474bd61f,2025-03-11_16h02.36.152,Tarea de decisión léxica,2024.2.5,Win32,16.02564103,,,,,,,,,,,,,,,,,,,,,,,,162.4422,163.5537,a,1,0.3285,,0.3285,1,163.5538,164.0353,,,,,,145,MAS,WORD,AGR,150,león,,el,,164.0354,164.0355,0.558461362,0.001018361,0,0,0,,0,3,3,144,1,nobo,,,,,
,,,,,,6046dba06dcb8815046f1d4b,676192165fb32c2e1fb7aee6,67d0b2dbb3426713474bd61f,2025-03-11_16h02.36.152,Tarea de decisión léxica,2024.2.5,Win32,16.02564103,,,,,,,,,,,,,,,,,,,,,,,,164.0365,165.1616,a,1,0.3972,,0.3972,1,165.1617,165.6364,,,,,,7,MAS,WORD,AGR,150,hijo,,el,,165.6365,165.6366,0.558461362,0.001018361,0,0,0,,0,4,4,6,1,nivo,,,,,
,,,,,,6046dba06dcb8815046f1d4b,676192165fb32c2e1fb7aee6,67d0b2dbb3426713474bd61f,2025-03-11_16h02.36.152,Tarea de decisión léxica,2024.2.5,Win32,16.02564103,,,,,,,,,,,,,,,,,,,,,,,,165.6376,166.8321,a,1,0.4048,,0.4048,1,166.8322,167.3002,,,,,,185,MAS,WORD,DIS,150,baúl,,la,,167.3002,167.3003,0.558461362,0.001018361,0,0,0,,0,5,5,184,1,raol,,,,,
,,,,,,6046dba06dcb8815046f1d4b,676192165fb32c2e1fb7aee6,67d0b2dbb3426713474bd61f,2025-03-11_16h02.36.152,Tarea de decisión léxica,2024.2.5,Win32,16.02564103,,,,,,,,,,,,,,,,,,,,,,,,167.301,168.4528,a,1,0.4268,,0.4268,1,168.453,168.9554,,,,,,309,FEM,WORD,AGR,150,silla,,la,,168.9555,168.9556,0.558461362,0.001018361,0,0,0,,0,6,6,308,1,tirra,,,,,
,,,,,,6046dba06dcb8815046f1d4b,676192165fb32c2e1fb7aee6,67d0b2dbb3426713474bd61f,2025-03-11_16h02.36.152,Tarea de decisión léxica,2024.2.5,Win32,16.02564103,,,,,,,,,,,,,,,,,,,,,,,,168.9566,170.0137,a,1,0.3299,,0.3299,1,170.0138,170.5207,,,,,,385,FEM,WORD,AGR,150,letra,,la,,170.5215,170.5228,0.558461362,0.001018361,0,0,0,,0,7,7,384,1,febra,,,,,
,,,,,,6046dba06dcb8815046f1d4b,676192165fb32c2e1fb7aee6,67d0b2dbb3426713474bd61f,2025-03-11_16h02.36.152,Tarea de decisión léxica,2024.2.5,Win32,16.02564103,,,,,,,,,,,,,,,,,,,,,,,,170.5234,171.6568,a,1,0.3338,,0.3338,1,171.6569,172.1511,,,,,,225,MAS,WORD,DIS,150,lodo,,la,,172.1511,172.1512,0.558461362,0.001018361,0,0,0,,0,8,8,224,1,boco,,,,,
,,,,,,6046dba06dcb8815046f1d4b,676192165fb32c2e1fb7aee6,67d0b2dbb3426713474bd61f,2025-03-11_16h02.36.152,Tarea de decisión léxica,2024.2.5,Win32,16.02564103,,,,,,,,,,,,,,,,,,,,,,,,172.1519,173.2698,a,0,0.3283,,0.3283,0,173.2704,173.7239,,,,,,256,MAS,NOWORD,AGR,150,mauco,,el,,173.724,173.7241,0.558461362,0.001018361,0,0,0,,0,9,9,255,1,miedo,,,,,
,,,,,,6046dba06dcb8815046f1d4b,676192165fb32c2e1fb7aee6,67d0b2dbb3426713474bd61f,2025-03-11_16h02.36.152,Tarea de decisión léxica,2024.2.5,Win32,16.02564103,,,,,,,,,,,,,,,,,,,,,,,,173.7252,174.9286,a,1,0.4087,,0.4087,1,174.9294,175.4062,,,,,,331,MAS,WORD,AGR,150,éxito,,el,,175.4062,175.4063,0.558461362,0.001018361,0,0,0,,0,10,10,330,1,erato,,,,,
,,,,,,6046dba06dcb8815046f1d4b,676192165fb32c2e1fb7aee6,67d0b2dbb3426713474bd61f,2025-03-11_16h02.36.152,Tarea de decisión léxica,2024.2.5,Win32,16.02564103,,,,,,,,,,,,,,,,,,,,,,,,175.4071,176.8421,l,1,0.6556,,0.6556,1,176.8422,177.3263,,,,,,416,FEM,NOWORD,AGR,150,juira,,la,,177.3273,177.3282,0.558461362,0.001018361,0,0,0,,0,11,11,415,1,jaula,,,,,
,,,,,,6046dba06dcb8815046f1d4b,676192165fb32c2e1fb7aee6,67d0b2dbb3426713474bd61f,2025-03-11_16h02.36.152,Tarea de decisión léxica,2024.2.5,Win32,16.02564103,,,,,,,,,,,,,,,,,,,,,,,,177.3286,178.4386,a,1,0.3239,,0.3239,1,178.4388,178.9148,,,,,,405,FEM,WORD,AGR,150,barra,,la,,178.9148,178.9148,0.558461362,0.001018361,0,0,0,,0,12,12,404,1,rarra,,,,,
,,,,,,6046dba06dcb8815046f1d4b,676192165fb32c2e1fb7aee6,67d0b2dbb3426713474bd61f,2025-03-11_16h02.36.152,Tarea de decisión léxica,2024.2.5,Win32,16.02564103,,,,,,,,,,,,,,,,,,,,,,,,178.9156,180.1023,l,1,0.3966,,0.3966,1,180.1024,180.5628,,,,,,108,MAS,NOWORD,AGR,150,raot,,el,,180.5628,180.5629,0.558461362,0.001018361,0,0,0,,0,13,13,107,1,saco,,,,,
,,,,,,6046dba06dcb8815046f1d4b,676192165fb32c2e1fb7aee6,67d0b2dbb3426713474bd61f,2025-03-11_16h02.36.152,Tarea de decisión léxica,2024.2.5,Win32,16.02564103,,,,,,,,,,,,,,,,,,,,,,,,180.5636,181.9479,a,1,0.6538,,0.6538,1,181.9479,182.4218,,,,,,397,FEM,WORD,AGR,150,tribu,,la,,182.4219,182.422,0.558461362,0.001018361,0,0,0,,0,14,14,396,1,trigi,,,,,
,,,,,,6046dba06dcb8815046f1d4b,676192165fb32c2e1fb7aee6,67d0b2dbb3426713474bd61f,2025-03-11_16h02.36.152,Tarea de decisión léxica,2024.2.5,Win32,16.02564103,,,,,,,,,,,,,,,,,,,,,,,,182.4227,183.5982,a,0,0.3984,,0.3984,0,183.5988,184.084,,,,,,234,FEM,NOWORD,DIS,150,fasa,,el,,184.084,184.0841,0.558461362,0.001018361,0,0,0,,0,15,15,233,1,lana,,,,,
,,,,,,6046dba06dcb8815046f1d4b,676192165fb32c2e1fb7aee6,67d0b2dbb3426713474bd61f,2025-03-11_16h02.36.152,Tarea de decisión léxica,2024.2.5,Win32,16.02564103,,,,,,,,,,,,,,,,,,,,,,,,184.0849,185.4083,a,1,0.5529,,0.5529,1,185.4089,185.8681,,,,,,295,MAS,WORD,DIS,150,dolor,,la,,185.8689,185.8699,0.558461362,0.001018361,0,0,0,,0,16,16,294,1,goler,,,,,
,,,,,,6046dba06dcb8815046f1d4b,676192165fb32c2e1fb7aee6,67d0b2dbb3426713474bd61f,2025-03-11_16h02.36.152,Tarea de decisión léxica,2024.2.5,Win32,16.02564103,,,,,,,,,,,,,,,,,,,,,,,,185.8702,187.3153,l,1,0.66,,0.66,1,187.3154,187.7928,,,,,,452,FEM,NOWORD,AGR,150,clita,,la,,187.7928,187.7928,0.558461362,0.001018361,0,0,0,,0,17,17,451,1,fruta,,,,,
,,,,,,6046dba06dcb8815046f1d4b,676192165fb32c2e1fb7aee6,67d0b2dbb3426713474bd61f,2025-03-11_16h02.36.152,Tarea de decisión léxica,2024.2.5,Win32,16.02564103,,,,,,,,,,,,,,,,,,,,,,,,187.7937,189.0388,a,1,0.5239,,0.5239,1,189.0388,189.5308,,,,,,379,MAS,WORD,AGR,150,turno,,el,,189.5309,189.531,0.558461362,0.001018361,0,0,0,,0,18,18,378,1,tunso,,,,,
,,,,,,6046dba06dcb8815046f1d4b,676192165fb32c2e1fb7aee6,67d0b2dbb3426713474bd61f,2025-03-11_16h02.36.152,Tarea de decisión léxica,2024.2.5,Win32,16.02564103,,,,,,,,,,,,,,,,,,,,,,,,189.5317,190.8826,l,1,0.5579,,0.5579,1,190.8827,191.3692,,,,,,178,MAS,NOWORD,DIS,150,bito,,la,,191.3692,191.3693,0.558461362,0.001018361,0,0,0,,0,19,19,177,1,reto,,,,,
,,,,,,6046dba06dcb8815046f1d4b,676192165fb32c2e1fb7aee6,67d0b2dbb3426713474bd61f,2025-03-11_16h02.36.152,Tarea de decisión léxica,2024.2.5,Win32,16.02564103,,,,,,,,,,,,,,,,,,,,,,,,191.37,192.6595,a,1,0.4905,,0.4905,1,192.6597,193.1429,,,,,,201,FEM,WORD,AGR,150,cuna,,la,,193.143,193.143,0.558461362,0.001018361,0,0,0,,0,20,20,200,1,cusa,,,,,
,,,,,,6046dba06dcb8815046f1d4b,676192165fb32c2e1fb7aee6,67d0b2dbb3426713474bd61f,2025-03-11_16h02.36.152,Tarea de decisión léxica,2024.2.5,Win32,16.02564103,,,,,,,,,,,,,,,,,,,,,,,,193.1439,194.5068,l,1,0.5796,,0.5796,1,194.507,194.9907,,,,,,430,FEM,NOWORD,DIS,150,tenta,,el,,194.9915,194.9924,0.558461362,0.001018361,0,0,0,,0,21,21,429,1,tarta,,,,,
,,,,,,6046dba06dcb8815046f1d4b,676192165fb32c2e1fb7aee6,67d0b2dbb3426713474bd61f,2025-03-11_16h02.36.152,Tarea de decisión léxica,2024.2.5,Win32,16.02564103,,,,,,,,,,,,,,,,,,,,,,,,194.9931,196.5098,a,1,0.789,,0.789,1,196.5098,196.9908,,,,,,401,MAS,WORD,DIS,150,polvo,,la,,196.9908,196.9909,0.558461362,0.001018361,0,0,0,,0,22,22,400,1,pirvo,,,,,
,,,,,,6046dba06dcb8815046f1d4b,676192165fb32c2e1fb7aee6,67d0b2dbb3426713474bd61f,2025-03-11_16h02.36.152,Tarea de decisión léxica,2024.2.5,Win32,16.02564103,,,,,,,,,,,,,,,,,,,,,,,,196.9916,198.3539,l,1,0.6345,,0.6345,1,198.354,198.8563,,,,,,54,FEM,NOWORD,DIS,150,rora,,el,,198.8564,198.8565,0.558461362,0.001018361,0,0,0,,0,23,23,53,1,boda,,,,,
,,,,,,6046dba06dcb8815046f1d4b,676192165fb32c2e1fb7aee6,67d0b2dbb3426713474bd61f,2025-03-11_16h02.36.152,Tarea de decisión léxica,2024.2.5,Win32,16.02564103,,,,,,,,,,,,,,,,,,,,,,,,198.8572,200.2503,l,1,0.6519,,0.6519,1,200.2504,200.736,,,,,,18,FEM,NOWORD,DIS,150,paba,,el,,200.7361,200.7362,0.558461362,0.001018361,0,0,0,,0,24,24,17,1,mamá,,,,,
,,,,,,6046dba06dcb8815046f1d4b,676192165fb32c2e1fb7aee6,67d0b2dbb3426713474bd61f,2025-03-11_16h02.36.152,Tarea de decisión léxica,2024.2.5,Win32,16.02564103,,,,,,,,,,,,,,,,,,,,,,,,200.737,202.0065,l,1,0.4796,,0.4796,1,202.0066,202.4849,,,,,,352,MAS,NOWORD,AGR,150,duepo,,el,,202.4851,202.4851,0.558461362,0.001018361,0,0,0,,0,25,25,351,1,vuelo,,,,,
,,,,,,6046dba06dcb8815046f1d4b,676192165fb32c2e1fb7aee6,67d0b2dbb3426713474bd61f,2025-03-11_16h02.36.152,Tarea de decisión léxica,2024.2.5,Win32,16.02564103,,,,,,,,,,,,,,,,,,,,,,,,202.4858,203.7465,l,1,0.4838,,0.4838,1,203.7466,204.2346,,,,,,122,MAS,NOWORD,DIS,150,bomo,,la,,204.2358,204.2368,0.558461362,0.001018361,0,0,0,,0,26,26,121,1,hoyo,,,,,
,,,,,,6046dba06dcb8815046f1d4b,676192165fb32c2e1fb7aee6,67d0b2dbb3426713474bd61f,2025-03-11_16h02.36.152,Tarea de decisión léxica,2024.2.5,Win32,16.02564103,,,,,,,,,,,,,,,,,,,,,,,,204.2372,205.4989,l,1,0.4834,,0.4834,1,205.4991,205.9749,,,,,,130,MAS,NOWORD,DIS,150,pima,,la,,205.975,205.975,0.558461362,0.001018361,0,0,0,,0,27,27,129,1,oído,,,,,
,,,,,,6046dba06dcb8815046f1d4b,676192165fb32c2e1fb7aee6,67d0b2dbb3426713474bd61f,2025-03-11_16h02.36.152,Tarea de decisión léxica,2024.2.5,Win32,16.02564103,,,,,,,,,,,,,,,,,,,,,,,,205.9757,207.2498,a,1,0.4803,,0.4803,1,207.2499,207.7202,,,,,,63,FEM,WORD,AGR,150,luna,,la,,207.7202,207.7203,0.558461362,0.001018361,0,0,0,,0,28,28,62,1,funa,,,,,
,,,,,,6046dba06dcb8815046f1d4b,676192165fb32c2e1fb7aee6,67d0b2dbb3426713474bd61f,2025-03-11_16h02.36.152,Tarea de decisión léxica,2024.2.5,Win32,16.02564103,,,,,,,,,,,,,,,,,,,,,,,,207.7211,209.0288,l,1,0.5795,,0.5795,1,209.0289,209.5202,,,,,,190,MAS,NOWORD,DIS,150,muvo,,la,,209.5203,209.5204,0.558461362,0.001018361,0,0,0,,0,29,29,189,1,puño,,,,,
,,,,,,6046dba06dcb8815046f1d4b,676192165fb32c2e1fb7aee6,67d0b2dbb3426713474bd61f,2025-03-11_16h02.36.152,Tarea de decisión léxica,2024.2.5,Win32,16.02564103,,,,,,,,,,,,,,,,,,,,,,,,209.5215,210.7879,l,1,0.4737,,0.4737,1,210.7879,211.2747,,,,,,176,FEM,NOWORD,AGR,150,hosa,,la,,211.2747,211.2749,0.558461362,0.001018361,0,0,0,,0,30,30,175,1,goma,,,,,
,,,,,,6046dba06dcb8815046f1d4b,676192165fb32c2e1fb7aee6,67d0b2dbb3426713474bd61f,2025-03-11_16h02.36.152,Tarea de decisión léxica,2024.2.5,Win32,16.02564103,,,,,,,,,,,,,,,,,,,,,,,,211.2758,212.4146,a,1,0.4068,,0.4068,1,212.4147,212.8964,,,,,,387,FEM,WORD,DIS,150,crema,,el,,212.8972,212.8981,0.558461362,0.001018361,0,0,0,,0,31,31,386,1,bresa,,,,,
,,,,,,6046dba06dcb8815046f1d4b,676192165fb32c2e1fb7aee6,67d0b2dbb3426713474bd61f,2025-03-11_16h02.36.152,Tarea de decisión léxica,2024.2.5,Win32,16.02564103,,,,,,,,,,,,,,,,,,,,,,,,212.8985,214.2585,a,1,0.5741,,0.5741,1,214.2586,214.7291,,,,,,75,MAS,WORD,DIS,150,olor,,la,,214.7292,214.7293,0.558461362,0.001018361,0,0,0,,0,32,32,74,1,ocer,,,,,
,,,,,,6046dba06dcb8815046f1d4b,676192165fb32c2e1fb7aee6,67d0b2dbb3426713474bd61f,2025-03-11_16h02.36.152,Tarea de decisión léxica,2024.2.5,Win32,16.02564103,,,,,,,,,,,,,,,,,,,,,,,,214.7303,215.9901,a,1,0.4759,,0.4759,1,215.9902,216.4553,,,,,,335,FEM,WORD,AGR,150,costa,,la,,216.4553,216.4554,0.558461362,0.001018361,0,0,0,,0,33,33,334,1,pesta,,,,,
,,,,,,6046dba06dcb8815046f1d4b,676192165fb32c2e1fb7aee6,67d0b2dbb3426713474bd61f,2025-03-11_16h02.36.152,Tarea de decisión léxica,2024.2.5,Win32,16.02564103,,,,,,,,,,,,,,,,,,,,,,,,216.4561,217.5794,a,1,0.3412,,0.3412,1,217.5794,218.0556,,,,,,465,FEM,WORD,AGR,150,aguja,,la,,218.0558,218.0558,0.558461362,0.001018361,0,0,0,,0,34,34,464,1,asuba,,,,,
,,,,,,6046dba06dcb8815046f1d4b,676192165fb32c2e1fb7aee6,67d0b2dbb3426713474bd61f,2025-03-11_16h02.36.152,Tarea de decisión léxica,2024.2.5,Win32,16.02564103,,,,,,,,,,,,,,,,,,,,,,,,218.0565,219.2673,a,1,0.4022,,0.4022,1,219.2674,219.7675,,,,,,35,MAS,WORD,DIS,150,pelo,,la,,219.7685,219.7695,0.558461362,0.001018361,0,0,0,,0,35,35,34,1,meno,,,,,
,,,,,,6046dba06dcb8815046f1d4b,676192165fb32c2e1fb7aee6,67d0b2dbb3426713474bd61f,2025-03-11_16h02.36.152,Tarea de decisión léxica,2024.2.5,Win32,16.02564103,,,,,,,,,,,,,,,,,,,,,,,,219.77,220.9142,a,1,0.4095,,0.4095,1,220.9143,221.3868,,,,,,283,MAS,WORD,AGR,150,sueño,,el,,221.3869,221.3869,0.558461362,0.001018361,0,0,0,,0,36,36,282,1,tuevo,,,,,
,,,,,,6046dba06dcb8815046f1d4b,676192165fb32c2e1fb7aee6,67d0b2dbb3426713474bd61f,2025-03-11_16h02.36.152,Tarea de decisión léxica,2024.2.5,Win32,16.02564103,,,,,,,,,,,,,,,,,,,,,,,,221.3877,222.7324,l,1,0.5725,,0.5725,1,222.7326,223.236,,,,,,422,MAS,NOWORD,DIS,150,griso,,la,,223.2361,223.2361,0.558461362,0.001018361,0,0,0,,0,37,37,421,1,primo,,,,,
,,,,,,6046dba06dcb8815046f1d4b,676192165fb32c2e1fb7aee6,67d0b2dbb3426713474bd61f,2025-03-11_16h02.36.152,Tarea de decisión léxica,2024.2.5,Win32,16.02564103,,,,,,,,,,,,,,,,,,,,,,,,223.2369,224.4031,a,1,0.4212,,0.4212,1,224.4032,224.8831,,,,,,83,FEM,WORD,AGR,150,bala,,la,,224.8831,224.8832,0.558461362,0.001018361,0,0,0,,0,38,38,82,1,taga,,,,,
,,,,,,6046dba06dcb8815046f1d4b,676192165fb32c2e1fb7aee6,67d0b2dbb3426713474bd61f,2025-03-11_16h02.36.152,Tarea de decisión léxica,2024.2.5,Win32,16.02564103,,,,,,,,,,,,,,,,,,,,,,,,224.884,226.2846,l,1,0.5977,,0.5977,1,226.2846,226.7687,,,,,,382,MAS,NOWORD,DIS,150,nusor,,la,,226.7687,226.7688,0.558461362,0.001018361,0,0,0,,0,39,39,381,1,humor,,,,,
,,,,,,6046dba06dcb8815046f1d4b,676192165fb32c2e1fb7aee6,67d0b2dbb3426713474bd61f,2025-03-11_16h02.36.152,Tarea de decisión léxica,2024.2.5,Win32,16.02564103,,,,,,,,,,,,,,,,,,,,,,,,226.7698,228.369,a,0,0.8012,,0.8012,0,228.3696,228.8576,,,,,,286,MAS,NOWORD,DIS,150,echor,,la,,228.8585,228.8594,0.558461362,0.001018361,0,0,0,,0,40,40,285,1,error,,,,,
,,,,,,6046dba06dcb8815046f1d4b,676192165fb32c2e1fb7aee6,67d0b2dbb3426713474bd61f,2025-03-11_16h02.36.152,Tarea de decisión léxica,2024.2.5,Win32,16.02564103,,,,,,,,,,,,,,,,,,,,,,,,228.8598,230.1938,l,1,0.5952,,0.5952,1,230.1946,230.671,,,,,,342,MAS,NOWORD,DIS,150,daror,,la,,230.671,230.6711,0.558461362,0.001018361,0,0,0,,0,41,41,341,1,valor,,,,,
,,,,,,6046dba06dcb8815046f1d4b,676192165fb32c2e1fb7aee6,67d0b2dbb3426713474bd61f,2025-03-11_16h02.36.152,Tarea de decisión léxica,2024.2.5,Win32,16.02564103,,,,,,,,,,,,,,,,,,,,,,,,230.6722,232.0197,a,1,0.5617,,0.5617,1,232.0197,232.4967,,,,,,263,FEM,WORD,AGR,150,vista,,la,,232.4967,232.4967,0.558461362,0.001018361,0,0,0,,0,42,42,262,1,dosta,,,,,
,,,,,,6046dba06dcb8815046f1d4b,676192165fb32c2e1fb7aee6,67d0b2dbb3426713474bd61f,2025-03-11_16h02.36.152,Tarea de decisión léxica,2024.2.5,Win32,16.02564103,,,,,,,,,,,,,,,,,,,,,,,,232.4975,233.9233,l,1,0.6406,,0.6406,1,233.9234,234.394,,,,,,344,FEM,NOWORD,AGR,150,trada,,la,,234.394,234.3941,0.558461362,0.001018361,0,0,0,,0,43,43,343,1,plata,,,,,
,,,,,,6046dba06dcb8815046f1d4b,676192165fb32c2e1fb7aee6,67d0b2dbb3426713474bd61f,2025-03-11_16h02.36.152,Tarea de decisión léxica,2024.2.5,Win32,16.02564103,,,,,,,,,,,,,,,,,,,,,,,,234.3948,235.6932,l,1,0.5061,,0.5061,1,235.6932,236.1783,,,,,,118,MAS,NOWORD,DIS,150,movo,,la,,236.1783,236.1783,0.558461362,0.001018361,0,0,0,,0,44,44,117,1,palo,,,,,
,,,,,,6046dba06dcb8815046f1d4b,676192165fb32c2e1fb7aee6,67d0b2dbb3426713474bd61f,2025-03-11_16h02.36.152,Tarea de decisión léxica,2024.2.5,Win32,16.02564103,,,,,,,,,,,,,,,,,,,,,,,,236.179,237.5399,l,1,0.562,,0.562,1,237.54,238.012,,,,,,74,MAS,NOWORD,DIS,150,omio,,la,,238.0127,238.0137,0.558461362,0.001018361,0,0,0,,0,45,45,73,1,odio,,,,,
,,,,,,6046dba06dcb8815046f1d4b,676192165fb32c2e1fb7aee6,67d0b2dbb3426713474bd61f,2025-03-11_16h02.36.152,Tarea de decisión léxica,2024.2.5,Win32,16.02564103,,,,,,,,,,,,,,,,,,,,,,,,238.0141,239.4652,l,1,0.7213,0.0002,0.7213,1,239.4652,239.9606,,,,,,432,MAS,NOWORD,AGR,150,tetor,,el,,239.9607,239.9607,0.558461362,0.001018361,0,0,0,,0,46,46,431,1,motor,,,,,
,,,,,,6046dba06dcb8815046f1d4b,676192165fb32c2e1fb7aee6,67d0b2dbb3426713474bd61f,2025-03-11_16h02.36.152,Tarea de decisión léxica,2024.2.5,Win32,16.02564103,,,,,,,,,,,,,,,,,,,,,,,,239.9614,241.1774,a,1,0.4846,,0.4846,1,241.1776,241.6761,,,,,,77,MAS,WORD,AGR,150,loco,,el,,241.6762,241.6762,0.558461362,0.001018361,0,0,0,,0,47,47,76,1,fodo,,,,,
,,,,,,6046dba06dcb8815046f1d4b,676192165fb32c2e1fb7aee6,67d0b2dbb3426713474bd61f,2025-03-11_16h02.36.152,Tarea de decisión léxica,2024.2.5,Win32,16.02564103,,,,,,,,,,,,,,,,,,,,,,,,241.677,242.9594,a,1,0.4802,,0.4802,1,242.9595,243.425,,,,,,15,FEM,WORD,AGR,150,idea,,la,,243.425,243.4251,0.558461362,0.001018361,0,0,0,,0,48,48,14,1,odea,,,,,
,,,,,,6046dba06dcb8815046f1d4b,676192165fb32c2e1fb7aee6,67d0b2dbb3426713474bd61f,2025-03-11_16h02.36.152,Tarea de decisión léxica,2024.2.5,Win32,16.02564103,,,,,,,,,,,,,,,,,,,,,,,,243.4261,244.65,a,1,0.4861,,0.4861,1,244.65,245.1346,,,,,,121,MAS,WORD,AGR,150,hoyo,,el,,245.1346,245.1347,0.558461362,0.001018361,0,0,0,,0,49,49,120,1,bomo,,,,,
,,,,,,6046dba06dcb8815046f1d4b,676192165fb32c2e1fb7aee6,67d0b2dbb3426713474bd61f,2025-03-11_16h02.36.152,Tarea de decisión léxica,2024.2.5,Win32,16.02564103,,,,,,,,,,,,,,,,,,,,,,,,245.1356,246.3206,a,1,0.397,,0.397,1,246.3206,246.792,,,,,,233,FEM,WORD,AGR,150,lana,,la,,246.7927,246.7938,0.558461362,0.001018361,0,0,0,,0,50,50,232,1,fasa,,,,,
,,,,,,6046dba06dcb8815046f1d4b,676192165fb32c2e1fb7aee6,67d0b2dbb3426713474bd61f,2025-03-11_16h02.36.152,Tarea de decisión léxica,2024.2.5,Win32,16.02564103,,,,,,,,,,,,,,,,,,,,,,,,246.7943,247.9214,a,0,0.3409,,0.3409,0,247.922,248.4078,,,,,,390,MAS,NOWORD,DIS,150,cenco,,la,,248.4078,248.4078,0.558461362,0.001018361,0,0,0,,0,51,51,389,1,cerdo,,,,,
,,,,,,6046dba06dcb8815046f1d4b,676192165fb32c2e1fb7aee6,67d0b2dbb3426713474bd61f,2025-03-11_16h02.36.152,Tarea de decisión léxica,2024.2.5,Win32,16.02564103,,,,,,,,,,,,,,,,,,,,,,,,248.4091,249.6091,a,1,0.4085,,0.4085,1,249.6096,250.1004,,,,,,323,FEM,WORD,DIS,150,cinta,,el,,250.1005,250.1005,0.558461362,0.001018361,0,0,0,,0,52,52,322,1,certa,,,,,
,,,,,,6046dba06dcb8815046f1d4b,676192165fb32c2e1fb7aee6,67d0b2dbb3426713474bd61f,2025-03-11_16h02.36.152,Tarea de decisión léxica,2024.2.5,Win32,16.02564103,,,,,,,,,,,,,,,,,,,,,,,,250.1013,251.1567,a,1,0.3228,,0.3228,1,251.1568,251.6352,,,,,,189,MAS,WORD,DIS,150,puño,,la,,251.6353,251.6354,0.558461362,0.001018361,0,0,0,,0,53,53,188,1,muvo,,,,,
,,,,,,6046dba06dcb8815046f1d4b,676192165fb32c2e1fb7aee6,67d0b2dbb3426713474bd61f,2025-03-11_16h02.36.152,Tarea de decisión léxica,2024.2.5,Win32,16.02564103,,,,,,,,,,,,,,,,,,,,,,,,251.6362,252.8542,a,1,0.4269,,0.4269,1,252.8543,253.3475,,,,,,47,MAS,WORD,AGR,150,club,,el,,253.3476,253.3476,0.558461362,0.001018361,0,0,0,,0,54,54,46,1,chub,,,,,
,,,,,,6046dba06dcb8815046f1d4b,676192165fb32c2e1fb7aee6,67d0b2dbb3426713474bd61f,2025-03-11_16h02.36.152,Tarea de decisión léxica,2024.2.5,Win32,16.02564103,,,,,,,,,,,,,,,,,,,,,,,,253.3486,254.5616,a,1,0.49,,0.49,1,254.5617,255.0443,,,,,,203,FEM,WORD,DIS,150,leña,,el,,255.0452,255.0462,0.558461362,0.001018361,0,0,0,,0,55,55,202,1,beja,,,,,
,,,,,,6046dba06dcb8815046f1d4b,676192165fb32c2e1fb7aee6,67d0b2dbb3426713474bd61f,2025-03-11_16h02.36.152,Tarea de decisión léxica,2024.2.5,Win32,16.02564103,,,,,,,,,,,,,,,,,,,,,,,,255.0466,256.3201,a,1,0.4843,,0.4843,1,256.3202,256.8152,,,,,,455,MAS,WORD,DIS,150,reino,,la,,256.8152,256.8152,0.558461362,0.001018361,0,0,0,,0,56,56,454,1,riaso,,,,,
,,,,,,6046dba06dcb8815046f1d4b,676192165fb32c2e1fb7aee6,67d0b2dbb3426713474bd61f,2025-03-11_16h02.36.152,Tarea de decisión léxica,2024.2.5,Win32,16.02564103,,,,,,,,,,,,,,,,,,,,,,,,256.816,257.9966,a,1,0.4059,,0.4059,1,257.9966,258.4729,,,,,,133,FEM,WORD,AGR,150,vaca,,la,,258.473,258.473,0.558461362,0.001018361,0,0,0,,0,57,57,132,1,vesa,,,,,
,,,,,,6046dba06dcb8815046f1d4b,676192165fb32c2e1fb7aee6,67d0b2dbb3426713474bd61f,2025-03-11_16h02.36.152,Tarea de decisión léxica,2024.2.5,Win32,16.02564103,,,,,,,,,,,,,,,,,,,,,,,,258.474,259.5118,a,0,0.252,,0.252,0,259.5123,260.0086,,,,,,384,FEM,NOWORD,AGR,150,brame,,la,,260.0086,260.0087,0.558461362,0.001018361,0,0,0,,0,58,58,383,1,frase,,,,,
,,,,,,6046dba06dcb8815046f1d4b,676192165fb32c2e1fb7aee6,67d0b2dbb3426713474bd61f,2025-03-11_16h02.36.152,Tarea de decisión léxica,2024.2.5,Win32,16.02564103,,,,,,,,,,,,,,,,,,,,,,,,260.0096,261.2397,a,1,0.4683,,0.4683,1,261.2403,261.7031,,,,,,87,MAS,WORD,AGR,150,vaso,,el,,261.704,261.7051,0.558461362,0.001018361,0,0,0,,0,59,59,86,1,damo,,,,,
,,,,,,6046dba06dcb8815046f1d4b,676192165fb32c2e1fb7aee6,67d0b2dbb3426713474bd61f,2025-03-11_16h02.36.152,Tarea de decisión léxica,2024.2.5,Win32,16.02564103,,,,,,,,,,,,,,,,,,,,,,,,261.7054,263.0806,l,1,0.5761,,0.5761,1,263.0807,263.5676,,,,,,264,FEM,NOWORD,AGR,150,dosta,,la,,263.5677,263.5678,0.558461362,0.001018361,0,0,0,,0,60,60,263,1,vista,,,,,
,,,,,,6046dba06dcb8815046f1d4b,676192165fb32c2e1fb7aee6,67d0b2dbb3426713474bd61f,2025-03-11_16h02.36.152,Tarea de decisión léxica,2024.2.5,Win32,16.02564103,,,,,,,,,,,,,,,,,,,,,,,,263.5685,264.8454,a,1,0.4939,,0.4939,1,264.8455,265.3266,,,,,,271,FEM,WORD,AGR,150,señal,,la,,265.3266,265.3266,0.558461362,0.001018361,0,0,0,,0,61,61,270,1,refal,,,,,
,,,,,,6046dba06dcb8815046f1d4b,676192165fb32c2e1fb7aee6,67d0b2dbb3426713474bd61f,2025-03-11_16h02.36.152,Tarea de decisión léxica,2024.2.5,Win32,16.02564103,,,,,,,,,,,,,,,,,,,,,,,,265.3274,266.5548,l,0,0.4174,,0.4174,0,266.5554,267.0568,,,,,,475,FEM,WORD,DIS,150,manta,,el,,267.0569,267.0569,0.558461362,0.001018361,0,0,0,,0,62,62,474,1,mucta,,,,,
,,,,,,6046dba06dcb8815046f1d4b,676192165fb32c2e1fb7aee6,67d0b2dbb3426713474bd61f,2025-03-11_16h02.36.152,Tarea de decisión léxica,2024.2.5,Win32,16.02564103,,,,,,,,,,,,,,,,,,,,,,,,267.0578,268.239,a,1,0.4012,,0.4012,1,268.2396,268.7136,,,,,,97,MAS,WORD,AGR,150,mono,,el,,268.7136,268.7137,0.558461362,0.001018361,0,0,0,,0,63,63,96,1,fopo,,,,,
,,,,,,6046dba06dcb8815046f1d4b,676192165fb32c2e1fb7aee6,67d0b2dbb3426713474bd61f,2025-03-11_16h02.36.152,Tarea de decisión léxica,2024.2.5,Win32,16.02564103,,,,,,,,,,,,,,,,,,,,,,,,268.7145,269.9476,l,1,0.4531,,0.4531,1,269.9478,270.4249,,,,,,414,FEM,NOWORD,DIS,150,bieda,,el,,270.4255,270.4264,0.558461362,0.001018361,0,0,0,,0,64,64,413,1,rueda,,,,,
,,,,,,6046dba06dcb8815046f1d4b,676192165fb32c2e1fb7aee6,67d0b2dbb3426713474bd61f,2025-03-11_16h02.36.152,Tarea de decisión léxica,2024.2.5,Win32,16.02564103,,,,,,,,,,,,,,,,,,,,,,,,270.4268,271.6472,l,1,0.4638,,0.4638,1,271.6473,272.1054,,,,,,314,MAS,NOWORD,DIS,150,govio,,la,,272.1054,272.1055,0.558461362,0.001018361,0,0,0,,0,65,65,313,1,novio,,,,,
,,,,,,6046dba06dcb8815046f1d4b,676192165fb32c2e1fb7aee6,67d0b2dbb3426713474bd61f,2025-03-11_16h02.36.152,Tarea de decisión léxica,2024.2.5,Win32,16.02564103,,,,,,,,,,,,,,,,,,,,,,,,272.1063,273.5925,l,1,0.7109,,0.7109,1,273.5925,274.0725,,,,,,474,FEM,NOWORD,DIS,150,felia,,el,,274.0726,274.0726,0.558461362,0.001018361,0,0,0,,0,66,66,473,1,feria,,,,,
,,,,,,6046dba06dcb8815046f1d4b,676192165fb32c2e1fb7aee6,67d0b2dbb3426713474bd61f,2025-03-11_16h02.36.152,Tarea de decisión léxica,2024.2.5,Win32,16.02564103,,,,,,,,,,,,,,,,,,,,,,,,274.0734,275.3407,l,1,0.4847,,0.4847,1,275.3408,275.8121,,,,,,36,MAS,NOWORD,AGR,150,meno,,el,,275.8122,275.8122,0.558461362,0.001018361,0,0,0,,0,67,67,35,1,pelo,,,,,
,,,,,,6046dba06dcb8815046f1d4b,676192165fb32c2e1fb7aee6,67d0b2dbb3426713474bd61f,2025-03-11_16h02.36.152,Tarea de decisión léxica,2024.2.5,Win32,16.02564103,,,,,,,,,,,,,,,,,,,,,,,,275.8132,277.0713,l,0,0.4782,,0.4782,0,277.072,277.5458,,,,,,313,MAS,WORD,DIS,150,novio,,la,,277.5458,277.5459,0.558461362,0.001018361,0,0,0,,0,68,68,312,1,govio,,,,,
,,,,,,6046dba06dcb8815046f1d4b,676192165fb32c2e1fb7aee6,67d0b2dbb3426713474bd61f,2025-03-11_16h02.36.152,Tarea de decisión léxica,2024.2.5,Win32,16.02564103,,,,,,,,,,,,,,,,,,,,,,,,277.5466,278.8903,l,1,0.5619,,0.5619,1,278.8908,279.3725,,,,,,434,MAS,NOWORD,DIS,150,durco,,la,,279.3733,279.3747,0.558461362,0.001018361,0,0,0,,0,69,69,433,1,disco,,,,,
,,,,,,6046dba06dcb8815046f1d4b,676192165fb32c2e1fb7aee6,67d0b2dbb3426713474bd61f,2025-03-11_16h02.36.152,Tarea de decisión léxica,2024.2.5,Win32,16.02564103,,,,,,,,,,,,,,,,,,,,,,,,279.3753,280.5894,a,1,0.4845,,0.4845,1,280.5895,281.0986,,,,,,57,MAS,WORD,AGR,150,dedo,,el,,281.0986,281.0986,0.558461362,0.001018361,0,0,0,,0,70,70,56,1,heco,,,,,
,,,,,,6046dba06dcb8815046f1d4b,676192165fb32c2e1fb7aee6,67d0b2dbb3426713474bd61f,2025-03-11_16h02.36.152,Tarea de decisión léxica,2024.2.5,Win32,16.02564103,,,,,,,,,,,,,,,,,,,,,,,,281.0995,282.2761,a,1,0.393,,0.393,1,282.2761,282.7505,,,,,,383,FEM,WORD,DIS,150,frase,,el,,282.7506,282.7506,0.558461362,0.001018361,0,0,0,,0,71,71,382,1,brame,,,,,
,,,,,,6046dba06dcb8815046f1d4b,676192165fb32c2e1fb7aee6,67d0b2dbb3426713474bd61f,2025-03-11_16h02.36.152,Tarea de decisión léxica,2024.2.5,Win32,16.02564103,,,,,,,,,,,,,,,,,,,,,,,,282.7513,284.0415,l,1,0.485,,0.485,1,284.0416,284.5146,,,,,,394,FEM,NOWORD,DIS,150,ashea,,el,,284.5147,284.5148,0.558461362,0.001018361,0,0,0,,0,72,72,393,1,aldea,,,,,
,,,,,,6046dba06dcb8815046f1d4b,676192165fb32c2e1fb7aee6,67d0b2dbb3426713474bd61f,2025-03-11_16h02.36.152,Tarea de decisión léxica,2024.2.5,Win32,16.02564103,,,,,,,,,,,,,,,,,,,,,,,,284.5155,285.9332,a,1,0.6405,,0.6405,1,285.9334,286.3953,,,,,,369,MAS,WORD,AGR,150,ruido,,el,,286.3954,286.3954,0.558461362,0.001018361,0,0,0,,0,73,73,368,1,rioco,,,,,
,,,,,,6046dba06dcb8815046f1d4b,676192165fb32c2e1fb7aee6,67d0b2dbb3426713474bd61f,2025-03-11_16h02.36.152,Tarea de decisión léxica,2024.2.5,Win32,16.02564103,,,,,,,,,,,,,,,,,,,,,,,,286.3963,287.5647,a,0,0.3935,,0.3935,0,287.5652,288.0418,,,,,,358,FEM,NOWORD,DIS,150,gruba,,el,,288.0425,288.0435,0.558461362,0.001018361,0,0,0,,0,74,74,357,1,bruja,,,,,
,,,,,,6046dba06dcb8815046f1d4b,676192165fb32c2e1fb7aee6,67d0b2dbb3426713474bd61f,2025-03-11_16h02.36.152,Tarea de decisión léxica,2024.2.5,Win32,16.02564103,,,,,,,,,,,,,,,,,,,,,,,,288.0439,289.2603,a,1,0.4891,,0.4891,1,289.2608,289.7574,,,,,,9,MAS,WORD,DIS,150,tipo,,la,,289.7574,289.7575,0.558461362,0.001018361,0,0,0,,0,75,75,8,1,sibo,,,,,
,,,,,,6046dba06dcb8815046f1d4b,676192165fb32c2e1fb7aee6,67d0b2dbb3426713474bd61f,2025-03-11_16h02.36.152,Tarea de decisión léxica,2024.2.5,Win32,16.02564103,,,,,,,,,,,,,,,,,,,,,,,,289.7582,290.9046,a,1,0.4174,,0.4174,1,290.9047,291.381,,,,,,51,FEM,WORD,AGR,150,caja,,la,,291.3811,291.3811,0.558461362,0.001018361,0,0,0,,0,76,76,50,1,mava,,,,,
,,,,,,6046dba06dcb8815046f1d4b,676192165fb32c2e1fb7aee6,67d0b2dbb3426713474bd61f,2025-03-11_16h02.36.152,Tarea de decisión léxica,2024.2.5,Win32,16.02564103,,,,,,,,,,,,,,,,,,,,,,,,291.3819,292.5945,l,1,0.4107,,0.4107,1,292.5945,293.0791,,,,,,170,MAS,NOWORD,DIS,150,mibo,,la,,293.0791,293.0792,0.558461362,0.001018361,0,0,0,,0,77,77,169,1,cubo,,,,,
,,,,,,6046dba06dcb8815046f1d4b,676192165fb32c2e1fb7aee6,67d0b2dbb3426713474bd61f,2025-03-11_16h02.36.152,Tarea de decisión léxica,2024.2.5,Win32,16.02564103,,,,,,,,,,,,,,,,,,,,,,,,293.0799,294.2066,a,1,0.3211,,0.3211,1,294.2066,294.6895,,,,,,451,FEM,WORD,AGR,150,fruta,,la,,294.6896,294.6896,0.558461362,0.001018361,0,0,0,,0,78,78,450,1,clita,,,,,
,,,,,,6046dba06dcb8815046f1d4b,676192165fb32c2e1fb7aee6,67d0b2dbb3426713474bd61f,2025-03-11_16h02.36.152,Tarea de decisión léxica,2024.2.5,Win32,16.02564103,,,,,,,,,,,,,,,,,,,,,,,,294.6905,295.8915,a,1,0.4213,,0.4213,1,295.8916,296.3777,,,,,,463,FEM,WORD,DIS,150,cabra,,el,,296.3783,296.3792,0.558461362,0.001018361,0,0,0,,0,79,79,462,1,matla,,,,,
,,,,,,6046dba06dcb8815046f1d4b,676192165fb32c2e1fb7aee6,67d0b2dbb3426713474bd61f,2025-03-11_16h02.36.152,Tarea de decisión léxica,2024.2.5,Win32,16.02564103,,,,,,,,,,,,,,,,,,,,,,,,296.3796,297.6593,l,1,0.498,,0.498,1,297.6593,298.1307,,,,,,436,MAS,NOWORD,AGR,150,ricno,,el,,298.1308,298.1309,0.558461362,0.001018361,0,0,0,,0,80,80,435,1,ritmo,,,,,
,,,,,,6046dba06dcb8815046f1d4b,676192165fb32c2e1fb7aee6,67d0b2dbb3426713474bd61f,2025-03-11_16h02.36.152,Tarea de decisión léxica,2024.2.5,Win32,16.02564103,,,,,,,,,,,,,,,,,,,,,,,,298.1316,299.4236,a,1,0.4932,,0.4932,1,299.4237,299.8943,,,,,,361,FEM,WORD,DIS,150,torre,,el,,299.8943,299.8944,0.558461362,0.001018361,0,0,0,,0,81,81,360,1,solle,,,,,
,,,,,,6046dba06dcb8815046f1d4b,676192165fb32c2e1fb7aee6,67d0b2dbb3426713474bd61f,2025-03-11_16h02.36.152,Tarea de decisión léxica,2024.2.5,Win32,16.02564103,,,,,,,,,,,,,,,,,,,,,,,,299.8953,301.0296,a,1,0.3434,,0.3434,1,301.0297,301.5135,,,,,,53,FEM,WORD,DIS,150,boda,,el,,301.5136,301.5136,0.558461362,0.001018361,0,0,0,,0,82,82,52,1,rora,,,,,
,,,,,,6046dba06dcb8815046f1d4b,676192165fb32c2e1fb7aee6,67d0b2dbb3426713474bd61f,2025-03-11_16h02.36.152,Tarea de decisión léxica,2024.2.5,Win32,16.02564103,,,,,,,,,,,,,,,,,,,,,,,,301.5143,302.8784,l,1,0.5655,,0.5655,1,302.8785,303.358,,,,,,368,MAS,NOWORD,AGR,150,rerob,,el,,303.3587,303.3597,0.558461362,0.001018361,0,0,0,,0,83,83,367,1,reloj,,,,,
,,,,,,6046dba06dcb8815046f1d4b,676192165fb32c2e1fb7aee6,67d0b2dbb3426713474bd61f,2025-03-11_16h02.36.152,Tarea de decisión léxica,2024.2.5,Win32,16.02564103,,,,,,,,,,,,,,,,,,,,,,,,303.36,304.6006,a,1,0.4656,,0.4656,1,304.6008,305.0813,,,,,,71,FEM,WORD,DIS,150,isla,,el,,305.0814,305.0814,0.558461362,0.001018361,0,0,0,,0,84,84,70,1,urla,,,,,
,,,,,,6046dba06dcb8815046f1d4b,676192165fb32c2e1fb7aee6,67d0b2dbb3426713474bd61f,2025-03-11_16h02.36.152,Tarea de decisión léxica,2024.2.5,Win32,16.02564103,,,,,,,,,,,,,,,,,,,,,,,,305.0822,306.1301,a,1,0.2451,,0.2451,1,306.1301,306.6064,,,,,,1,FEM,WORD,AGR,150,casa,,la,,306.6064,306.6064,0.558461362,0.001018361,0,0,0,,0,85,85,0,1,mada,,,,,
,,,,,,6046dba06dcb8815046f1d4b,676192165fb32c2e1fb7aee6,67d0b2dbb3426713474bd61f,2025-03-11_16h02.36.152,Tarea de decisión léxica,2024.2.5,Win32,16.02564103,,,,,,,,,,,,,,,,,,,,,,,,306.6072,307.9706,a,1,0.5642,,0.5642,1,307.9706,308.4721,,,,,,419,MAS,WORD,AGR,150,truco,,el,,308.4722,308.4722,0.558461362,0.001018361,0,0,0,,0,86,86,418,1,chudo,,,,,
,,,,,,6046dba06dcb8815046f1d4b,676192165fb32c2e1fb7aee6,67d0b2dbb3426713474bd61f,2025-03-11_16h02.36.152,Tarea de decisión léxica,2024.2.5,Win32,16.02564103,,,,,,,,,,,,,,,,,,,,,,,,308.4733,309.6828,a,1,0.4038,,0.4038,1,309.6829,310.1498,,,,,,329,MAS,WORD,DIS,150,hueso,,la,,310.1498,310.15,0.558461362,0.001018361,0,0,0,,0,87,87,328,1,nueno,,,,,
,,,,,,6046dba06dcb8815046f1d4b,676192165fb32c2e1fb7aee6,67d0b2dbb3426713474bd61f,2025-03-11_16h02.36.152,Tarea de decisión léxica,2024.2.5,Win32,16.02564103,,,,,,,,,,,,,,,,,,,,,,,,310.1507,311.279,a,1,0.3225,,0.3225,1,311.2791,311.764,,,,,,21,MAS,WORD,AGR,150,plan,,el,,311.7647,311.7656,0.558461362,0.001018361,0,0,0,,0,88,88,20,1,blan,,,,,
,,,,,,6046dba06dcb8815046f1d4b,676192165fb32c2e1fb7aee6,67d0b2dbb3426713474bd61f,2025-03-11_16h02.36.152,Tarea de decisión léxica,2024.2.5,Win32,16.02564103,,,,,,,,,,,,,,,,,,,,,,,,311.766,312.957,a,1,0.4719,,0.4719,1,312.9571,313.4391,,,,,,237,MAS,WORD,AGR,150,nudo,,el,,313.4391,313.4392,0.558461362,0.001018361,0,0,0,,0,89,89,236,1,huco,,,,,
,,,,,,6046dba06dcb8815046f1d4b,676192165fb32c2e1fb7aee6,67d0b2dbb3426713474bd61f,2025-03-11_16h02.36.152,Tarea de decisión léxica,2024.2.5,Win32,16.02564103,,,,,,,,,,,,,,,,,,,,,,,,313.44,314.7144,l,1,0.4942,,0.4942,1,314.7145,315.1876,,,,,,194,FEM,NOWORD,DIS,150,foda,,el,,315.1876,315.1877,0.558461362,0.001018361,0,0,0,,0,90,90,193,1,loca,,,,,
,,,,,,6046dba06dcb8815046f1d4b,676192165fb32c2e1fb7aee6,67d0b2dbb3426713474bd61f,2025-03-11_16h02.36.152,Tarea de decisión léxica,2024.2.5,Win32,16.02564103,,,,,,,,,,,,,,,,,,,,,,,,315.1886,316.5206,l,1,0.5551,,0.5551,1,316.5206,316.9909,,,,,,162,MAS,NOWORD,DIS,150,bopo,,la,,316.991,316.991,0.558461362,0.001018361,0,0,0,,0,91,91,161,1,coro,,,,,
,,,,,,6046dba06dcb8815046f1d4b,676192165fb32c2e1fb7aee6,67d0b2dbb3426713474bd61f,2025-03-11_16h02.36.152,Tarea de decisión léxica,2024.2.5,Win32,16.02564103,,,,,,,,,,,,,,,,,,,,,,,,316.9918,318.2549,a,1,0.479,,0.479,1,318.255,318.7454,,,,,,303,MAS,WORD,DIS,150,barco,,la,,318.7454,318.7455,0.558461362,0.001018361,0,0,0,,0,92,92,302,1,lanco,,,,,
,,,,,,6046dba06dcb8815046f1d4b,676192165fb32c2e1fb7aee6,67d0b2dbb3426713474bd61f,2025-03-11_16h02.36.152,Tarea de decisión léxica,2024.2.5,Win32,16.02564103,,,,,,,,,,,,,,,,,,,,,,,,318.7463,319.9442,a,0,0.3962,,0.3962,0,319.9449,320.4439,,,,,,164,FEM,NOWORD,AGR,150,laga,,la,,320.4448,320.4459,0.558461362,0.001018361,0,0,0,,0,93,93,163,1,fama,,,,,
,,,,,,6046dba06dcb8815046f1d4b,676192165fb32c2e1fb7aee6,67d0b2dbb3426713474bd61f,2025-03-11_16h02.36.152,Tarea de decisión léxica,2024.2.5,Win32,16.02564103,,,,,,,,,,,,,,,,,,,,,,,,320.4463,321.829,a,1,0.5687,,0.5687,1,321.8302,322.3185,,,,,,43,FEM,WORD,DIS,150,pena,,el,,322.3186,322.3187,0.558461362,0.001018361,0,0,0,,0,94,94,42,1,meda,,,,,
,,,,,,6046dba06dcb8815046f1d4b,676192165fb32c2e1fb7aee6,67d0b2dbb3426713474bd61f,2025-03-11_16h02.36.152,Tarea de decisión léxica,2024.2.5,Win32,16.02564103,,,,,,,,,,,,,,,,,,,,,,,,322.3195,323.5832,l,1,0.4711,,0.4711,1,323.5833,324.0769,,,,,,306,MAS,NOWORD,DIS,150,adiol,,la,,324.0769,324.077,0.558461362,0.001018361,0,0,0,,0,95,95,305,1,avión,,,,,
,,,,,,6046dba06dcb8815046f1d4b,676192165fb32c2e1fb7aee6,67d0b2dbb3426713474bd61f,2025-03-11_16h02.36.152,Tarea de decisión léxica,2024.2.5,Win32,16.02564103,,,,,,,,,,,,,,,,,,,,,,,,324.0776,325.2817,l,1,0.4749,,0.4749,1,325.2819,325.7768,,,,,,16,FEM,NOWORD,AGR,150,odea,,la,,325.7768,325.7769,0.558461362,0.001018361,0,0,0,,0,96,96,15,1,idea,,,,,
,,,,,,6046dba06dcb8815046f1d4b,676192165fb32c2e1fb7aee6,67d0b2dbb3426713474bd61f,2025-03-11_16h02.36.152,Tarea de decisión léxica,2024.2.5,Win32,16.02564103,,,,,,,,,,,,,,,,,,,,,,,,325.7778,327.07,l,1,0.5672,,0.5672,1,327.0702,327.546,,,,,,300,FEM,NOWORD,AGR,150,bosga,,la,,327.546,327.5461,0.558461362,0.001018361,0,0,0,,0,97,97,299,1,bolsa,,,,,
,,,,,,6046dba06dcb8815046f1d4b,676192165fb32c2e1fb7aee6,67d0b2dbb3426713474bd61f,2025-03-11_16h02.36.152,Tarea de decisión léxica,2024.2.5,Win32,16.02564103,,,,,,,,,,,,,,,,,,,,,,,,327.5469,328.8384,l,1,0.4932,,0.4932,1,328.8385,329.3436,,,,,,116,FEM,NOWORD,AGR,150,haca,,la,,329.3443,329.3453,0.558461362,0.001018361,0,0,0,,0,98,98,115,1,pata,,,,,
,,,,,,6046dba06dcb8815046f1d4b,676192165fb32c2e1fb7aee6,67d0b2dbb3426713474bd61f,2025-03-11_16h02.36.152,Tarea de decisión léxica,2024.2.5,Win32,16.02564103,,,,,,,,,,,,,,,,,,,,,,,,329.3457,330.652,a,1,0.5751,,0.5751,1,330.6521,331.1296,,,,,,117,MAS,WORD,AGR,150,palo,,el,,331.1296,331.1297,0.558461362,0.001018361,0,0,0,,0,99,99,116,1,movo,,,,,
,,,,,,6046dba06dcb8815046f1d4b,676192165fb32c2e1fb7aee6,67d0b2dbb3426713474bd61f,2025-03-11_16h02.36.152,Tarea de decisión léxica,2024.2.5,Win32,16.02564103,,,,,,,,,,,,,,,,,,,,,,,,331.1304,332.5753,a,1,0.6434,,0.6434,1,332.5754,333.0387,,,,,,163,FEM,WORD,AGR,150,fama,,la,,333.0387,333.0388,0.558461362,0.001018361,0,0,0,,0,100,100,162,1,laga,,,,,
,,,,,,6046dba06dcb8815046f1d4b,676192165fb32c2e1fb7aee6,67d0b2dbb3426713474bd61f,2025-03-11_16h02.36.152,Tarea de decisión léxica,2024.2.5,Win32,16.02564103,,,,,,,,,,,,,,,,,,,,,,,,333.0396,334.3171,l,1,0.4897,,0.4897,1,334.3171,334.785,,,,,,356,FEM,NOWORD,AGR,150,bepla,,la,,334.7851,334.7851,0.558461362,0.001018361,0,0,0,,0,101,101,355,1,regla,,,,,
,,,,,,6046dba06dcb8815046f1d4b,676192165fb32c2e1fb7aee6,67d0b2dbb3426713474bd61f,2025-03-11_16h02.36.152,Tarea de decisión léxica,2024.2.5,Win32,16.02564103,,,,,,,,,,,,,,,,,,,,,,,,334.7859,335.989,l,0,0.4007,,0.4007,0,335.9895,336.4763,,,,,,209,MAS,WORD,DIS,150,velo,,la,,336.4763,336.4764,0.558461362,0.001018361,0,0,0,,0,102,102,208,1,dero,,,,,
,,,,,,6046dba06dcb8815046f1d4b,676192165fb32c2e1fb7aee6,67d0b2dbb3426713474bd61f,2025-03-11_16h02.36.152,Tarea de decisión léxica,2024.2.5,Win32,16.02564103,,,,,,,,,,,,,,,,,,,,,,,,336.4772,337.5175,a,1,0.2436,,0.2436,1,337.5181,337.9909,,,,,,353,FEM,WORD,AGR,150,celda,,la,,337.9917,337.9926,0.558461362,0.001018361,0,0,0,,0,103,103,352,1,cezca,,,,,
,,,,,,6046dba06dcb8815046f1d4b,676192165fb32c2e1fb7aee6,67d0b2dbb3426713474bd61f,2025-03-11_16h02.36.152,Tarea de decisión léxica,2024.2.5,Win32,16.02564103,,,,,,,,,,,,,,,,,,,,,,,,337.9931,339.2548,a,1,0.4823,,0.4823,1,339.2549,339.7252,,,,,,443,MAS,WORD,AGR,150,salón,,el,,339.7253,339.7253,0.558461362,0.001018361,0,0,0,,0,104,104,442,1,taron,,,,,
,,,,,,6046dba06dcb8815046f1d4b,676192165fb32c2e1fb7aee6,67d0b2dbb3426713474bd61f,2025-03-11_16h02.36.152,Tarea de decisión léxica,2024.2.5,Win32,16.02564103,,,,,,,,,,,,,,,,,,,,,,,,339.726,340.7881,a,0,0.2611,,0.2611,0,340.7888,341.2701,,,,,,180,MAS,NOWORD,AGR,150,sono,,el,,341.2702,341.2702,0.558461362,0.001018361,0,0,0,,0,105,105,179,1,toro,,,,,
,,,,,,6046dba06dcb8815046f1d4b,676192165fb32c2e1fb7aee6,67d0b2dbb3426713474bd61f,2025-03-11_16h02.36.152,Tarea de decisión léxica,2024.2.5,Win32,16.02564103,,,,,,,,,,,,,,,,,,,,,,,,341.271,342.4097,a,1,0.4055,,0.4055,1,342.4103,342.9003,,,,,,421,MAS,WORD,DIS,150,primo,,la,,342.9004,342.9004,0.558461362,0.001018361,0,0,0,,0,106,106,420,1,griso,,,,,
,,,,,,6046dba06dcb8815046f1d4b,676192165fb32c2e1fb7aee6,67d0b2dbb3426713474bd61f,2025-03-11_16h02.36.152,Tarea de decisión léxica,2024.2.5,Win32,16.02564103,,,,,,,,,,,,,,,,,,,,,,,,342.9012,344.1041,a,1,0.4156,,0.4156,1,344.1041,344.5623,,,,,,359,MAS,WORD,AGR,150,calor,,el,,344.5629,344.5639,0.558461362,0.001018361,0,0,0,,0,107,107,358,1,cacer,,,,,
,,,,,,6046dba06dcb8815046f1d4b,676192165fb32c2e1fb7aee6,67d0b2dbb3426713474bd61f,2025-03-11_16h02.36.152,Tarea de decisión léxica,2024.2.5,Win32,16.02564103,,,,,,,,,,,,,,,,,,,,,,,,344.5643,345.7809,l,1,0.4823,,0.4823,1,345.7809,346.2548,,,,,,246,FEM,NOWORD,DIS,150,pafle,,el,,346.2548,346.2549,0.558461362,0.001018361,0,0,0,,0,108,108,245,1,madre,,,,,
,,,,,,6046dba06dcb8815046f1d4b,676192165fb32c2e1fb7aee6,67d0b2dbb3426713474bd61f,2025-03-11_16h02.36.152,Tarea de decisión léxica,2024.2.5,Win32,16.02564103,,,,,,,,,,,,,,,,,,,,,,,,346.2558,347.4681,a,1,0.4829,,0.4829,1,347.4682,347.9619,,,,,,141,FEM,WORD,DIS,150,cruz,,el,,347.962,347.9621,0.558461362,0.001018361,0,0,0,,0,109,109,140,1,sina,,,,,
,,,,,,6046dba06dcb8815046f1d4b,676192165fb32c2e1fb7aee6,67d0b2dbb3426713474bd61f,2025-03-11_16h02.36.152,Tarea de decisión léxica,2024.2.5,Win32,16.02564103,,,,,,,,,,,,,,,,,,,,,,,,347.9629,349.1879,a,1,0.4197,,0.4197,1,349.1879,349.6587,,,,,,461,FEM,WORD,AGR,150,tabla,,la,,349.6587,349.6587,0.558461362,0.001018361,0,0,0,,0,110,110,460,1,pagra,,,,,
,,,,,,6046dba06dcb8815046f1d4b,676192165fb32c2e1fb7aee6,67d0b2dbb3426713474bd61f,2025-03-11_16h02.36.152,Tarea de decisión léxica,2024.2.5,Win32,16.02564103,,,,,,,,,,,,,,,,,,,,,,,,349.6598,351.1305,a,1,0.7334,,0.7334,1,351.1306,351.6254,,,,,,235,FEM,WORD,DIS,150,grúa,,el,,351.6254,351.6255,0.558461362,0.001018361,0,0,0,,0,111,111,234,1,tria,,,,,
,,,,,,6046dba06dcb8815046f1d4b,676192165fb32c2e1fb7aee6,67d0b2dbb3426713474bd61f,2025-03-11_16h02.36.152,Tarea de decisión léxica,2024.2.5,Win32,16.02564103,,,,,,,,,,,,,,,,,,,,,,,,351.6262,352.9303,a,1,0.5627,,0.5627,1,352.9304,353.4085,,,,,,265,FEM,WORD,DIS,150,mitad,,el,,353.4093,353.4103,0.558461362,0.001018361,0,0,0,,0,112,112,264,1,pitat,,,,,
,,,,,,6046dba06dcb8815046f1d4b,676192165fb32c2e1fb7aee6,67d0b2dbb3426713474bd61f,2025-03-11_16h02.36.152,Tarea de decisión léxica,2024.2.5,Win32,16.02564103,,,,,,,,,,,,,,,,,,,,,,,,353.4108,354.7493,l,1,0.553,,0.553,1,354.7493,355.2371,,,,,,378,MAS,NOWORD,DIS,150,gaulo,,la,,355.2371,355.2371,0.558461362,0.001018361,0,0,0,,0,113,113,377,1,hielo,,,,,
,,,,,,6046dba06dcb8815046f1d4b,676192165fb32c2e1fb7aee6,67d0b2dbb3426713474bd61f,2025-03-11_16h02.36.152,Tarea de decisión léxica,2024.2.5,Win32,16.02564103,,,,,,,,,,,,,,,,,,,,,,,,355.2379,356.4635,a,1,0.4946,,0.4946,1,356.4637,356.9277,,,,,,129,MAS,WORD,DIS,150,oído,,la,,356.9278,356.9278,0.558461362,0.001018361,0,0,0,,0,114,114,128,1,pima,,,,,
,,,,,,6046dba06dcb8815046f1d4b,676192165fb32c2e1fb7aee6,67d0b2dbb3426713474bd61f,2025-03-11_16h02.36.152,Tarea de decisión léxica,2024.2.5,Win32,16.02564103,,,,,,,,,,,,,,,,,,,,,,,,356.9286,358.147,a,1,0.4789,,0.4789,1,358.147,358.6304,,,,,,273,FEM,WORD,DIS,150,broma,,el,,358.6304,358.6305,0.558461362,0.001018361,0,0,0,,0,115,115,272,1,frosa,,,,,
,,,,,,6046dba06dcb8815046f1d4b,676192165fb32c2e1fb7aee6,67d0b2dbb3426713474bd61f,2025-03-11_16h02.36.152,Tarea de decisión léxica,2024.2.5,Win32,16.02564103,,,,,,,,,,,,,,,,,,,,,,,,358.6313,359.8417,a,1,0.4161,,0.4161,1,359.8418,360.3375,,,,,,431,MAS,WORD,DIS,150,motor,,la,,360.3376,360.3377,0.558461362,0.001018361,0,0,0,,0,116,116,430,1,tetor,,,,,
,,,,,,6046dba06dcb8815046f1d4b,676192165fb32c2e1fb7aee6,67d0b2dbb3426713474bd61f,2025-03-11_16h02.36.152,Tarea de decisión léxica,2024.2.5,Win32,16.02564103,,,,,,,,,,,,,,,,,,,,,,,,360.3385,361.5042,a,1,0.4184,,0.4184,1,361.5043,361.9894,,,,,,247,FEM,WORD,DIS,150,chica,,el,,361.9902,361.9912,0.558461362,0.001018361,0,0,0,,0,117,117,246,1,trida,,,,,
,,,,,,6046dba06dcb8815046f1d4b,676192165fb32c2e1fb7aee6,67d0b2dbb3426713474bd61f,2025-03-11_16h02.36.152,Tarea de decisión léxica,2024.2.5,Win32,16.02564103,,,,,,,,,,,,,,,,,,,,,,,,361.9916,363.1892,a,1,0.4093,,0.4093,1,363.1893,363.671,,,,,,307,MAS,WORD,DIS,150,hotel,,la,,363.671,363.671,0.558461362,0.001018361,0,0,0,,0,118,118,306,1,holol,,,,,
,,,,,,6046dba06dcb8815046f1d4b,676192165fb32c2e1fb7aee6,67d0b2dbb3426713474bd61f,2025-03-11_16h02.36.152,Tarea de decisión léxica,2024.2.5,Win32,16.02564103,,,,,,,,,,,,,,,,,,,,,,,,363.6719,364.8965,a,1,0.4947,,0.4947,1,364.8966,365.3745,,,,,,409,MAS,WORD,AGR,150,carro,,el,,365.3746,365.3747,0.558461362,0.001018361,0,0,0,,0,119,119,408,1,pafro,,,,,
,,,,,,6046dba06dcb8815046f1d4b,676192165fb32c2e1fb7aee6,67d0b2dbb3426713474bd61f,2025-03-11_16h02.36.152,Tarea de decisión léxica,2024.2.5,Win32,16.02564103,,,,,,,,,,,,,,,,,,,,,,,,365.3754,366.679,l,1,0.5745,,0.5745,1,366.6791,367.1671,,,,,,238,MAS,NOWORD,DIS,150,huco,,la,,367.1672,367.1672,0.558461362,0.001018361,0,0,0,,0,120,120,237,1,nudo,,,,,
,,,,,,6046dba06dcb8815046f1d4b,676192165fb32c2e1fb7aee6,67d0b2dbb3426713474bd61f,2025-03-11_16h02.36.152,Tarea de decisión léxica,2024.2.5,Win32,16.02564103,,,,,,,,,,,,,,,,,,,,,,,,367.1679,368.3792,a,1,0.4088,,0.4088,1,368.3794,368.8478,,,,,,255,MAS,WORD,AGR,150,miedo,,el,,368.8478,368.8478,0.558461362,0.001018361,0,0,0,,0,121,121,254,1,mauco,,,,,
,,,,,,6046dba06dcb8815046f1d4b,676192165fb32c2e1fb7aee6,67d0b2dbb3426713474bd61f,2025-03-11_16h02.36.152,Tarea de decisión léxica,2024.2.5,Win32,16.02564103,,,,,,,,,,,,,,,,,,,,,,,,368.8488,370.2112,l,1,0.5758,,0.5758,1,370.2113,370.6921,,,,,,330,MAS,NOWORD,DIS,150,nueno,,la,,370.6929,370.6937,0.558461362,0.001018361,0,0,0,,0,122,122,329,1,hueso,,,,,
,,,,,,6046dba06dcb8815046f1d4b,676192165fb32c2e1fb7aee6,67d0b2dbb3426713474bd61f,2025-03-11_16h02.36.152,Tarea de decisión léxica,2024.2.5,Win32,16.02564103,,,,,,,,,,,,,,,,,,,,,,,,370.6941,373.3377,,0,,,0.5758,-1,373.3387,373.8173,,,,,,12,MAS,NOWORD,AGR,150,bapo,,el,,373.8174,373.8175,0.558461362,0.001018361,0,0,0,,0,123,123,11,1,lado,,,,,
,,,,,,6046dba06dcb8815046f1d4b,676192165fb32c2e1fb7aee6,67d0b2dbb3426713474bd61f,2025-03-11_16h02.36.152,Tarea de decisión léxica,2024.2.5,Win32,16.02564103,,,,,,,,,,,,,,,,,,,,,,,,373.8184,375.078,a,1,0.4802,,0.4802,1,375.0785,375.5634,,,,,,23,FEM,WORD,AGR,150,hija,,la,,375.5635,375.5636,0.558461362,0.001018361,0,0,0,,0,124,124,22,1,giva,,,,,
,,,,,,6046dba06dcb8815046f1d4b,676192165fb32c2e1fb7aee6,67d0b2dbb3426713474bd61f,2025-03-11_16h02.36.152,Tarea de decisión léxica,2024.2.5,Win32,16.02564103,,,,,,,,,,,,,,,,,,,,,,,,375.5645,376.9271,a,1,0.5598,,0.5598,1,376.9272,377.4167,,,,,,139,MAS,WORD,AGR,150,mago,,el,,377.4168,377.4168,0.558461362,0.001018361,0,0,0,,0,125,125,138,1,nila,,,,,
,,,,,,6046dba06dcb8815046f1d4b,676192165fb32c2e1fb7aee6,67d0b2dbb3426713474bd61f,2025-03-11_16h02.36.152,Tarea de decisión léxica,2024.2.5,Win32,16.02564103,,,,,,,,,,,,,,,,,,,,,,,,377.4178,378.7114,l,1,0.5602,,0.5602,1,378.7115,379.1996,,,,,,454,FEM,NOWORD,DIS,150,pafia,,el,,379.1996,379.1999,0.558461362,0.001018361,0,0,0,,0,126,126,453,1,mafia,,,,,
,,,,,,6046dba06dcb8815046f1d4b,676192165fb32c2e1fb7aee6,67d0b2dbb3426713474bd61f,2025-03-11_16h02.36.152,Tarea de decisión léxica,2024.2.5,Win32,16.02564103,,,,,,,,,,,,,,,,,,,,,,,,379.2007,380.296,a,1,0.3299,,0.3299,1,380.2961,380.7894,,,,,,477,MAS,WORD,AGR,150,botón,,el,,380.7901,380.791,0.558461362,0.001018361,0,0,0,,0,127,127,476,1,hocon,,,,,
,,,,,,6046dba06dcb8815046f1d4b,676192165fb32c2e1fb7aee6,67d0b2dbb3426713474bd61f,2025-03-11_16h02.36.152,Tarea de decisión léxica,2024.2.5,Win32,16.02564103,,,,,,,,,,,,,,,,,,,,,,,,380.7914,381.9999,a,1,0.4131,,0.4131,1,382,382.5048,,,,,,159,MAS,WORD,DIS,150,giro,,la,,382.5048,382.5048,0.558461362,0.001018361,0,0,0,,0,128,128,158,1,bilo,,,,,
,,,,,,6046dba06dcb8815046f1d4b,676192165fb32c2e1fb7aee6,67d0b2dbb3426713474bd61f,2025-03-11_16h02.36.152,Tarea de decisión léxica,2024.2.5,Win32,16.02564103,,,,,,,,,,,,,,,,,,,,,,,,382.5057,383.7991,l,1,0.4922,,0.4922,1,383.7992,384.2663,,,,,,146,MAS,NOWORD,DIS,150,nobo,,la,,384.2664,384.2664,0.558461362,0.001018361,0,0,0,,0,129,129,145,1,león,,,,,
,,,,,,6046dba06dcb8815046f1d4b,676192165fb32c2e1fb7aee6,67d0b2dbb3426713474bd61f,2025-03-11_16h02.36.152,Tarea de decisión léxica,2024.2.5,Win32,16.02564103,,,,,,,,,,,,,,,,,,,,,,,,384.2672,385.3979,a,0,0.3283,,0.3283,0,385.3986,385.8883,,,,,,200,MAS,NOWORD,AGR,150,fano,,el,,385.8883,385.8884,0.558461362,0.001018361,0,0,0,,0,130,130,199,1,lazo,,,,,
,,,,,,6046dba06dcb8815046f1d4b,676192165fb32c2e1fb7aee6,67d0b2dbb3426713474bd61f,2025-03-11_16h02.36.152,Tarea de decisión léxica,2024.2.5,Win32,16.02564103,,,,,,,,,,,,,,,,,,,,,,,,385.8892,387.1626,a,0,0.4809,,0.4809,0,387.1627,387.619,,,,,,148,FEM,NOWORD,AGR,150,pama,,la,,387.6197,387.6206,0.558461362,0.001018361,0,0,0,,0,131,131,147,1,hoja,,,,,
,,,,,,6046dba06dcb8815046f1d4b,676192165fb32c2e1fb7aee6,67d0b2dbb3426713474bd61f,2025-03-11_16h02.36.152,Tarea de decisión léxica,2024.2.5,Win32,16.02564103,,,,,,,,,,,,,,,,,,,,,,,,387.621,388.89,l,1,0.4809,,0.4809,1,388.8906,389.3691,,,,,,392,MAS,NOWORD,AGR,150,dievo,,el,,389.3691,389.3691,0.558461362,0.001018361,0,0,0,,0,132,132,391,1,dueño,,,,,
,,,,,,6046dba06dcb8815046f1d4b,676192165fb32c2e1fb7aee6,67d0b2dbb3426713474bd61f,2025-03-11_16h02.36.152,Tarea de decisión léxica,2024.2.5,Win32,16.02564103,,,,,,,,,,,,,,,,,,,,,,,,389.3699,390.5677,a,1,0.398,,0.398,1,390.5677,391.051,,,,,,427,FEM,WORD,AGR,150,oreja,,la,,391.0511,391.0511,0.558461362,0.001018361,0,0,0,,0,133,133,426,1,oseva,,,,,
,,,,,,6046dba06dcb8815046f1d4b,676192165fb32c2e1fb7aee6,67d0b2dbb3426713474bd61f,2025-03-11_16h02.36.152,Tarea de decisión léxica,2024.2.5,Win32,16.02564103,,,,,,,,,,,,,,,,,,,,,,,,391.0518,392.3142,l,1,0.4808,,0.4808,1,392.3142,392.7874,,,,,,102,MAS,NOWORD,DIS,150,gito,,la,,392.7874,392.7875,0.558461362,0.001018361,0,0,0,,0,134,134,101,1,tono,,,,,
,,,,,,6046dba06dcb8815046f1d4b,676192165fb32c2e1fb7aee6,67d0b2dbb3426713474bd61f,2025-03-11_16h02.36.152,Tarea de decisión léxica,2024.2.5,Win32,16.02564103,,,,,,,,,,,,,,,,,,,,,,,,392.7882,393.9989,a,1,0.4118,,0.4118,1,393.999,394.4759,,,,,,99,MAS,WORD,DIS,150,lobo,,la,,394.4759,394.476,0.558461362,0.001018361,0,0,0,,0,135,135,98,1,soro,,,,,
,,,,,,6046dba06dcb8815046f1d4b,676192165fb32c2e1fb7aee6,67d0b2dbb3426713474bd61f,2025-03-11_16h02.36.152,Tarea de decisión léxica,2024.2.5,Win32,16.02564103,,,,,,,,,,,,,,,,,,,,,,,,394.4767,395.6512,a,1,0.3995,,0.3995,1,395.6512,396.1344,,,,,,13,FEM,WORD,DIS,150,hora,,el,,396.1351,396.136,0.558461362,0.001018361,0,0,0,,0,136,136,12,1,nola,,,,,
,,,,,,6046dba06dcb8815046f1d4b,676192165fb32c2e1fb7aee6,67d0b2dbb3426713474bd61f,2025-03-11_16h02.36.152,Tarea de decisión léxica,2024.2.5,Win32,16.02564103,,,,,,,,,,,,,,,,,,,,,,,,396.1363,397.3196,l,0,0.3934,,0.3934,0,397.3202,397.8084,,,,,,211,FEM,WORD,DIS,150,joya,,el,,397.8084,397.8084,0.558461362,0.001018361,0,0,0,,0,137,137,210,1,joad,,,,,
,,,,,,6046dba06dcb8815046f1d4b,676192165fb32c2e1fb7aee6,67d0b2dbb3426713474bd61f,2025-03-11_16h02.36.152,Tarea de decisión léxica,2024.2.5,Win32,16.02564103,,,,,,,,,,,,,,,,,,,,,,,,397.8092,399.2981,l,1,0.7098,,0.7098,1,399.2991,399.7858,,,,,,214,FEM,NOWORD,DIS,150,bana,,el,,399.7858,399.7858,0.558461362,0.001018361,0,0,0,,0,138,138,213,1,rama,,,,,
,,,,,,6046dba06dcb8815046f1d4b,676192165fb32c2e1fb7aee6,67d0b2dbb3426713474bd61f,2025-03-11_16h02.36.152,Tarea de decisión léxica,2024.2.5,Win32,16.02564103,,,,,,,,,,,,,,,,,,,,,,,,399.7865,400.9233,a,1,0.3435,,0.3435,1,400.9234,401.4113,,,,,,287,FEM,WORD,DIS,150,lista,,el,,401.4115,401.4115,0.558461362,0.001018361,0,0,0,,0,139,139,286,1,fosta,,,,,
,,,,,,6046dba06dcb8815046f1d4b,676192165fb32c2e1fb7aee6,67d0b2dbb3426713474bd61f,2025-03-11_16h02.36.152,Tarea de decisión léxica,2024.2.5,Win32,16.02564103,,,,,,,,,,,,,,,,,,,,,,,,401.4122,402.6048,a,1,0.4107,,0.4107,1,402.6049,403.0987,,,,,,109,MAS,WORD,AGR,150,rayo,,el,,403.0988,403.0989,0.558461362,0.001018361,0,0,0,,0,140,140,108,1,suno,,,,,
,,,,,,6046dba06dcb8815046f1d4b,676192165fb32c2e1fb7aee6,67d0b2dbb3426713474bd61f,2025-03-11_16h02.36.152,Tarea de decisión léxica,2024.2.5,Win32,16.02564103,,,,,,,,,,,,,,,,,,,,,,,,403.0997,404.4603,a,1,0.5685,,0.5685,1,404.4604,404.9629,,,,,,127,MAS,WORD,AGR,150,pico,,el,,404.9638,404.9648,0.558461362,0.001018361,0,0,0,,0,141,141,126,1,itio,,,,,
,,,,,,6046dba06dcb8815046f1d4b,676192165fb32c2e1fb7aee6,67d0b2dbb3426713474bd61f,2025-03-11_16h02.36.152,Tarea de decisión léxica,2024.2.5,Win32,16.02564103,,,,,,,,,,,,,,,,,,,,,,,,404.9651,406.1491,a,1,0.4013,,0.4013,1,406.1491,406.6376,,,,,,107,MAS,WORD,DIS,150,saco,,la,,406.6376,406.6376,0.558461362,0.001018361,0,0,0,,0,142,142,106,1,raot,,,,,
,,,,,,6046dba06dcb8815046f1d4b,676192165fb32c2e1fb7aee6,67d0b2dbb3426713474bd61f,2025-03-11_16h02.36.152,Tarea de decisión léxica,2024.2.5,Win32,16.02564103,,,,,,,,,,,,,,,,,,,,,,,,406.6384,407.995,l,1,0.638,,0.638,1,407.9951,408.462,,,,,,372,FEM,NOWORD,AGR,150,mosta,,la,,408.462,408.4621,0.558461362,0.001018361,0,0,0,,0,143,143,371,1,pasta,,,,,
,,,,,,6046dba06dcb8815046f1d4b,676192165fb32c2e1fb7aee6,67d0b2dbb3426713474bd61f,2025-03-11_16h02.36.152,Tarea de decisión léxica,2024.2.5,Win32,16.02564103,,,,,,,,,,,,,,,,,,,,,,,,408.463,409.7373,l,1,0.489,,0.489,1,409.7374,410.2171,,,,,,448,MAS,NOWORD,AGR,150,buaso,,el,,410.2172,410.2172,0.558461362,0.001018361,0,0,0,,0,144,144,447,1,bolso,,,,,
,,,,,,6046dba06dcb8815046f1d4b,676192165fb32c2e1fb7aee6,67d0b2dbb3426713474bd61f,2025-03-11_16h02.36.152,Tarea de decisión léxica,2024.2.5,Win32,16.02564103,,,,,,,,,,,,,,,,,,,,,,,,410.2181,411.4404,a,1,0.4217,,0.4217,1,411.4405,411.9169,,,,,,49,FEM,WORD,DIS,150,edad,,el,,411.917,411.917,0.558461362,0.001018361,0,0,0,,0,145,145,48,1,ecat,,,,,
,,,,,,6046dba06dcb8815046f1d4b,676192165fb32c2e1fb7aee6,67d0b2dbb3426713474bd61f,2025-03-11_16h02.36.152,Tarea de decisión léxica,2024.2.5,Win32,16.02564103,,,,,,,,,,,,,,,,,,,,,,,,411.9177,413.3065,a,1,0.6619,,0.6619,1,413.3065,413.7789,,,,,,191,FEM,WORD,DIS,150,pila,,el,,413.7797,413.7807,0.558461362,0.001018361,0,0,0,,0,146,146,190,1,bila,,,,,
,,,,,,6046dba06dcb8815046f1d4b,676192165fb32c2e1fb7aee6,67d0b2dbb3426713474bd61f,2025-03-11_16h02.36.152,Tarea de decisión léxica,2024.2.5,Win32,16.02564103,,,,,,,,,,,,,,,,,,,,,,,,413.7812,415.2168,l,1,0.637,,0.637,1,415.2169,415.6977,,,,,,188,MAS,NOWORD,AGR,150,suto,,el,,415.6978,415.6979,0.558461362,0.001018361,0,0,0,,0,147,147,187,1,mito,,,,,
,,,,,,6046dba06dcb8815046f1d4b,676192165fb32c2e1fb7aee6,67d0b2dbb3426713474bd61f,2025-03-11_16h02.36.152,Tarea de decisión léxica,2024.2.5,Win32,16.02564103,,,,,,,,,,,,,,,,,,,,,,,,415.6986,416.9457,a,1,0.4754,,0.4754,1,416.9457,417.4297,,,,,,467,MAS,WORD,AGR,150,piano,,el,,417.4297,417.4298,0.558461362,0.001018361,0,0,0,,0,148,148,466,1,peiso,,,,,
,,,,,,6046dba06dcb8815046f1d4b,676192165fb32c2e1fb7aee6,67d0b2dbb3426713474bd61f,2025-03-11_16h02.36.152,Tarea de decisión léxica,2024.2.5,Win32,16.02564103,,,,,,,,,,,,,,,,,,,,,,,,417.4306,418.6352,a,1,0.4095,,0.4095,1,418.6354,419.1115,,,,,,341,MAS,WORD,DIS,150,valor,,la,,419.1115,419.1116,0.558461362,0.001018361,0,0,0,,0,149,149,340,1,daror,,,,,
,,,,,,6046dba06dcb8815046f1d4b,676192165fb32c2e1fb7aee6,67d0b2dbb3426713474bd61f,2025-03-11_16h02.36.152,Tarea de decisión léxica,2024.2.5,Win32,16.02564103,,,,,,,,,,,,,,,,,,,,,,,,419.1124,420.4213,a,1,0.5775,,0.5775,1,420.4214,420.9023,,,,,,243,MAS,WORD,DIS,150,amigo,,la,,420.9024,420.9024,0.558461362,0.001018361,0,0,0,,0,150,150,242,1,asamo,,,,,
,,,,,,6046dba06dcb8815046f1d4b,676192165fb32c2e1fb7aee6,67d0b2dbb3426713474bd61f,2025-03-11_16h02.36.152,Tarea de decisión léxica,2024.2.5,Win32,16.02564103,,,,,,,,,,,,,,,,,,,,,,,,420.9033,422.2015,l,1,0.5001,,0.5001,1,422.2016,422.681,,,,,,318,FEM,NOWORD,DIS,150,plaad,,el,,422.6818,422.6828,0.558461362,0.001018361,0,0,0,,0,151,151,317,1,playa,,,,,
,,,,,,6046dba06dcb8815046f1d4b,676192165fb32c2e1fb7aee6,67d0b2dbb3426713474bd61f,2025-03-11_16h02.36.152,Tarea de decisión léxica,2024.2.5,Win32,16.02564103,,,,,,,,,,,,,,,,,,,,,,,,422.6832,423.9168,l,1,0.5012,,0.5012,1,423.9168,424.3939,,,,,,44,FEM,NOWORD,AGR,150,meda,,la,,424.3939,424.394,0.558461362,0.001018361,0,0,0,,0,152,152,43,1,pena,,,,,
,,,,,,6046dba06dcb8815046f1d4b,676192165fb32c2e1fb7aee6,67d0b2dbb3426713474bd61f,2025-03-11_16h02.36.152,Tarea de decisión léxica,2024.2.5,Win32,16.02564103,,,,,,,,,,,,,,,,,,,,,,,,424.3949,425.6606,l,1,0.4829,,0.4829,1,425.6607,426.142,,,,,,326,FEM,NOWORD,DIS,150,mabia,,el,,426.1421,426.1421,0.558461362,0.001018361,0,0,0,,0,153,153,325,1,magia,,,,,
,,,,,,6046dba06dcb8815046f1d4b,676192165fb32c2e1fb7aee6,67d0b2dbb3426713474bd61f,2025-03-11_16h02.36.152,Tarea de decisión léxica,2024.2.5,Win32,16.02564103,,,,,,,,,,,,,,,,,,,,,,,,426.1428,427.3822,a,1,0.4637,,0.4637,1,427.3823,427.8519,,,,,,349,MAS,WORD,AGR,150,color,,el,,427.8519,427.8519,0.558461362,0.001018361,0,0,0,,0,154,154,348,1,cosir,,,,,
,,,,,,6046dba06dcb8815046f1d4b,676192165fb32c2e1fb7aee6,67d0b2dbb3426713474bd61f,2025-03-11_16h02.36.152,Tarea de decisión léxica,2024.2.5,Win32,16.02564103,,,,,,,,,,,,,,,,,,,,,,,,427.8527,429.3671,l,1,0.7233,,0.7233,1,429.3672,429.8664,,,,,,210,MAS,NOWORD,DIS,150,dero,,la,,429.8673,429.8683,0.558461362,0.001018361,0,0,0,,0,155,155,209,1,velo,,,,,
,,,,,,6046dba06dcb8815046f1d4b,676192165fb32c2e1fb7aee6,67d0b2dbb3426713474bd61f,2025-03-11_16h02.36.152,Tarea de decisión léxica,2024.2.5,Win32,16.02564103,,,,,,,,,,,,,,,,,,,,,,,,429.8687,431.3243,l,1,0.6516,,0.6516,1,431.3244,431.7956,,,,,,280,FEM,NOWORD,AGR,150,grina,,la,,431.7957,431.7957,0.558461362,0.001018361,0,0,0,,0,156,156,279,1,prisa,,,,,
,,,,,,6046dba06dcb8815046f1d4b,676192165fb32c2e1fb7aee6,67d0b2dbb3426713474bd61f,2025-03-11_16h02.36.152,Tarea de decisión léxica,2024.2.5,Win32,16.02564103,,,,,,,,,,,,,,,,,,,,,,,,431.7964,433.0744,l,1,0.4837,,0.4837,1,433.0746,433.5444,,,,,,96,FEM,NOWORD,AGR,151,neda,,la,,433.5444,433.5444,0.558461362,0.001018361,0,0,0,,0,157,157,95,1,moda,,,,,
,,,,,,6046dba06dcb8815046f1d4b,676192165fb32c2e1fb7aee6,67d0b2dbb3426713474bd61f,2025-03-11_16h02.36.152,Tarea de decisión léxica,2024.2.5,Win32,16.02564103,,,,,,,,,,,,,,,,,,,,,,,,433.5456,434.839,a,1,0.502,,0.502,1,434.8391,435.3123,,,,,,137,MAS,WORD,DIS,150,nene,,la,,435.3123,435.3124,0.558461362,0.001018361,0,0,0,,0,158,158,136,1,pamo,,,,,
,,,,,,6046dba06dcb8815046f1d4b,676192165fb32c2e1fb7aee6,67d0b2dbb3426713474bd61f,2025-03-11_16h02.36.152,Tarea de decisión léxica,2024.2.5,Win32,16.02564103,,,,,,,,,,,,,,,,,,,,,,,,435.3131,436.9981,a,0,0.9591,,0.9591,0,436.9987,437.4835,,,,,,294,MAS,NOWORD,DIS,150,cacso,,la,,437.4837,437.4837,0.558461362,0.001018361,0,0,0,,0,159,159,293,1,campo,,,,,
,,,,,,6046dba06dcb8815046f1d4b,676192165fb32c2e1fb7aee6,67d0b2dbb3426713474bd61f,2025-03-11_16h02.36.152,Tarea de decisión léxica,2024.2.5,Win32,16.02564103,,,,,,,,,,,,,,,,,,,,,,,,437.4844,440.1183,,0,,,0.9591,-1,440.1194,440.622,,,,,,268,MAS,NOWORD,AGR,150,figro,,el,,440.6226,477.7753,0.558461362,0.001018361,0,0,0,space,0,160,160,267,1,libro,37.0614,,,,
,,,,,,6046dba06dcb8815046f1d4b,676192165fb32c2e1fb7aee6,67d0b2dbb3426713474bd61f,2025-03-11_16h02.36.152,Tarea de decisión léxica,2024.2.5,Win32,16.02564103,,,,,,,,,,,,,,,,,,,,,,,,477.7763,480.3802,,0,,,0.9591,-1,480.3802,480.8554,,,,,,257,FEM,WORD,DIS,150,amiga,,el,,480.8554,480.8555,0.558461362,0.001018361,0,0,0,,0,161,161,256,1,asama,,,,,
,,,,,,6046dba06dcb8815046f1d4b,676192165fb32c2e1fb7aee6,67d0b2dbb3426713474bd61f,2025-03-11_16h02.36.152,Tarea de decisión léxica,2024.2.5,Win32,16.02564103,,,,,,,,,,,,,,,,,,,,,,,,480.8563,482.1188,l,1,0.4844,,0.4844,1,482.1195,482.5921,,,,,,282,MAS,NOWORD,DIS,150,cauro,,la,,482.5921,482.5921,0.558461362,0.001018361,0,0,0,,0,162,162,281,1,cielo,,,,,
,,,,,,6046dba06dcb8815046f1d4b,676192165fb32c2e1fb7aee6,67d0b2dbb3426713474bd61f,2025-03-11_16h02.36.152,Tarea de decisión léxica,2024.2.5,Win32,16.02564103,,,,,,,,,,,,,,,,,,,,,,,,482.5931,483.6955,a,1,0.328,,0.328,1,483.6955,484.177,,,,,,389,MAS,WORD,AGR,150,cerdo,,el,,484.177,484.177,0.558461362,0.001018361,0,0,0,,0,163,163,388,1,cenco,,,,,
,,,,,,6046dba06dcb8815046f1d4b,676192165fb32c2e1fb7aee6,67d0b2dbb3426713474bd61f,2025-03-11_16h02.36.152,Tarea de decisión léxica,2024.2.5,Win32,16.02564103,,,,,,,,,,,,,,,,,,,,,,,,484.1777,485.321,a,1,0.4107,,0.4107,1,485.3212,485.7911,,,,,,445,MAS,WORD,DIS,150,actor,,la,,485.7912,485.7913,0.558461362,0.001018361,0,0,0,,0,164,164,444,1,ascor,,,,,
,,,,,,6046dba06dcb8815046f1d4b,676192165fb32c2e1fb7aee6,67d0b2dbb3426713474bd61f,2025-03-11_16h02.36.152,Tarea de decisión léxica,2024.2.5,Win32,16.02564103,,,,,,,,,,,,,,,,,,,,,,,,485.7919,487.0814,l,1,0.49,,0.49,1,487.0815,487.56,,,,,,142,FEM,NOWORD,DIS,150,sina,,el,,487.5608,487.5618,0.558461362,0.001018361,0,0,0,,0,165,165,141,1,cruz,,,,,
,,,,,,6046dba06dcb8815046f1d4b,676192165fb32c2e1fb7aee6,67d0b2dbb3426713474bd61f,2025-03-11_16h02.36.152,Tarea de decisión léxica,2024.2.5,Win32,16.02564103,,,,,,,,,,,,,,,,,,,,,,,,487.5623,488.772,a,1,0.4847,,0.4847,1,488.772,489.2339,,,,,,375,FEM,WORD,AGR,150,salsa,,la,,489.2339,489.234,0.558461362,0.001018361,0,0,0,,0,166,166,374,1,sasna,,,,,
,,,,,,6046dba06dcb8815046f1d4b,676192165fb32c2e1fb7aee6,67d0b2dbb3426713474bd61f,2025-03-11_16h02.36.152,Tarea de decisión léxica,2024.2.5,Win32,16.02564103,,,,,,,,,,,,,,,,,,,,,,,,489.2347,490.5759,a,1,0.5509,,0.5509,1,490.576,491.0477,,,,,,239,MAS,WORD,DIS,150,mozo,,la,,491.0477,491.0478,0.558461362,0.001018361,0,0,0,,0,167,167,238,1,poño,,,,,
,,,,,,6046dba06dcb8815046f1d4b,676192165fb32c2e1fb7aee6,67d0b2dbb3426713474bd61f,2025-03-11_16h02.36.152,Tarea de decisión léxica,2024.2.5,Win32,16.02564103,,,,,,,,,,,,,,,,,,,,,,,,491.0486,492.4134,a,1,0.6432,,0.6432,1,492.4134,492.896,,,,,,149,MAS,WORD,DIS,150,cabo,,la,,492.8961,492.8962,0.558461362,0.001018361,0,0,0,,0,168,168,148,1,pafo,,,,,
,,,,,,6046dba06dcb8815046f1d4b,676192165fb32c2e1fb7aee6,67d0b2dbb3426713474bd61f,2025-03-11_16h02.36.152,Tarea de decisión léxica,2024.2.5,Win32,16.02564103,,,,,,,,,,,,,,,,,,,,,,,,492.897,494.2674,l,1,0.6405,,0.6405,1,494.2675,494.7515,,,,,,240,MAS,NOWORD,AGR,150,poño,,el,,494.7515,494.7515,0.558461362,0.001018361,0,0,0,,0,169,169,239,1,mozo,,,,,
,,,,,,6046dba06dcb8815046f1d4b,676192165fb32c2e1fb7aee6,67d0b2dbb3426713474bd61f,2025-03-11_16h02.36.152,Tarea de decisión léxica,2024.2.5,Win32,16.02564103,,,,,,,,,,,,,,,,,,,,,,,,494.7526,495.9414,a,1,0.3977,,0.3977,1,495.9414,496.4067,,,,,,17,FEM,WORD,DIS,150,mamá,,el,,496.4076,496.4086,0.558461362,0.001018361,0,0,0,,0,170,170,16,1,paba,,,,,
,,,,,,6046dba06dcb8815046f1d4b,676192165fb32c2e1fb7aee6,67d0b2dbb3426713474bd61f,2025-03-11_16h02.36.152,Tarea de decisión léxica,2024.2.5,Win32,16.02564103,,,,,,,,,,,,,,,,,,,,,,,,496.409,497.6117,a,1,0.4243,,0.4243,1,497.6117,498.0742,,,,,,399,MAS,WORD,AGR,150,techo,,el,,498.0742,498.0743,0.558461362,0.001018361,0,0,0,,0,171,171,398,1,serro,,,,,
,,,,,,6046dba06dcb8815046f1d4b,676192165fb32c2e1fb7aee6,67d0b2dbb3426713474bd61f,2025-03-11_16h02.36.152,Tarea de decisión léxica,2024.2.5,Win32,16.02564103,,,,,,,,,,,,,,,,,,,,,,,,498.0753,499.3519,l,1,0.4871,,0.4871,1,499.352,499.8379,,,,,,312,MAS,NOWORD,AGR,150,nosor,,el,,499.8379,499.838,0.558461362,0.001018361,0,0,0,,0,172,172,311,1,honor,,,,,
,,,,,,6046dba06dcb8815046f1d4b,676192165fb32c2e1fb7aee6,67d0b2dbb3426713474bd61f,2025-03-11_16h02.36.152,Tarea de decisión léxica,2024.2.5,Win32,16.02564103,,,,,,,,,,,,,,,,,,,,,,,,499.8389,501.2165,l,1,0.6457,,0.6457,1,501.2165,501.6809,,,,,,364,FEM,NOWORD,AGR,150,veida,,la,,501.6809,501.681,0.558461362,0.001018361,0,0,0,,0,173,173,363,1,deuda,,,,,
,,,,,,6046dba06dcb8815046f1d4b,676192165fb32c2e1fb7aee6,67d0b2dbb3426713474bd61f,2025-03-11_16h02.36.152,Tarea de decisión léxica,2024.2.5,Win32,16.02564103,,,,,,,,,,,,,,,,,,,,,,,,501.6821,502.8923,l,1,0.4829,,0.4829,1,502.8923,503.371,,,,,,208,MAS,NOWORD,AGR,150,kedo,,el,,503.3711,503.3712,0.558461362,0.001018361,0,0,0,,0,174,174,207,1,kilo,,,,,
,,,,,,6046dba06dcb8815046f1d4b,676192165fb32c2e1fb7aee6,67d0b2dbb3426713474bd61f,2025-03-11_16h02.36.152,Tarea de decisión léxica,2024.2.5,Win32,16.02564103,,,,,,,,,,,,,,,,,,,,,,,,503.3721,504.5671,a,1,0.398,,0.398,1,504.5672,505.035,,,,,,269,MAS,WORD,AGR,150,perro,,el,,505.0356,505.0366,0.558461362,0.001018361,0,0,0,,0,175,175,268,1,mello,,,,,
,,,,,,6046dba06dcb8815046f1d4b,676192165fb32c2e1fb7aee6,67d0b2dbb3426713474bd61f,2025-03-11_16h02.36.152,Tarea de decisión léxica,2024.2.5,Win32,16.02564103,,,,,,,,,,,,,,,,,,,,,,,,505.0369,506.2345,l,1,0.3982,,0.3982,1,506.2346,506.7022,,,,,,94,FEM,NOWORD,DIS,150,rona,,el,,506.7022,506.7023,0.558461362,0.001018361,0,0,0,,0,176,176,93,1,bola,,,,,
,,,,,,6046dba06dcb8815046f1d4b,676192165fb32c2e1fb7aee6,67d0b2dbb3426713474bd61f,2025-03-11_16h02.36.152,Tarea de decisión léxica,2024.2.5,Win32,16.02564103,,,,,,,,,,,,,,,,,,,,,,,,506.703,507.984,l,1,0.4944,,0.4944,1,507.9842,508.4498,,,,,,476,FEM,NOWORD,AGR,150,mucta,,la,,508.4498,508.4498,0.558461362,0.001018361,0,0,0,,0,177,177,475,1,manta,,,,,
,,,,,,6046dba06dcb8815046f1d4b,676192165fb32c2e1fb7aee6,67d0b2dbb3426713474bd61f,2025-03-11_16h02.36.152,Tarea de decisión léxica,2024.2.5,Win32,16.02564103,,,,,,,,,,,,,,,,,,,,,,,,508.4508,509.732,a,0,0.4826,,0.4826,0,509.7328,510.2159,,,,,,206,FEM,NOWORD,DIS,150,bara,,el,,510.2159,510.2159,0.558461362,0.001018361,0,0,0,,0,178,178,205,1,rana,,,,,
,,,,,,6046dba06dcb8815046f1d4b,676192165fb32c2e1fb7aee6,67d0b2dbb3426713474bd61f,2025-03-11_16h02.36.152,Tarea de decisión léxica,2024.2.5,Win32,16.02564103,,,,,,,,,,,,,,,,,,,,,,,,510.2167,511.7959,a,1,0.7882,,0.7882,1,511.7965,512.2796,,,,,,105,FEM,WORD,DIS,150,sopa,,el,,512.2802,512.2811,0.558461362,0.001018361,0,0,0,,0,179,179,104,1,vina,,,,,
,,,,,,6046dba06dcb8815046f1d4b,676192165fb32c2e1fb7aee6,67d0b2dbb3426713474bd61f,2025-03-11_16h02.36.152,Tarea de decisión léxica,2024.2.5,Win32,16.02564103,,,,,,,,,,,,,,,,,,,,,,,,512.2815,513.4807,a,1,0.4084,,0.4084,1,513.4807,513.9568,,,,,,289,FEM,WORD,AGR,150,bomba,,la,,513.9568,513.9569,0.558461362,0.001018361,0,0,0,,0,180,180,288,1,bumpa,,,,,
,,,,,,6046dba06dcb8815046f1d4b,676192165fb32c2e1fb7aee6,67d0b2dbb3426713474bd61f,2025-03-11_16h02.36.152,Tarea de decisión léxica,2024.2.5,Win32,16.02564103,,,,,,,,,,,,,,,,,,,,,,,,513.9576,515.172,a,1,0.4159,,0.4159,1,515.172,515.6613,,,,,,5,FEM,WORD,AGR,150,cosa,,la,,515.6613,515.6614,0.558461362,0.001018361,0,0,0,,0,181,181,4,1,poga,,,,,
,,,,,,6046dba06dcb8815046f1d4b,676192165fb32c2e1fb7aee6,67d0b2dbb3426713474bd61f,2025-03-11_16h02.36.152,Tarea de decisión léxica,2024.2.5,Win32,16.02564103,,,,,,,,,,,,,,,,,,,,,,,,515.6625,516.763,a,1,0.3228,,0.3228,1,516.763,517.2296,,,,,,453,FEM,WORD,DIS,150,mafia,,el,,517.2297,517.2297,0.558461362,0.001018361,0,0,0,,0,182,182,452,1,pafia,,,,,
,,,,,,6046dba06dcb8815046f1d4b,676192165fb32c2e1fb7aee6,67d0b2dbb3426713474bd61f,2025-03-11_16h02.36.152,Tarea de decisión léxica,2024.2.5,Win32,16.02564103,,,,,,,,,,,,,,,,,,,,,,,,517.2305,518.6943,l,1,0.7263,,0.7263,1,518.6943,519.1858,,,,,,410,MAS,NOWORD,DIS,150,pafro,,la,,519.1858,519.1859,0.558461362,0.001018361,0,0,0,,0,183,183,409,1,carro,,,,,
,,,,,,6046dba06dcb8815046f1d4b,676192165fb32c2e1fb7aee6,67d0b2dbb3426713474bd61f,2025-03-11_16h02.36.152,Tarea de decisión léxica,2024.2.5,Win32,16.02564103,,,,,,,,,,,,,,,,,,,,,,,,519.1866,520.6372,l,1,0.6558,,0.6558,1,520.6372,521.1239,,,,,,82,FEM,NOWORD,DIS,150,vasa,,el,,521.1247,521.1256,0.558461362,0.001018361,0,0,0,,0,184,184,81,1,dama,,,,,
,,,,,,6046dba06dcb8815046f1d4b,676192165fb32c2e1fb7aee6,67d0b2dbb3426713474bd61f,2025-03-11_16h02.36.152,Tarea de decisión léxica,2024.2.5,Win32,16.02564103,,,,,,,,,,,,,,,,,,,,,,,,521.1259,522.4717,l,1,0.5606,,0.5606,1,522.4718,522.9796,,,,,,60,FEM,NOWORD,AGR,150,tafa,,la,,522.9797,522.9798,0.558461362,0.001018361,0,0,0,,0,185,185,59,1,sala,,,,,
,,,,,,6046dba06dcb8815046f1d4b,676192165fb32c2e1fb7aee6,67d0b2dbb3426713474bd61f,2025-03-11_16h02.36.152,Tarea de decisión léxica,2024.2.5,Win32,16.02564103,,,,,,,,,,,,,,,,,,,,,,,,522.9806,524.2101,l,1,0.5069,,0.5069,1,524.2101,524.668,,,,,,308,MAS,NOWORD,AGR,150,holol,,el,,524.668,524.6681,0.558461362,0.001018361,0,0,0,,0,186,186,307,1,hotel,,,,,
,,,,,,6046dba06dcb8815046f1d4b,676192165fb32c2e1fb7aee6,67d0b2dbb3426713474bd61f,2025-03-11_16h02.36.152,Tarea de decisión léxica,2024.2.5,Win32,16.02564103,,,,,,,,,,,,,,,,,,,,,,,,524.669,525.9703,a,1,0.5775,,0.5775,1,525.9703,526.4544,,,,,,479,MAS,WORD,DIS,150,rumbo,,la,,526.4544,526.4545,0.558461362,0.001018361,0,0,0,,0,187,187,478,1,rimpo,,,,,
,,,,,,6046dba06dcb8815046f1d4b,676192165fb32c2e1fb7aee6,67d0b2dbb3426713474bd61f,2025-03-11_16h02.36.152,Tarea de decisión léxica,2024.2.5,Win32,16.02564103,,,,,,,,,,,,,,,,,,,,,,,,526.4552,527.6611,a,1,0.4088,,0.4088,1,527.6612,528.1397,,,,,,393,FEM,WORD,AGR,150,aldea,,la,,528.1398,528.1398,0.558461362,0.001018361,0,0,0,,0,188,188,392,1,ashea,,,,,
,,,,,,6046dba06dcb8815046f1d4b,676192165fb32c2e1fb7aee6,67d0b2dbb3426713474bd61f,2025-03-11_16h02.36.152,Tarea de decisión léxica,2024.2.5,Win32,16.02564103,,,,,,,,,,,,,,,,,,,,,,,,528.1405,529.429,l,1,0.4892,,0.4892,1,529.4291,529.8972,,,,,,320,MAS,NOWORD,AGR,150,tuero,,el,,529.8979,529.8988,0.558461362,0.001018361,0,0,0,,0,189,189,319,1,suelo,,,,,
,,,,,,6046dba06dcb8815046f1d4b,676192165fb32c2e1fb7aee6,67d0b2dbb3426713474bd61f,2025-03-11_16h02.36.152,Tarea de decisión léxica,2024.2.5,Win32,16.02564103,,,,,,,,,,,,,,,,,,,,,,,,529.8991,531.0572,a,1,0.4106,,0.4106,1,531.0574,531.5283,,,,,,413,FEM,WORD,AGR,150,rueda,,la,,531.5283,531.5285,0.558461362,0.001018361,0,0,0,,0,190,190,412,1,bieda,,,,,
,,,,,,6046dba06dcb8815046f1d4b,676192165fb32c2e1fb7aee6,67d0b2dbb3426713474bd61f,2025-03-11_16h02.36.152,Tarea de decisión léxica,2024.2.5,Win32,16.02564103,,,,,,,,,,,,,,,,,,,,,,,,531.5294,532.7343,a,1,0.4822,,0.4822,1,532.7343,533.2298,,,,,,95,FEM,WORD,DIS,151,moda,,el,,533.2298,533.2298,0.558461362,0.001018361,0,0,0,,0,191,191,94,1,neda,,,,,
,,,,,,6046dba06dcb8815046f1d4b,676192165fb32c2e1fb7aee6,67d0b2dbb3426713474bd61f,2025-03-11_16h02.36.152,Tarea de decisión léxica,2024.2.5,Win32,16.02564103,,,,,,,,,,,,,,,,,,,,,,,,533.2306,534.4307,a,1,0.4065,,0.4065,1,534.4307,534.931,,,,,,67,FEM,WORD,DIS,150,nena,,el,,534.931,534.9311,0.558461362,0.001018361,0,0,0,,0,192,192,66,1,gesa,,,,,
,,,,,,6046dba06dcb8815046f1d4b,676192165fb32c2e1fb7aee6,67d0b2dbb3426713474bd61f,2025-03-11_16h02.36.152,Tarea de decisión léxica,2024.2.5,Win32,16.02564103,,,,,,,,,,,,,,,,,,,,,,,,534.9319,536.2862,a,1,0.6291,,0.6291,1,536.2863,536.7656,,,,,,437,FEM,WORD,AGR,150,plaza,,la,,536.7656,536.7657,0.558461362,0.001018361,0,0,0,,0,193,193,436,1,glava,,,,,
,,,,,,6046dba06dcb8815046f1d4b,676192165fb32c2e1fb7aee6,67d0b2dbb3426713474bd61f,2025-03-11_16h02.36.152,Tarea de decisión léxica,2024.2.5,Win32,16.02564103,,,,,,,,,,,,,,,,,,,,,,,,536.7664,538.4375,l,1,0.8783,,0.8783,1,538.4376,538.8991,,,,,,354,FEM,NOWORD,DIS,150,cezca,,el,,538.9,538.901,0.558461362,0.001018361,0,0,0,,0,194,194,353,1,celda,,,,,
,,,,,,6046dba06dcb8815046f1d4b,676192165fb32c2e1fb7aee6,67d0b2dbb3426713474bd61f,2025-03-11_16h02.36.152,Tarea de decisión léxica,2024.2.5,Win32,16.02564103,,,,,,,,,,,,,,,,,,,,,,,,538.9014,540.0889,l,1,0.3989,,0.3989,1,540.0889,540.566,,,,,,396,FEM,NOWORD,AGR,150,paeda,,la,,540.5661,540.5661,0.558461362,0.001018361,0,0,0,,0,195,195,395,1,caída,,,,,
,,,,,,6046dba06dcb8815046f1d4b,676192165fb32c2e1fb7aee6,67d0b2dbb3426713474bd61f,2025-03-11_16h02.36.152,Tarea de decisión léxica,2024.2.5,Win32,16.02564103,,,,,,,,,,,,,,,,,,,,,,,,540.5668,541.7665,l,1,0.4084,,0.4084,1,541.7666,542.2397,,,,,,56,MAS,NOWORD,AGR,150,jado,,el,,542.2398,542.2399,0.558461362,0.001018361,0,0,0,,0,196,196,55,1,gato,,,,,
,,,,,,6046dba06dcb8815046f1d4b,676192165fb32c2e1fb7aee6,67d0b2dbb3426713474bd61f,2025-03-11_16h02.36.152,Tarea de decisión léxica,2024.2.5,Win32,16.02564103,,,,,,,,,,,,,,,,,,,,,,,,542.2408,543.4505,a,1,0.4148,,0.4148,1,543.4506,543.9472,,,,,,215,FEM,WORD,DIS,150,raíz,,el,,543.9472,543.9473,0.558461362,0.001018361,0,0,0,,0,197,197,214,1,raua,,,,,
,,,,,,6046dba06dcb8815046f1d4b,676192165fb32c2e1fb7aee6,67d0b2dbb3426713474bd61f,2025-03-11_16h02.36.152,Tarea de decisión léxica,2024.2.5,Win32,16.02564103,,,,,,,,,,,,,,,,,,,,,,,,543.9481,545.0837,l,0,0.3918,,0.3918,0,545.0842,545.5635,,,,,,219,FEM,WORD,AGR,150,pipa,,la,,545.5635,545.5636,0.558461362,0.001018361,0,0,0,,0,198,198,218,1,miva,,,,,
,,,,,,6046dba06dcb8815046f1d4b,676192165fb32c2e1fb7aee6,67d0b2dbb3426713474bd61f,2025-03-11_16h02.36.152,Tarea de decisión léxica,2024.2.5,Win32,16.02564103,,,,,,,,,,,,,,,,,,,,,,,,545.5645,546.8353,l,1,0.4885,,0.4885,1,546.836,547.3258,,,,,,152,MAS,NOWORD,AGR,150,sogo,,el,,547.3265,547.3274,0.558461362,0.001018361,0,0,0,,0,199,199,151,1,tomo,,,,,
,,,,,,6046dba06dcb8815046f1d4b,676192165fb32c2e1fb7aee6,67d0b2dbb3426713474bd61f,2025-03-11_16h02.36.152,Tarea de decisión léxica,2024.2.5,Win32,16.02564103,,,,,,,,,,,,,,,,,,,,,,,,547.3278,548.5571,a,1,0.504,,0.504,1,548.5571,549.0224,,,,,,471,FEM,WORD,DIS,150,grasa,,el,,549.0224,549.0225,0.558461362,0.001018361,0,0,0,,0,200,200,470,1,prana,,,,,
,,,,,,6046dba06dcb8815046f1d4b,676192165fb32c2e1fb7aee6,67d0b2dbb3426713474bd61f,2025-03-11_16h02.36.152,Tarea de decisión léxica,2024.2.5,Win32,16.02564103,,,,,,,,,,,,,,,,,,,,,,,,549.0232,550.2478,a,1,0.5025,,0.5025,1,550.2478,550.7311,,,,,,29,MAS,WORD,AGR,150,modo,,el,,550.7312,550.7312,0.558461362,0.001018361,0,0,0,,0,201,201,28,1,pono,,,,,
,,,,,,6046dba06dcb8815046f1d4b,676192165fb32c2e1fb7aee6,67d0b2dbb3426713474bd61f,2025-03-11_16h02.36.152,Tarea de decisión léxica,2024.2.5,Win32,16.02564103,,,,,,,,,,,,,,,,,,,,,,,,550.7322,551.9257,a,1,0.3855,,0.3855,1,551.9258,552.3897,,,,,,229,MAS,WORD,DIS,150,amor,,la,,552.3897,552.3898,0.558461362,0.001018361,0,0,0,,0,202,202,228,1,ador,,,,,
,,,,,,6046dba06dcb8815046f1d4b,676192165fb32c2e1fb7aee6,67d0b2dbb3426713474bd61f,2025-03-11_16h02.36.152,Tarea de decisión léxica,2024.2.5,Win32,16.02564103,,,,,,,,,,,,,,,,,,,,,,,,552.3904,553.4967,a,1,0.3261,,0.3261,1,553.4968,553.9822,,,,,,325,FEM,WORD,AGR,150,magia,,la,,553.9832,553.9847,0.558461362,0.001018361,0,0,0,,0,203,203,324,1,mabia,,,,,
,,,,,,6046dba06dcb8815046f1d4b,676192165fb32c2e1fb7aee6,67d0b2dbb3426713474bd61f,2025-03-11_16h02.36.152,Tarea de decisión léxica,2024.2.5,Win32,16.02564103,,,,,,,,,,,,,,,,,,,,,,,,553.9853,555.4506,a,1,0.7347,,0.7347,1,555.4508,555.9552,,,,,,197,MAS,WORD,AGR,150,bate,,el,,555.9553,555.9553,0.558461362,0.001018361,0,0,0,,0,204,204,196,1,dade,,,,,
,,,,,,6046dba06dcb8815046f1d4b,676192165fb32c2e1fb7aee6,67d0b2dbb3426713474bd61f,2025-03-11_16h02.36.152,Tarea de decisión léxica,2024.2.5,Win32,16.02564103,,,,,,,,,,,,,,,,,,,,,,,,555.9562,557.0857,a,1,0.4029,,0.4029,1,557.0858,557.5676,,,,,,41,FEM,WORD,AGR,150,nave,,la,,557.5676,557.5676,0.558461362,0.001018361,0,0,0,,0,205,205,40,1,haje,,,,,
,,,,,,6046dba06dcb8815046f1d4b,676192165fb32c2e1fb7aee6,67d0b2dbb3426713474bd61f,2025-03-11_16h02.36.152,Tarea de decisión léxica,2024.2.5,Win32,16.02564103,,,,,,,,,,,,,,,,,,,,,,,,557.5686,558.8397,l,1,0.4888,,0.4888,1,558.8398,559.3284,,,,,,124,FEM,NOWORD,AGR,150,maba,,la,,559.3285,559.3285,0.558461362,0.001018361,0,0,0,,0,206,206,123,1,flor,,,,,
,,,,,,6046dba06dcb8815046f1d4b,676192165fb32c2e1fb7aee6,67d0b2dbb3426713474bd61f,2025-03-11_16h02.36.152,Tarea de decisión léxica,2024.2.5,Win32,16.02564103,,,,,,,,,,,,,,,,,,,,,,,,559.3292,560.4407,a,1,0.3412,,0.3412,1,560.4408,560.9341,,,,,,285,MAS,WORD,DIS,150,error,,la,,560.9342,560.9343,0.558461362,0.001018361,0,0,0,,0,207,207,284,1,echor,,,,,
,,,,,,6046dba06dcb8815046f1d4b,676192165fb32c2e1fb7aee6,67d0b2dbb3426713474bd61f,2025-03-11_16h02.36.152,Tarea de decisión léxica,2024.2.5,Win32,16.02564103,,,,,,,,,,,,,,,,,,,,,,,,560.9352,562.3889,l,1,0.656,,0.656,1,562.389,562.8776,,,,,,66,MAS,NOWORD,DIS,150,nios,,la,,562.8783,562.8792,0.558461362,0.001018361,0,0,0,,0,208,208,65,1,dios,,,,,
,,,,,,6046dba06dcb8815046f1d4b,676192165fb32c2e1fb7aee6,67d0b2dbb3426713474bd61f,2025-03-11_16h02.36.152,Tarea de decisión léxica,2024.2.5,Win32,16.02564103,,,,,,,,,,,,,,,,,,,,,,,,562.8796,564.3462,l,1,0.7217,,0.7217,1,564.3463,564.8373,,,,,,446,MAS,NOWORD,DIS,150,ascor,,la,,564.8374,564.8374,0.558461362,0.001018361,0,0,0,,0,209,209,445,1,actor,,,,,
,,,,,,6046dba06dcb8815046f1d4b,676192165fb32c2e1fb7aee6,67d0b2dbb3426713474bd61f,2025-03-11_16h02.36.152,Tarea de decisión léxica,2024.2.5,Win32,16.02564103,,,,,,,,,,,,,,,,,,,,,,,,564.8381,566.054,a,1,0.4949,,0.4949,1,566.054,566.524,,,,,,367,MAS,WORD,DIS,150,reloj,,la,,566.5241,566.5241,0.558461362,0.001018361,0,0,0,,0,210,210,366,1,rerob,,,,,
,,,,,,6046dba06dcb8815046f1d4b,676192165fb32c2e1fb7aee6,67d0b2dbb3426713474bd61f,2025-03-11_16h02.36.152,Tarea de decisión léxica,2024.2.5,Win32,16.02564103,,,,,,,,,,,,,,,,,,,,,,,,566.5249,567.838,a,0,0.5702,,0.5702,0,567.8385,568.3098,,,,,,400,MAS,NOWORD,AGR,150,serro,,el,,568.3098,568.3098,0.558461362,0.001018361,0,0,0,,0,211,211,399,1,techo,,,,,
,,,,,,6046dba06dcb8815046f1d4b,676192165fb32c2e1fb7aee6,67d0b2dbb3426713474bd61f,2025-03-11_16h02.36.152,Tarea de decisión léxica,2024.2.5,Win32,16.02564103,,,,,,,,,,,,,,,,,,,,,,,,568.3105,569.6762,l,1,0.5588,,0.5588,1,569.677,570.1595,,,,,,316,FEM,NOWORD,AGR,150,riosa,,la,,570.1596,570.1597,0.558461362,0.001018361,0,0,0,,0,212,212,315,1,reina,,,,,
,,,,,,6046dba06dcb8815046f1d4b,676192165fb32c2e1fb7aee6,67d0b2dbb3426713474bd61f,2025-03-11_16h02.36.152,Tarea de decisión léxica,2024.2.5,Win32,16.02564103,,,,,,,,,,,,,,,,,,,,,,,,570.1606,571.5879,l,1,0.6457,,0.6457,1,571.588,572.0639,,,,,,302,FEM,NOWORD,DIS,150,ranga,,el,,572.0648,572.0658,0.558461362,0.001018361,0,0,0,,0,213,213,301,1,banda,,,,,
,,,,,,6046dba06dcb8815046f1d4b,676192165fb32c2e1fb7aee6,67d0b2dbb3426713474bd61f,2025-03-11_16h02.36.152,Tarea de decisión léxica,2024.2.5,Win32,16.02564103,,,,,,,,,,,,,,,,,,,,,,,,572.0663,573.3349,l,1,0.4952,,0.4952,1,573.335,573.8046,,,,,,14,FEM,NOWORD,DIS,150,nola,,el,,573.8047,573.8047,0.558461362,0.001018361,0,0,0,,0,214,214,13,1,hora,,,,,
,,,,,,6046dba06dcb8815046f1d4b,676192165fb32c2e1fb7aee6,67d0b2dbb3426713474bd61f,2025-03-11_16h02.36.152,Tarea de decisión léxica,2024.2.5,Win32,16.02564103,,,,,,,,,,,,,,,,,,,,,,,,573.8054,575.0705,l,1,0.4828,,0.4828,1,575.0706,575.5364,,,,,,328,MAS,NOWORD,AGR,150,lendo,,el,,575.5365,575.5365,0.558461362,0.001018361,0,0,0,,0,215,215,327,1,fondo,,,,,
,,,,,,6046dba06dcb8815046f1d4b,676192165fb32c2e1fb7aee6,67d0b2dbb3426713474bd61f,2025-03-11_16h02.36.152,Tarea de decisión léxica,2024.2.5,Win32,16.02564103,,,,,,,,,,,,,,,,,,,,,,,,575.5375,576.8425,l,1,0.5606,,0.5606,1,576.8426,577.3431,,,,,,402,MAS,NOWORD,DIS,150,pirvo,,la,,577.3432,577.3433,0.558461362,0.001018361,0,0,0,,0,216,216,401,1,polvo,,,,,
,,,,,,6046dba06dcb8815046f1d4b,676192165fb32c2e1fb7aee6,67d0b2dbb3426713474bd61f,2025-03-11_16h02.36.152,Tarea de decisión léxica,2024.2.5,Win32,16.02564103,,,,,,,,,,,,,,,,,,,,,,,,577.3442,578.446,a,1,0.3218,,0.3218,1,578.4461,578.919,,,,,,423,MAS,WORD,AGR,150,queso,,el,,578.919,578.9191,0.558461362,0.001018361,0,0,0,,0,217,217,422,1,quigo,,,,,
,,,,,,6046dba06dcb8815046f1d4b,676192165fb32c2e1fb7aee6,67d0b2dbb3426713474bd61f,2025-03-11_16h02.36.152,Tarea de decisión léxica,2024.2.5,Win32,16.02564103,,,,,,,,,,,,,,,,,,,,,,,,578.9198,580.1958,a,1,0.5524,,0.5524,1,580.196,580.6785,,,,,,395,FEM,WORD,DIS,150,caída,,el,,580.6797,580.6808,0.558461362,0.001018361,0,0,0,,0,218,218,394,1,paeda,,,,,
,,,,,,6046dba06dcb8815046f1d4b,676192165fb32c2e1fb7aee6,67d0b2dbb3426713474bd61f,2025-03-11_16h02.36.152,Tarea de decisión léxica,2024.2.5,Win32,16.02564103,,,,,,,,,,,,,,,,,,,,,,,,580.6813,581.966,l,1,0.4888,,0.4888,1,581.9661,582.4278,,,,,,350,MAS,NOWORD,DIS,150,cosir,,la,,582.4279,582.428,0.558461362,0.001018361,0,0,0,,0,219,219,349,1,color,,,,,
,,,,,,6046dba06dcb8815046f1d4b,676192165fb32c2e1fb7aee6,67d0b2dbb3426713474bd61f,2025-03-11_16h02.36.152,Tarea de decisión léxica,2024.2.5,Win32,16.02564103,,,,,,,,,,,,,,,,,,,,,,,,582.4289,583.674,l,1,0.4933,,0.4933,1,583.6741,584.1581,,,,,,30,MAS,NOWORD,DIS,150,pono,,la,,584.1582,584.1582,0.558461362,0.001018361,0,0,0,,0,220,220,29,1,modo,,,,,
,,,,,,6046dba06dcb8815046f1d4b,676192165fb32c2e1fb7aee6,67d0b2dbb3426713474bd61f,2025-03-11_16h02.36.152,Tarea de decisión léxica,2024.2.5,Win32,16.02564103,,,,,,,,,,,,,,,,,,,,,,,,584.1589,585.4886,a,1,0.5633,,0.5633,1,585.4887,585.97,,,,,,131,FEM,WORD,DIS,150,mina,,el,,585.9702,585.9703,0.558461362,0.001018361,0,0,0,,0,221,221,130,1,fada,,,,,
,,,,,,6046dba06dcb8815046f1d4b,676192165fb32c2e1fb7aee6,67d0b2dbb3426713474bd61f,2025-03-11_16h02.36.152,Tarea de decisión léxica,2024.2.5,Win32,16.02564103,,,,,,,,,,,,,,,,,,,,,,,,585.9711,587.2504,l,1,0.5572,,0.5572,1,587.2505,587.7257,,,,,,424,MAS,NOWORD,AGR,150,quigo,,el,,587.7258,587.7258,0.558461362,0.001018361,0,0,0,,0,222,222,423,1,queso,,,,,
,,,,,,6046dba06dcb8815046f1d4b,676192165fb32c2e1fb7aee6,67d0b2dbb3426713474bd61f,2025-03-11_16h02.36.152,Tarea de decisión léxica,2024.2.5,Win32,16.02564103,,,,,,,,,,,,,,,,,,,,,,,,587.7266,588.9899,l,1,0.4793,,0.4793,1,588.99,589.4641,,,,,,32,FEM,NOWORD,AGR,150,bova,,la,,589.4649,589.4657,0.558461362,0.001018361,0,0,0,,0,223,223,31,1,ropa,,,,,
,,,,,,6046dba06dcb8815046f1d4b,676192165fb32c2e1fb7aee6,67d0b2dbb3426713474bd61f,2025-03-11_16h02.36.152,Tarea de decisión léxica,2024.2.5,Win32,16.02564103,,,,,,,,,,,,,,,,,,,,,,,,589.4662,590.5875,a,1,0.3507,,0.3507,1,590.5877,591.0903,,,,,,441,FEM,WORD,AGR,150,selva,,la,,591.0903,591.0904,0.558461362,0.001018361,0,0,0,,0,224,224,440,1,telza,,,,,
,,,,,,6046dba06dcb8815046f1d4b,676192165fb32c2e1fb7aee6,67d0b2dbb3426713474bd61f,2025-03-11_16h02.36.152,Tarea de decisión léxica,2024.2.5,Win32,16.02564103,,,,,,,,,,,,,,,,,,,,,,,,591.0911,592.3775,l,1,0.5578,,0.5578,1,592.3776,592.8475,,,,,,72,FEM,NOWORD,AGR,150,urla,,la,,592.8475,592.8475,0.558461362,0.001018361,0,0,0,,0,225,225,71,1,isla,,,,,
,,,,,,6046dba06dcb8815046f1d4b,676192165fb32c2e1fb7aee6,67d0b2dbb3426713474bd61f,2025-03-11_16h02.36.152,Tarea de decisión léxica,2024.2.5,Win32,16.02564103,,,,,,,,,,,,,,,,,,,,,,,,592.8484,594.1309,a,1,0.5548,,0.5548,1,594.131,594.609,,,,,,439,FEM,WORD,DIS,150,presa,,el,,594.609,594.6091,0.558461362,0.001018361,0,0,0,,0,226,226,438,1,prema,,,,,
,,,,,,6046dba06dcb8815046f1d4b,676192165fb32c2e1fb7aee6,67d0b2dbb3426713474bd61f,2025-03-11_16h02.36.152,Tarea de decisión léxica,2024.2.5,Win32,16.02564103,,,,,,,,,,,,,,,,,,,,,,,,594.6098,595.8676,l,1,0.5229,,0.5229,1,595.8677,596.3544,,,,,,192,FEM,NOWORD,AGR,150,bila,,la,,596.3552,596.356,0.558461362,0.001018361,0,0,0,,0,227,227,191,1,pila,,,,,
,,,,,,6046dba06dcb8815046f1d4b,676192165fb32c2e1fb7aee6,67d0b2dbb3426713474bd61f,2025-03-11_16h02.36.152,Tarea de decisión léxica,2024.2.5,Win32,16.02564103,,,,,,,,,,,,,,,,,,,,,,,,596.3564,597.6159,l,1,0.4741,,0.4741,1,597.616,598.1362,,,,,,156,FEM,NOWORD,AGR,150,luma,,la,,598.1362,598.1363,0.558461362,0.001018361,0,0,0,,0,228,228,155,1,fuga,,,,,
,,,,,,6046dba06dcb8815046f1d4b,676192165fb32c2e1fb7aee6,67d0b2dbb3426713474bd61f,2025-03-11_16h02.36.152,Tarea de decisión léxica,2024.2.5,Win32,16.02564103,,,,,,,,,,,,,,,,,,,,,,,,598.137,599.4084,l,1,0.4885,,0.4885,1,599.4085,599.8808,,,,,,202,FEM,NOWORD,DIS,150,cusa,,el,,599.8809,599.8809,0.558461362,0.001018361,0,0,0,,0,229,229,201,1,cuna,,,,,
,,,,,,6046dba06dcb8815046f1d4b,676192165fb32c2e1fb7aee6,67d0b2dbb3426713474bd61f,2025-03-11_16h02.36.152,Tarea de decisión léxica,2024.2.5,Win32,16.02564103,,,,,,,,,,,,,,,,,,,,,,,,599.8817,601.0653,l,1,0.3904,,0.3904,1,601.0654,601.5525,,,,,,196,FEM,NOWORD,AGR,150,sira,,la,,601.5526,601.5526,0.558461362,0.001018361,0,0,0,,0,230,230,195,1,tela,,,,,
,,,,,,6046dba06dcb8815046f1d4b,676192165fb32c2e1fb7aee6,67d0b2dbb3426713474bd61f,2025-03-11_16h02.36.152,Tarea de decisión léxica,2024.2.5,Win32,16.02564103,,,,,,,,,,,,,,,,,,,,,,,,601.5534,602.8389,a,1,0.5547,,0.5547,1,602.8389,603.3269,,,,,,69,FEM,WORD,AGR,150,zona,,la,,603.3269,603.327,0.558461362,0.001018361,0,0,0,,0,231,231,68,1,ñola,,,,,
,,,,,,6046dba06dcb8815046f1d4b,676192165fb32c2e1fb7aee6,67d0b2dbb3426713474bd61f,2025-03-11_16h02.36.152,Tarea de decisión léxica,2024.2.5,Win32,16.02564103,,,,,,,,,,,,,,,,,,,,,,,,603.328,604.622,l,1,0.565,,0.565,1,604.622,605.0996,,,,,,262,MAS,NOWORD,DIS,150,titio,,la,,605.1002,605.1011,0.558461362,0.001018361,0,0,0,,0,232,232,261,1,sitio,,,,,
,,,,,,6046dba06dcb8815046f1d4b,676192165fb32c2e1fb7aee6,67d0b2dbb3426713474bd61f,2025-03-11_16h02.36.152,Tarea de decisión léxica,2024.2.5,Win32,16.02564103,,,,,,,,,,,,,,,,,,,,,,,,605.1015,606.2898,l,1,0.4011,,0.4011,1,606.2898,606.7757,,,,,,228,MAS,NOWORD,AGR,150,laro,,el,,606.7758,606.7758,0.558461362,0.001018361,0,0,0,,0,233,233,227,1,faro,,,,,
,,,,,,6046dba06dcb8815046f1d4b,676192165fb32c2e1fb7aee6,67d0b2dbb3426713474bd61f,2025-03-11_16h02.36.152,Tarea de decisión léxica,2024.2.5,Win32,16.02564103,,,,,,,,,,,,,,,,,,,,,,,,606.7766,607.9788,a,1,0.4196,,0.4196,1,607.9789,608.4409,,,,,,167,FEM,WORD,AGR,150,jefa,,la,,608.4409,608.441,0.558461362,0.001018361,0,0,0,,0,234,234,166,1,zifa,,,,,
,,,,,,6046dba06dcb8815046f1d4b,676192165fb32c2e1fb7aee6,67d0b2dbb3426713474bd61f,2025-03-11_16h02.36.152,Tarea de decisión léxica,2024.2.5,Win32,16.02564103,,,,,,,,,,,,,,,,,,,,,,,,608.4417,610.1257,l,1,0.885,,0.885,1,610.1258,610.6137,,,,,,20,MAS,NOWORD,AGR,150,himo,,el,,610.6137,610.6137,0.558461362,0.001018361,0,0,0,,0,235,235,19,1,niño,,,,,
,,,,,,6046dba06dcb8815046f1d4b,676192165fb32c2e1fb7aee6,67d0b2dbb3426713474bd61f,2025-03-11_16h02.36.152,Tarea de decisión léxica,2024.2.5,Win32,16.02564103,,,,,,,,,,,,,,,,,,,,,,,,610.6145,611.981,l,1,0.5696,,0.5696,1,611.981,612.4574,,,,,,224,FEM,NOWORD,AGR,150,cira,,la,,612.4574,612.4575,0.558461362,0.001018361,0,0,0,,0,236,236,223,1,cera,,,,,
,,,,,,6046dba06dcb8815046f1d4b,676192165fb32c2e1fb7aee6,67d0b2dbb3426713474bd61f,2025-03-11_16h02.36.152,Tarea de decisión léxica,2024.2.5,Win32,16.02564103,,,,,,,,,,,,,,,,,,,,,,,,612.4584,613.6524,a,1,0.3994,,0.3994,1,613.6525,614.1512,,,,,,371,FEM,WORD,AGR,150,pasta,,la,,614.1522,614.1534,0.558461362,0.001018361,0,0,0,,0,237,237,370,1,mosta,,,,,
,,,,,,6046dba06dcb8815046f1d4b,676192165fb32c2e1fb7aee6,67d0b2dbb3426713474bd61f,2025-03-11_16h02.36.152,Tarea de decisión léxica,2024.2.5,Win32,16.02564103,,,,,,,,,,,,,,,,,,,,,,,,614.1539,615.4987,l,1,0.5462,,0.5462,1,615.4988,615.9803,,,,,,24,FEM,NOWORD,AGR,150,giva,,la,,615.9803,615.9804,0.558461362,0.001018361,0,0,0,,0,238,238,23,1,hija,,,,,
,,,,,,6046dba06dcb8815046f1d4b,676192165fb32c2e1fb7aee6,67d0b2dbb3426713474bd61f,2025-03-11_16h02.36.152,Tarea de decisión léxica,2024.2.5,Win32,16.02564103,,,,,,,,,,,,,,,,,,,,,,,,615.9813,617.3438,a,0,0.6381,,0.6381,0,617.3445,617.8278,,,,,,218,MAS,NOWORD,DIS,150,budo,,la,,617.8278,617.8279,0.558461362,0.001018361,0,0,0,,0,239,239,217,1,luto,,,,,
,,,,,,6046dba06dcb8815046f1d4b,676192165fb32c2e1fb7aee6,67d0b2dbb3426713474bd61f,2025-03-11_16h02.36.152,Tarea de decisión léxica,2024.2.5,Win32,16.02564103,,,,,,,,,,,,,,,,,,,,,,,,617.829,619.2537,l,1,0.6441,,0.6441,1,619.2544,619.7242,,,,,,376,FEM,NOWORD,AGR,150,sasna,,la,,619.7243,619.7243,0.558461362,0.001018361,0,0,0,,0,240,240,375,1,salsa,,,,,
,,,,,,6046dba06dcb8815046f1d4b,676192165fb32c2e1fb7aee6,67d0b2dbb3426713474bd61f,2025-03-11_16h02.36.152,Tarea de decisión léxica,2024.2.5,Win32,16.02564103,,,,,,,,,,,,,,,,,,,,,,,,619.7251,620.9531,l,1,0.4188,,0.4188,1,620.9532,621.4208,,,,,,324,FEM,NOWORD,AGR,150,certa,,la,,621.4208,621.4208,0.558461362,0.001018361,0,0,0,,0,241,241,323,1,cinta,,,,,
,,,,,,6046dba06dcb8815046f1d4b,676192165fb32c2e1fb7aee6,67d0b2dbb3426713474bd61f,2025-03-11_16h02.36.152,Tarea de decisión léxica,2024.2.5,Win32,16.02564103,,,,,,,,,,,,,,,,,,,,,,,,621.4216,622.6149,a,1,0.4727,,0.4727,1,622.6149,623.1002,,,,,,305,MAS,WORD,AGR,150,avión,,el,,623.1014,623.1023,0.558461362,0.001018361,0,0,0,,0,242,242,304,1,adiol,,,,,
,,,,,,6046dba06dcb8815046f1d4b,676192165fb32c2e1fb7aee6,67d0b2dbb3426713474bd61f,2025-03-11_16h02.36.152,Tarea de decisión léxica,2024.2.5,Win32,16.02564103,,,,,,,,,,,,,,,,,,,,,,,,623.1027,624.4593,l,0,0.5564,,0.5564,0,624.4599,624.9374,,,,,,411,MAS,WORD,DIS,150,pollo,,la,,624.9374,624.9375,0.558461362,0.001018361,0,0,0,,0,243,243,410,1,mobro,,,,,
,,,,,,6046dba06dcb8815046f1d4b,676192165fb32c2e1fb7aee6,67d0b2dbb3426713474bd61f,2025-03-11_16h02.36.152,Tarea de decisión léxica,2024.2.5,Win32,16.02564103,,,,,,,,,,,,,,,,,,,,,,,,624.9384,626.2413,l,1,0.5844,,0.5844,1,626.2419,626.7412,,,,,,278,MAS,NOWORD,DIS,150,vuemo,,la,,626.7412,626.7413,0.558461362,0.001018361,0,0,0,,0,244,244,277,1,fuego,,,,,
,,,,,,6046dba06dcb8815046f1d4b,676192165fb32c2e1fb7aee6,67d0b2dbb3426713474bd61f,2025-03-11_16h02.36.152,Tarea de decisión léxica,2024.2.5,Win32,16.02564103,,,,,,,,,,,,,,,,,,,,,,,,626.7423,627.9553,l,1,0.4813,,0.4813,1,627.9553,628.4187,,,,,,412,MAS,NOWORD,AGR,150,mobro,,el,,628.4188,628.4188,0.558461362,0.001018361,0,0,0,,0,245,245,411,1,pollo,,,,,
,,,,,,6046dba06dcb8815046f1d4b,676192165fb32c2e1fb7aee6,67d0b2dbb3426713474bd61f,2025-03-11_16h02.36.152,Tarea de decisión léxica,2024.2.5,Win32,16.02564103,,,,,,,,,,,,,,,,,,,,,,,,628.4195,629.7617,a,1,0.5665,,0.5665,1,629.7618,630.2387,,,,,,429,FEM,WORD,DIS,150,tarta,,el,,630.2387,630.2387,0.558461362,0.001018361,0,0,0,,0,246,246,428,1,tenta,,,,,
,,,,,,6046dba06dcb8815046f1d4b,676192165fb32c2e1fb7aee6,67d0b2dbb3426713474bd61f,2025-03-11_16h02.36.152,Tarea de decisión léxica,2024.2.5,Win32,16.02564103,,,,,,,,,,,,,,,,,,,,,,,,630.2394,631.6645,l,1,0.6336,,0.6336,1,631.6646,632.1479,,,,,,310,FEM,NOWORD,DIS,150,tirra,,el,,632.1486,632.1496,0.558461362,0.001018361,0,0,0,,0,247,247,309,1,silla,,,,,
,,,,,,6046dba06dcb8815046f1d4b,676192165fb32c2e1fb7aee6,67d0b2dbb3426713474bd61f,2025-03-11_16h02.36.152,Tarea de decisión léxica,2024.2.5,Win32,16.02564103,,,,,,,,,,,,,,,,,,,,,,,,632.15,633.359,a,1,0.4126,,0.4126,1,633.3592,633.8326,,,,,,391,MAS,WORD,DIS,150,dueño,,la,,633.8326,633.8327,0.558461362,0.001018361,0,0,0,,0,248,248,390,1,dievo,,,,,
,,,,,,6046dba06dcb8815046f1d4b,676192165fb32c2e1fb7aee6,67d0b2dbb3426713474bd61f,2025-03-11_16h02.36.152,Tarea de decisión léxica,2024.2.5,Win32,16.02564103,,,,,,,,,,,,,,,,,,,,,,,,633.8338,635.1179,l,1,0.4932,,0.4932,1,635.1179,635.599,,,,,,258,FEM,NOWORD,DIS,150,asama,,el,,635.599,635.5991,0.558461362,0.001018361,0,0,0,,0,249,249,257,1,amiga,,,,,
,,,,,,6046dba06dcb8815046f1d4b,676192165fb32c2e1fb7aee6,67d0b2dbb3426713474bd61f,2025-03-11_16h02.36.152,Tarea de decisión léxica,2024.2.5,Win32,16.02564103,,,,,,,,,,,,,,,,,,,,,,,,635.6001,636.9036,a,0,0.4923,,0.4923,0,636.9043,637.3744,,,,,,348,FEM,NOWORD,AGR,150,mueza,,la,,637.3744,637.3745,0.558461362,0.001018361,0,0,0,,0,250,250,347,1,pieza,,,,,
,,,,,,6046dba06dcb8815046f1d4b,676192165fb32c2e1fb7aee6,67d0b2dbb3426713474bd61f,2025-03-11_16h02.36.152,Tarea de decisión léxica,2024.2.5,Win32,16.02564103,,,,,,,,,,,,,,,,,,,,,,,,637.3754,638.5798,l,0,0.413,,0.413,0,638.5799,639.0581,,,,,,447,MAS,WORD,AGR,150,bolso,,el,,639.0587,639.0596,0.558461362,0.001018361,0,0,0,,0,251,251,446,1,buaso,,,,,
,,,,,,6046dba06dcb8815046f1d4b,676192165fb32c2e1fb7aee6,67d0b2dbb3426713474bd61f,2025-03-11_16h02.36.152,Tarea de decisión léxica,2024.2.5,Win32,16.02564103,,,,,,,,,,,,,,,,,,,,,,,,639.06,640.4295,l,1,0.6317,,0.6317,1,640.4301,640.9213,,,,,,380,MAS,NOWORD,AGR,150,tunso,,el,,640.9213,640.9215,0.558461362,0.001018361,0,0,0,,0,252,252,379,1,turno,,,,,
,,,,,,6046dba06dcb8815046f1d4b,676192165fb32c2e1fb7aee6,67d0b2dbb3426713474bd61f,2025-03-11_16h02.36.152,Tarea de decisión léxica,2024.2.5,Win32,16.02564103,,,,,,,,,,,,,,,,,,,,,,,,640.9223,642.0421,a,1,0.3446,,0.3446,1,642.0421,642.5119,,,,,,381,MAS,WORD,DIS,150,humor,,la,,642.512,642.512,0.558461362,0.001018361,0,0,0,,0,253,253,380,1,nusor,,,,,
,,,,,,6046dba06dcb8815046f1d4b,676192165fb32c2e1fb7aee6,67d0b2dbb3426713474bd61f,2025-03-11_16h02.36.152,Tarea de decisión léxica,2024.2.5,Win32,16.02564103,,,,,,,,,,,,,,,,,,,,,,,,642.513,643.7853,a,1,0.4656,,0.4656,1,643.7854,644.2736,,,,,,119,MAS,WORD,DIS,150,pozo,,la,,644.2736,644.2737,0.558461362,0.001018361,0,0,0,,0,254,254,118,1,hooy,,,,,
,,,,,,6046dba06dcb8815046f1d4b,676192165fb32c2e1fb7aee6,67d0b2dbb3426713474bd61f,2025-03-11_16h02.36.152,Tarea de decisión léxica,2024.2.5,Win32,16.02564103,,,,,,,,,,,,,,,,,,,,,,,,644.2746,645.4682,a,1,0.4103,,0.4103,1,645.4683,645.9641,,,,,,259,MAS,WORD,DIS,150,juego,,la,,645.9642,645.9643,0.558461362,0.001018361,0,0,0,,0,255,255,258,1,jaumo,,,,,
,,,,,,6046dba06dcb8815046f1d4b,676192165fb32c2e1fb7aee6,67d0b2dbb3426713474bd61f,2025-03-11_16h02.36.152,Tarea de decisión léxica,2024.2.5,Win32,16.02564103,,,,,,,,,,,,,,,,,,,,,,,,645.9652,647.3286,l,1,0.6425,,0.6425,1,647.3287,647.8059,,,,,,480,MAS,NOWORD,AGR,150,rimpo,,el,,647.8066,647.8075,0.558461362,0.001018361,0,0,0,,0,256,256,479,1,rumbo,,,,,
,,,,,,6046dba06dcb8815046f1d4b,676192165fb32c2e1fb7aee6,67d0b2dbb3426713474bd61f,2025-03-11_16h02.36.152,Tarea de decisión léxica,2024.2.5,Win32,16.02564103,,,,,,,,,,,,,,,,,,,,,,,,647.8078,649.1575,l,1,0.5671,,0.5671,1,649.1575,649.6352,,,,,,2,FEM,NOWORD,DIS,150,mada,,el,,649.6353,649.6353,0.558461362,0.001018361,0,0,0,,0,257,257,1,1,casa,,,,,
,,,,,,6046dba06dcb8815046f1d4b,676192165fb32c2e1fb7aee6,67d0b2dbb3426713474bd61f,2025-03-11_16h02.36.152,Tarea de decisión léxica,2024.2.5,Win32,16.02564103,,,,,,,,,,,,,,,,,,,,,,,,649.636,650.9562,a,1,0.5819,,0.5819,1,650.9564,651.4277,,,,,,347,FEM,WORD,DIS,150,pieza,,el,,651.4278,651.4279,0.558461362,0.001018361,0,0,0,,0,258,258,346,1,mueza,,,,,
,,,,,,6046dba06dcb8815046f1d4b,676192165fb32c2e1fb7aee6,67d0b2dbb3426713474bd61f,2025-03-11_16h02.36.152,Tarea de decisión léxica,2024.2.5,Win32,16.02564103,,,,,,,,,,,,,,,,,,,,,,,,651.4286,652.7273,l,1,0.5687,,0.5687,1,652.7273,653.1984,,,,,,120,MAS,NOWORD,AGR,150,hooy,,el,,653.1985,653.1985,0.558461362,0.001018361,0,0,0,,0,259,259,119,1,pozo,,,,,
,,,,,,6046dba06dcb8815046f1d4b,676192165fb32c2e1fb7aee6,67d0b2dbb3426713474bd61f,2025-03-11_16h02.36.152,Tarea de decisión léxica,2024.2.5,Win32,16.02564103,,,,,,,,,,,,,,,,,,,,,,,,653.1992,654.4708,a,0,0.4734,,0.4734,0,654.4714,654.9588,,,,,,460,MAS,NOWORD,AGR,150,fraco,,el,,654.9588,654.9589,0.558461362,0.001018361,0,0,0,,0,260,260,459,1,grado,,,,,
,,,,,,6046dba06dcb8815046f1d4b,676192165fb32c2e1fb7aee6,67d0b2dbb3426713474bd61f,2025-03-11_16h02.36.152,Tarea de decisión léxica,2024.2.5,Win32,16.02564103,,,,,,,,,,,,,,,,,,,,,,,,654.9598,656.2453,a,1,0.555,,0.555,1,656.2459,656.7496,,,,,,261,MAS,WORD,AGR,150,sitio,,el,,656.7502,656.7512,0.558461362,0.001018361,0,0,0,,0,261,261,260,1,titio,,,,,
,,,,,,6046dba06dcb8815046f1d4b,676192165fb32c2e1fb7aee6,67d0b2dbb3426713474bd61f,2025-03-11_16h02.36.152,Tarea de decisión léxica,2024.2.5,Win32,16.02564103,,,,,,,,,,,,,,,,,,,,,,,,656.7515,657.9507,a,1,0.4047,,0.4047,1,657.9507,658.4363,,,,,,435,MAS,WORD,DIS,150,ritmo,,la,,658.4364,658.4364,0.558461362,0.001018361,0,0,0,,0,262,262,434,1,ricno,,,,,
