counterbalancing_condition,consent_prescreening.block_1/declare_consent,consent_prescreening.block_1/age_years,consent_prescreening.block_1/gender,consent_prescreening.block_1/language_disorder,consent_prescreening.block_1/first_language,PROLIFIC_PID,STUDY_ID,SESSION_ID,date,expName,psychopyVersion,OS,frameRate,check_prescreening_answers.started,check_prescreening_answers.stopped,Instructions.started,Instructions.stopped,instr_done_keyboard.keys,instr_done_keyboard.rt,instr_done_keyboard.duration,instr_done_touch.x,instr_done_touch.y,instr_done_touch.leftButton,instr_done_touch.midButton,instr_done_touch.rightButton,instr_done_touch.clicked_name,instruction_pages.thisRepN,instruction_pages.thisTrialN,instruction_pages.thisN,instruction_pages.thisIndex,instruction_pages.ran,pageN,phase,instruct_text,has_image,instruct_image,presentTrial.started,presentTrial.stopped,response.keys,response.corr,response.rt,response.duration,rt,corr,feedback.started,feedback.stopped,practice_trials.thisRepN,practice_trials.thisTrialN,practice_trials.thisN,practice_trials.thisIndex,practice_trials.ran,TrialID,Gender,StimulusType,Condition,PrimeDuration,Prime,len,Flanker,corrAns,Break.started,Break.stopped,break_done_touch.x,break_done_touch.y,break_done_touch.leftButton,break_done_touch.midButton,break_done_touch.rightButton,break_done_keyboard.keys,experiment_trials.thisRepN,experiment_trials.thisTrialN,experiment_trials.thisN,experiment_trials.thisIndex,experiment_trials.ran,PairedWith,break_done_keyboard.rt,break_done_keyboard.duration,End.started,End.stopped
0,"[""over_18"",""comfortable"",""read_info"",""consent_given""]",23,M,"[""none""]","[""spanish""]",605824a5c79c7e261e281cc5,676192165fb32c2e1fb7aee6,67d28140e496a7b3ff552168,2025-03-13_03h56.05.014,Tarea de decisión léxica,2024.2.5,Win32,59.88023952,,,,,,,,,,,,,,,,,,,,,,,,,,,,,,,,,,,,,,,,,,,,,,,,,,,,,,,,,,,,,,,,,
,,,,,,605824a5c79c7e261e281cc5,676192165fb32c2e1fb7aee6,67d28140e496a7b3ff552168,2025-03-13_03h56.05.014,Tarea de decisión léxica,2024.2.5,Win32,59.88023952,36.7341,36.7343,,,,,,,,,,,,,,,,,,,,,,,,,,,,,,,,,,,,,,,,,,,,,,,,,,,,,,,,,,,,,,,
,,,,,,605824a5c79c7e261e281cc5,676192165fb32c2e1fb7aee6,67d28140e496a7b3ff552168,2025-03-13_03h56.05.014,Tarea de decisión léxica,2024.2.5,Win32,59.88023952,,,36.7535,47.7816,space,10.9959,,0.037962963,-0.391666667,0,0,0,,0,0,0,0,1,1,instructions,"INSTRUCCIONES
Va a realizar una prueba de decisión léxica. Desde el comienzo de la prueba mire siempre al centro de la pantalla. Se presentará una serie de cadenas de letras, una a la vez, en la pantalla. Su tarea consiste en determinar si cada cadena de letras constituye una palabra real en español o una no-palabra (una secuencia de letras que no constituye una palabra real). 

Pulse la tecla ESPACIO para continuar.",0,keyboardresponseWN.png,,,,,,,,,,,,,,,,,,,,,,,,,,,,,,,,,,,,,,,,,,
,,,,,,605824a5c79c7e261e281cc5,676192165fb32c2e1fb7aee6,67d28140e496a7b3ff552168,2025-03-13_03h56.05.014,Tarea de decisión léxica,2024.2.5,Win32,59.88023952,,,47.7839,62.1084,space,14.3076,,0.037962963,-0.391666667,0,0,0,,0,1,1,1,1,2,instructions,"El procedimiento es el siguiente: Aparecerán dos barras verticales posicionadas en el centro de la pantalla, separadas por un pequeño espacio.Por favor, enfoque su atención en el espacio entre las barras. Esto preparará sus ojos para la siguiente cadena de letras, que aparecerá entre las dos barras durante un instante.

Pulse la tecla ESPACIO para continuar.",0,keyboardresponseWN.png,,,,,,,,,,,,,,,,,,,,,,,,,,,,,,,,,,,,,,,,,,
,,,,,,605824a5c79c7e261e281cc5,676192165fb32c2e1fb7aee6,67d28140e496a7b3ff552168,2025-03-13_03h56.05.014,Tarea de decisión léxica,2024.2.5,Win32,59.88023952,,,62.1157,80.2574,space,18.0891,,0.037962963,-0.391666667,0,0,0,,0,2,2,2,1,3,instructions,"En el teclado de su dispositivo, pulse la tecla ""A"" si la cadena de letras es una palabra real en español (por ejemplo: ""mano"") y la tecla ""L"" si la cadena de letras es una no-palabra (por ejemplo: ""minu"").
Pulse la tecla ESPACIO para continuar.",1,keyboardresponseWN.png,,,,,,,,,,,,,,,,,,,,,,,,,,,,,,,,,,,,,,,,,,
,,,,,,605824a5c79c7e261e281cc5,676192165fb32c2e1fb7aee6,67d28140e496a7b3ff552168,2025-03-13_03h56.05.014,Tarea de decisión léxica,2024.2.5,Win32,59.88023952,,,80.2631,87.4236,space,7.1465,,0.037962963,-0.391666667,0,0,0,,0,3,3,3,1,4,instructions,"Es muy importante que responda con la mayor rapidez y precisión posibles. Si no responde dentro de 2 segundos, aparecerá el mensaje ""Muy lento"" y el experimento pasará a la siguiente palabra. Inmediatamente después de su respuesta se indicará si fue correcta o no. Los primeros 15 intentos serán de práctica y habrá dos descansos durante la prueba.

Pulse la tecla ESPACIO  para iniciar la parte de práctica.",0,keyboardresponseWN.png,,,,,,,,,,,,,,,,,,,,,,,,,,,,,,,,,,,,,,,,,,
,,,,,,605824a5c79c7e261e281cc5,676192165fb32c2e1fb7aee6,67d28140e496a7b3ff552168,2025-03-13_03h56.05.014,Tarea de decisión léxica,2024.2.5,Win32,59.88023952,,,,,,,,,,,,,,,,,,,,,,,,87.4451,89.6072,a,1,1.4865,,1.4865,1,89.6076,90.1068,0,0,0,5,1,1006,FEM,WORD,AGR,150,cara,4,la,l,,,,,,,,,,,,,,,,,,
,,,,,,605824a5c79c7e261e281cc5,676192165fb32c2e1fb7aee6,67d28140e496a7b3ff552168,2025-03-13_03h56.05.014,Tarea de decisión léxica,2024.2.5,Win32,59.88023952,,,,,,,,,,,,,,,,,,,,,,,,90.1128,91.8732,l,1,1.0836,,1.0836,1,91.8733,92.3734,0,1,1,1,1,1002,FEM,NOWORD,DIS,150,mabo,4,el,a,,,,,,,,,,,,,,,,,,
,,,,,,605824a5c79c7e261e281cc5,676192165fb32c2e1fb7aee6,67d28140e496a7b3ff552168,2025-03-13_03h56.05.014,Tarea de decisión léxica,2024.2.5,Win32,59.88023952,,,,,,,,,,,,,,,,,,,,,,,,92.3787,94.0232,l,1,0.9677,,0.9677,1,94.0233,94.5231,0,2,2,2,1,1003,FEM,NOWORD,DIS,150,muvor,5,el,a,,,,,,,,,,,,,,,,,,
,,,,,,605824a5c79c7e261e281cc5,676192165fb32c2e1fb7aee6,67d28140e496a7b3ff552168,2025-03-13_03h56.05.014,Tarea de decisión léxica,2024.2.5,Win32,59.88023952,,,,,,,,,,,,,,,,,,,,,,,,94.5268,96.1063,l,1,0.9007,,0.9007,1,96.1065,96.6063,0,3,3,3,1,1004,FEM,NOWORD,AGR,150,bireo,5,la,a,,,,,,,,,,,,,,,,,,
,,,,,,605824a5c79c7e261e281cc5,676192165fb32c2e1fb7aee6,67d28140e496a7b3ff552168,2025-03-13_03h56.05.014,Tarea de decisión léxica,2024.2.5,Win32,59.88023952,,,,,,,,,,,,,,,,,,,,,,,,96.6098,98.7062,l,1,1.4257,,1.4257,1,98.7064,99.2063,0,4,4,0,1,1001,FEM,NOWORD,AGR,150,croz,4,la,a,,,,,,,,,,,,,,,,,,
,,,,,,605824a5c79c7e261e281cc5,676192165fb32c2e1fb7aee6,67d28140e496a7b3ff552168,2025-03-13_03h56.05.014,Tarea de decisión léxica,2024.2.5,Win32,59.88023952,,,,,,,,,,,,,,,,,,,,,,,,99.21,100.4561,a,1,0.5749,,0.5749,1,100.4564,100.9561,0,5,5,8,1,1009,FEM,WORD,AGR,150,viejo,5,la,l,,,,,,,,,,,,,,,,,,
,,,,,,605824a5c79c7e261e281cc5,676192165fb32c2e1fb7aee6,67d28140e496a7b3ff552168,2025-03-13_03h56.05.014,Tarea de decisión léxica,2024.2.5,Win32,59.88023952,,,,,,,,,,,,,,,,,,,,,,,,100.9594,102.2895,l,1,0.6533,,0.6533,1,102.2896,102.7894,0,6,6,4,1,1005,MAS,NOWORD,DIS,150,nobad,5,la,a,,,,,,,,,,,,,,,,,,
,,,,,,605824a5c79c7e261e281cc5,676192165fb32c2e1fb7aee6,67d28140e496a7b3ff552168,2025-03-13_03h56.05.014,Tarea de decisión léxica,2024.2.5,Win32,59.88023952,,,,,,,,,,,,,,,,,,,,,,,,102.7926,103.989,a,1,0.5185,,0.5185,1,103.989,104.4892,0,7,7,6,1,1007,MAS,WORD,DIS,150,masa,4,la,l,,,,,,,,,,,,,,,,,,
,,,,,,605824a5c79c7e261e281cc5,676192165fb32c2e1fb7aee6,67d28140e496a7b3ff552168,2025-03-13_03h56.05.014,Tarea de decisión léxica,2024.2.5,Win32,59.88023952,,,,,,,,,,,,,,,,,,,,,,,,104.4915,105.6224,a,1,0.4566,,0.4566,1,105.6225,106.1223,0,8,8,9,1,1010,MAS,WORD,DIS,150,video,5,la,l,,,,,,,,,,,,,,,,,,
,,,,,,605824a5c79c7e261e281cc5,676192165fb32c2e1fb7aee6,67d28140e496a7b3ff552168,2025-03-13_03h56.05.014,Tarea de decisión léxica,2024.2.5,Win32,59.88023952,,,,,,,,,,,,,,,,,,,,,,,,106.1267,107.8055,a,1,1.0085,,1.0085,1,107.8056,108.3055,0,9,9,7,1,1008,MAS,WORD,DIS,150,frío,4,la,l,,,,,,,,,,,,,,,,,,
,,,,,,605824a5c79c7e261e281cc5,676192165fb32c2e1fb7aee6,67d28140e496a7b3ff552168,2025-03-13_03h56.05.014,Tarea de decisión léxica,2024.2.5,Win32,59.88023952,,,109.8459,130.1042,space,20.2505,,0.037962963,-0.391666667,0,0,0,,,,,,,,,,,,130.1439,131.3878,a,1,0.5736,,0.5736,1,131.3879,131.8873,,,,,,257,FEM,WORD,DIS,150,amiga,,el,,131.8875,131.8953,0.037962963,-0.391666667,0,0,0,,0,0,0,256,1,asama,,,,
,,,,,,605824a5c79c7e261e281cc5,676192165fb32c2e1fb7aee6,67d28140e496a7b3ff552168,2025-03-13_03h56.05.014,Tarea de decisión léxica,2024.2.5,Win32,59.88023952,,,,,,,,,,,,,,,,,,,,,,,,131.8963,133.1705,a,1,0.6048,,0.6048,1,133.1706,133.6711,,,,,,211,FEM,WORD,DIS,150,joya,,el,,133.6712,133.6713,0.037962963,-0.391666667,0,0,0,,0,1,1,210,1,joad,,,,
,,,,,,605824a5c79c7e261e281cc5,676192165fb32c2e1fb7aee6,67d28140e496a7b3ff552168,2025-03-13_03h56.05.014,Tarea de decisión léxica,2024.2.5,Win32,59.88023952,,,,,,,,,,,,,,,,,,,,,,,,133.6757,134.8874,a,1,0.5411,,0.5411,1,134.8875,135.3874,,,,,,7,MAS,WORD,AGR,150,hijo,,el,,135.391,135.3939,0.037962963,-0.391666667,0,0,0,,0,2,2,6,1,nivo,,,,
,,,,,,605824a5c79c7e261e281cc5,676192165fb32c2e1fb7aee6,67d28140e496a7b3ff552168,2025-03-13_03h56.05.014,Tarea de decisión léxica,2024.2.5,Win32,59.88023952,,,,,,,,,,,,,,,,,,,,,,,,135.3948,136.5372,a,1,0.4679,,0.4679,1,136.5374,137.0374,,,,,,335,FEM,WORD,AGR,150,costa,,la,,137.0375,137.0376,0.037962963,-0.391666667,0,0,0,,0,3,3,334,1,pesta,,,,
,,,,,,605824a5c79c7e261e281cc5,676192165fb32c2e1fb7aee6,67d28140e496a7b3ff552168,2025-03-13_03h56.05.014,Tarea de decisión léxica,2024.2.5,Win32,59.88023952,,,,,,,,,,,,,,,,,,,,,,,,137.0401,138.1369,a,1,0.4229,,0.4229,1,138.1369,138.6369,,,,,,171,MAS,WORD,AGR,150,hilo,,el,,138.637,138.637,0.037962963,-0.391666667,0,0,0,,0,4,4,170,1,niro,,,,
,,,,,,605824a5c79c7e261e281cc5,676192165fb32c2e1fb7aee6,67d28140e496a7b3ff552168,2025-03-13_03h56.05.014,Tarea de decisión léxica,2024.2.5,Win32,59.88023952,,,,,,,,,,,,,,,,,,,,,,,,138.6421,140.6371,l,1,1.3191,,1.3191,1,140.6372,141.1369,,,,,,138,MAS,NOWORD,DIS,150,pamo,,la,,141.1369,141.1371,0.037962963,-0.391666667,0,0,0,,0,5,5,137,1,nene,,,,
,,,,,,605824a5c79c7e261e281cc5,676192165fb32c2e1fb7aee6,67d28140e496a7b3ff552168,2025-03-13_03h56.05.014,Tarea de decisión léxica,2024.2.5,Win32,59.88023952,,,,,,,,,,,,,,,,,,,,,,,,141.1396,142.5535,a,1,0.7367,,0.7367,1,142.5536,143.0537,,,,,,259,MAS,WORD,DIS,150,juego,,la,,143.0539,143.054,0.037962963,-0.391666667,0,0,0,,0,6,6,258,1,jaumo,,,,
,,,,,,605824a5c79c7e261e281cc5,676192165fb32c2e1fb7aee6,67d28140e496a7b3ff552168,2025-03-13_03h56.05.014,Tarea de decisión léxica,2024.2.5,Win32,59.88023952,,,,,,,,,,,,,,,,,,,,,,,,143.0575,144.1869,a,1,0.4588,,0.4588,1,144.1869,144.6868,,,,,,213,FEM,WORD,AGR,150,rama,,la,,144.6898,144.6931,0.037962963,-0.391666667,0,0,0,,0,7,7,212,1,bana,,,,
,,,,,,605824a5c79c7e261e281cc5,676192165fb32c2e1fb7aee6,67d28140e496a7b3ff552168,2025-03-13_03h56.05.014,Tarea de decisión léxica,2024.2.5,Win32,59.88023952,,,,,,,,,,,,,,,,,,,,,,,,144.6939,145.8035,a,1,0.434,,0.434,1,145.8036,146.3035,,,,,,95,FEM,WORD,DIS,151,moda,,el,,146.3036,146.3037,0.037962963,-0.391666667,0,0,0,,0,8,8,94,1,neda,,,,
,,,,,,605824a5c79c7e261e281cc5,676192165fb32c2e1fb7aee6,67d28140e496a7b3ff552168,2025-03-13_03h56.05.014,Tarea de decisión léxica,2024.2.5,Win32,59.88023952,,,,,,,,,,,,,,,,,,,,,,,,146.3062,147.82,l,1,0.8402,,0.8402,1,147.8201,148.32,,,,,,104,FEM,NOWORD,AGR,150,rova,,la,,148.3201,148.3202,0.037962963,-0.391666667,0,0,0,,0,9,9,103,1,ruta,,,,
,,,,,,605824a5c79c7e261e281cc5,676192165fb32c2e1fb7aee6,67d28140e496a7b3ff552168,2025-03-13_03h56.05.014,Tarea de decisión léxica,2024.2.5,Win32,59.88023952,,,,,,,,,,,,,,,,,,,,,,,,148.3238,149.6364,l,1,0.6348,,0.6348,1,149.6365,150.1367,,,,,,424,MAS,NOWORD,AGR,150,quigo,,el,,150.1368,150.1369,0.037962963,-0.391666667,0,0,0,,0,10,10,423,1,queso,,,,
,,,,,,605824a5c79c7e261e281cc5,676192165fb32c2e1fb7aee6,67d28140e496a7b3ff552168,2025-03-13_03h56.05.014,Tarea de decisión léxica,2024.2.5,Win32,59.88023952,,,,,,,,,,,,,,,,,,,,,,,,150.1393,151.5199,a,1,0.7053,,0.7053,1,151.52,152.0195,,,,,,449,FEM,WORD,DIS,150,pluma,,el,,152.0238,152.0259,0.037962963,-0.391666667,0,0,0,,0,11,11,448,1,crusa,,,,
,,,,,,605824a5c79c7e261e281cc5,676192165fb32c2e1fb7aee6,67d28140e496a7b3ff552168,2025-03-13_03h56.05.014,Tarea de decisión léxica,2024.2.5,Win32,59.88023952,,,,,,,,,,,,,,,,,,,,,,,,152.0265,153.4194,a,1,0.7203,,0.7203,1,153.4194,153.9195,,,,,,249,FEM,WORD,AGR,150,clase,,la,,153.9195,153.9197,0.037962963,-0.391666667,0,0,0,,0,12,12,248,1,plane,,,,
,,,,,,605824a5c79c7e261e281cc5,676192165fb32c2e1fb7aee6,67d28140e496a7b3ff552168,2025-03-13_03h56.05.014,Tarea de decisión léxica,2024.2.5,Win32,59.88023952,,,,,,,,,,,,,,,,,,,,,,,,153.9237,155.4526,a,1,0.8605,,0.8605,1,155.4527,155.9529,,,,,,351,MAS,WORD,DIS,150,vuelo,,la,,155.953,155.953,0.037962963,-0.391666667,0,0,0,,0,13,13,350,1,duepo,,,,
,,,,,,605824a5c79c7e261e281cc5,676192165fb32c2e1fb7aee6,67d28140e496a7b3ff552168,2025-03-13_03h56.05.014,Tarea de decisión léxica,2024.2.5,Win32,59.88023952,,,,,,,,,,,,,,,,,,,,,,,,155.956,157.7363,l,1,1.1013,,1.1013,1,157.7363,158.2357,,,,,,254,MAS,NOWORD,DIS,150,trido,,la,,158.2358,158.2358,0.037962963,-0.391666667,0,0,0,,0,14,14,253,1,chico,,,,
,,,,,,605824a5c79c7e261e281cc5,676192165fb32c2e1fb7aee6,67d28140e496a7b3ff552168,2025-03-13_03h56.05.014,Tarea de decisión léxica,2024.2.5,Win32,59.88023952,,,,,,,,,,,,,,,,,,,,,,,,158.2382,159.9693,l,1,1.0581,,1.0581,1,159.9694,160.4692,,,,,,328,MAS,NOWORD,AGR,150,lendo,,el,,160.4693,160.4694,0.037962963,-0.391666667,0,0,0,,0,15,15,327,1,fondo,,,,
,,,,,,605824a5c79c7e261e281cc5,676192165fb32c2e1fb7aee6,67d28140e496a7b3ff552168,2025-03-13_03h56.05.014,Tarea de decisión léxica,2024.2.5,Win32,59.88023952,,,,,,,,,,,,,,,,,,,,,,,,160.4718,161.7023,a,1,0.5517,,0.5517,1,161.7024,162.2025,,,,,,215,FEM,WORD,DIS,150,raíz,,el,,162.2057,162.2077,0.037962963,-0.391666667,0,0,0,,0,16,16,214,1,raua,,,,
,,,,,,605824a5c79c7e261e281cc5,676192165fb32c2e1fb7aee6,67d28140e496a7b3ff552168,2025-03-13_03h56.05.014,Tarea de decisión léxica,2024.2.5,Win32,59.88023952,,,,,,,,,,,,,,,,,,,,,,,,162.2083,163.519,l,1,0.6394,,0.6394,1,163.519,164.0191,,,,,,346,FEM,NOWORD,DIS,150,anera,,el,,164.0192,164.0193,0.037962963,-0.391666667,0,0,0,,0,17,17,345,1,arena,,,,
,,,,,,605824a5c79c7e261e281cc5,676192165fb32c2e1fb7aee6,67d28140e496a7b3ff552168,2025-03-13_03h56.05.014,Tarea de decisión léxica,2024.2.5,Win32,59.88023952,,,,,,,,,,,,,,,,,,,,,,,,164.0218,165.4691,l,1,0.7741,,0.7741,1,165.4691,165.9691,,,,,,20,MAS,NOWORD,AGR,150,himo,,el,,165.9691,165.9693,0.037962963,-0.391666667,0,0,0,,0,18,18,19,1,niño,,,,
,,,,,,605824a5c79c7e261e281cc5,676192165fb32c2e1fb7aee6,67d28140e496a7b3ff552168,2025-03-13_03h56.05.014,Tarea de decisión léxica,2024.2.5,Win32,59.88023952,,,,,,,,,,,,,,,,,,,,,,,,165.972,167.3197,a,1,0.6711,,0.6711,1,167.3197,167.8189,,,,,,279,FEM,WORD,AGR,150,prisa,,la,,167.819,167.8191,0.037962963,-0.391666667,0,0,0,,0,19,19,278,1,grina,,,,
,,,,,,605824a5c79c7e261e281cc5,676192165fb32c2e1fb7aee6,67d28140e496a7b3ff552168,2025-03-13_03h56.05.014,Tarea de decisión léxica,2024.2.5,Win32,59.88023952,,,,,,,,,,,,,,,,,,,,,,,,167.8222,169.0854,l,1,0.5865,,0.5865,1,169.0855,169.5853,,,,,,42,FEM,NOWORD,DIS,150,haje,,el,,169.5854,169.5855,0.037962963,-0.391666667,0,0,0,,0,20,20,41,1,nave,,,,
,,,,,,605824a5c79c7e261e281cc5,676192165fb32c2e1fb7aee6,67d28140e496a7b3ff552168,2025-03-13_03h56.05.014,Tarea de decisión léxica,2024.2.5,Win32,59.88023952,,,,,,,,,,,,,,,,,,,,,,,,169.5892,170.8684,l,1,0.6008,,0.6008,1,170.8685,171.3684,,,,,,150,MAS,NOWORD,DIS,150,pafo,,la,,171.3713,171.3739,0.037962963,-0.391666667,0,0,0,,0,21,21,149,1,cabo,,,,
,,,,,,605824a5c79c7e261e281cc5,676192165fb32c2e1fb7aee6,67d28140e496a7b3ff552168,2025-03-13_03h56.05.014,Tarea de decisión léxica,2024.2.5,Win32,59.88023952,,,,,,,,,,,,,,,,,,,,,,,,171.3743,172.935,l,1,0.8876,,0.8876,1,172.9352,173.4352,,,,,,404,FEM,NOWORD,AGR,150,grisa,,la,,173.4353,173.4355,0.037962963,-0.391666667,0,0,0,,0,22,22,403,1,prima,,,,
,,,,,,605824a5c79c7e261e281cc5,676192165fb32c2e1fb7aee6,67d28140e496a7b3ff552168,2025-03-13_03h56.05.014,Tarea de decisión léxica,2024.2.5,Win32,59.88023952,,,,,,,,,,,,,,,,,,,,,,,,173.4381,174.7186,l,1,0.6031,,0.6031,1,174.7187,175.2185,,,,,,16,FEM,NOWORD,AGR,150,odea,,la,,175.2185,175.2186,0.037962963,-0.391666667,0,0,0,,0,23,23,15,1,idea,,,,
,,,,,,605824a5c79c7e261e281cc5,676192165fb32c2e1fb7aee6,67d28140e496a7b3ff552168,2025-03-13_03h56.05.014,Tarea de decisión léxica,2024.2.5,Win32,59.88023952,,,,,,,,,,,,,,,,,,,,,,,,175.2236,176.5017,l,1,0.6011,,0.6011,1,176.5018,177.0018,,,,,,70,FEM,NOWORD,DIS,150,ñola,,el,,177.0019,177.0019,0.037962963,-0.391666667,0,0,0,,0,24,24,69,1,zona,,,,
,,,,,,605824a5c79c7e261e281cc5,676192165fb32c2e1fb7aee6,67d28140e496a7b3ff552168,2025-03-13_03h56.05.014,Tarea de decisión léxica,2024.2.5,Win32,59.88023952,,,,,,,,,,,,,,,,,,,,,,,,177.0048,178.4679,l,1,0.7889,,0.7889,1,178.468,178.9681,,,,,,386,FEM,NOWORD,DIS,150,febra,,el,,178.9682,178.9683,0.037962963,-0.391666667,0,0,0,,0,25,25,385,1,letra,,,,
,,,,,,605824a5c79c7e261e281cc5,676192165fb32c2e1fb7aee6,67d28140e496a7b3ff552168,2025-03-13_03h56.05.014,Tarea de decisión léxica,2024.2.5,Win32,59.88023952,,,,,,,,,,,,,,,,,,,,,,,,178.9711,180.268,a,1,0.6192,,0.6192,1,180.2681,180.7678,,,,,,457,MAS,WORD,AGR,150,plato,,el,,180.7711,180.7735,0.037962963,-0.391666667,0,0,0,,0,26,26,456,1,glaco,,,,
,,,,,,605824a5c79c7e261e281cc5,676192165fb32c2e1fb7aee6,67d28140e496a7b3ff552168,2025-03-13_03h56.05.014,Tarea de decisión léxica,2024.2.5,Win32,59.88023952,,,,,,,,,,,,,,,,,,,,,,,,180.774,182.068,a,1,0.6219,,0.6219,1,182.0681,182.568,,,,,,385,FEM,WORD,AGR,150,letra,,la,,182.568,182.5681,0.037962963,-0.391666667,0,0,0,,0,27,27,384,1,febra,,,,
,,,,,,605824a5c79c7e261e281cc5,676192165fb32c2e1fb7aee6,67d28140e496a7b3ff552168,2025-03-13_03h56.05.014,Tarea de decisión léxica,2024.2.5,Win32,59.88023952,,,,,,,,,,,,,,,,,,,,,,,,182.5706,183.8008,a,1,0.5603,,0.5603,1,183.8009,184.3009,,,,,,329,MAS,WORD,DIS,150,hueso,,la,,184.301,184.3011,0.037962963,-0.391666667,0,0,0,,0,28,28,328,1,nueno,,,,
,,,,,,605824a5c79c7e261e281cc5,676192165fb32c2e1fb7aee6,67d28140e496a7b3ff552168,2025-03-13_03h56.05.014,Tarea de decisión léxica,2024.2.5,Win32,59.88023952,,,,,,,,,,,,,,,,,,,,,,,,184.304,185.8343,l,1,0.855,,0.855,1,185.8344,186.3343,,,,,,476,FEM,NOWORD,AGR,150,mucta,,la,,186.3345,186.3345,0.037962963,-0.391666667,0,0,0,,0,29,29,475,1,manta,,,,
,,,,,,605824a5c79c7e261e281cc5,676192165fb32c2e1fb7aee6,67d28140e496a7b3ff552168,2025-03-13_03h56.05.014,Tarea de decisión léxica,2024.2.5,Win32,59.88023952,,,,,,,,,,,,,,,,,,,,,,,,186.3368,187.7341,l,0,0.7263,,0.7263,0,187.7369,188.234,,,,,,103,FEM,WORD,AGR,150,ruta,,la,,188.2341,188.2341,0.037962963,-0.391666667,0,0,0,,0,30,30,102,1,rova,,,,
,,,,,,605824a5c79c7e261e281cc5,676192165fb32c2e1fb7aee6,67d28140e496a7b3ff552168,2025-03-13_03h56.05.014,Tarea de decisión léxica,2024.2.5,Win32,59.88023952,,,,,,,,,,,,,,,,,,,,,,,,188.2365,189.684,l,1,0.7693,,0.7693,1,189.6863,190.1839,,,,,,388,FEM,NOWORD,AGR,150,bresa,,la,,190.1889,190.1903,0.037962963,-0.391666667,0,0,0,,0,31,31,387,1,crema,,,,
,,,,,,605824a5c79c7e261e281cc5,676192165fb32c2e1fb7aee6,67d28140e496a7b3ff552168,2025-03-13_03h56.05.014,Tarea de decisión léxica,2024.2.5,Win32,59.88023952,,,,,,,,,,,,,,,,,,,,,,,,190.191,191.6504,l,1,0.7907,,0.7907,1,191.6505,192.1507,,,,,,174,FEM,NOWORD,DIS,150,boma,,el,,192.1508,192.1508,0.037962963,-0.391666667,0,0,0,,0,32,32,173,1,rosa,,,,
,,,,,,605824a5c79c7e261e281cc5,676192165fb32c2e1fb7aee6,67d28140e496a7b3ff552168,2025-03-13_03h56.05.014,Tarea de decisión léxica,2024.2.5,Win32,59.88023952,,,,,,,,,,,,,,,,,,,,,,,,192.1534,193.4172,a,1,0.5832,,0.5832,1,193.4173,193.9173,,,,,,407,FEM,WORD,DIS,150,cueva,,el,,193.9174,193.9175,0.037962963,-0.391666667,0,0,0,,0,33,33,406,1,cauba,,,,
,,,,,,605824a5c79c7e261e281cc5,676192165fb32c2e1fb7aee6,67d28140e496a7b3ff552168,2025-03-13_03h56.05.014,Tarea de decisión léxica,2024.2.5,Win32,59.88023952,,,,,,,,,,,,,,,,,,,,,,,,193.9207,195.1838,l,1,0.5844,,0.5844,1,195.1839,195.6838,,,,,,190,MAS,NOWORD,DIS,150,muvo,,la,,195.6839,195.6841,0.037962963,-0.391666667,0,0,0,,0,34,34,189,1,puño,,,,
,,,,,,605824a5c79c7e261e281cc5,676192165fb32c2e1fb7aee6,67d28140e496a7b3ff552168,2025-03-13_03h56.05.014,Tarea de decisión léxica,2024.2.5,Win32,59.88023952,,,,,,,,,,,,,,,,,,,,,,,,195.6867,197.3003,a,1,0.9387,,0.9387,1,197.3003,197.8004,,,,,,143,MAS,WORD,DIS,150,pavo,,la,,197.8036,197.8058,0.037962963,-0.391666667,0,0,0,,0,35,35,142,1,pezo,,,,
,,,,,,605824a5c79c7e261e281cc5,676192165fb32c2e1fb7aee6,67d28140e496a7b3ff552168,2025-03-13_03h56.05.014,Tarea de decisión léxica,2024.2.5,Win32,59.88023952,,,,,,,,,,,,,,,,,,,,,,,,197.8063,199.1169,l,1,0.6429,,0.6429,1,199.117,199.6169,,,,,,216,FEM,NOWORD,AGR,150,raua,,la,,199.617,199.6171,0.037962963,-0.391666667,0,0,0,,0,36,36,215,1,raíz,,,,
,,,,,,605824a5c79c7e261e281cc5,676192165fb32c2e1fb7aee6,67d28140e496a7b3ff552168,2025-03-13_03h56.05.014,Tarea de decisión léxica,2024.2.5,Win32,59.88023952,,,,,,,,,,,,,,,,,,,,,,,,199.6205,200.9837,a,1,0.6872,,0.6872,1,200.9838,201.4834,,,,,,167,FEM,WORD,AGR,150,jefa,,la,,201.4834,201.4835,0.037962963,-0.391666667,0,0,0,,0,37,37,166,1,zifa,,,,
,,,,,,605824a5c79c7e261e281cc5,676192165fb32c2e1fb7aee6,67d28140e496a7b3ff552168,2025-03-13_03h56.05.014,Tarea de decisión léxica,2024.2.5,Win32,59.88023952,,,,,,,,,,,,,,,,,,,,,,,,201.4862,202.65,l,0,0.483,,0.483,0,202.6524,203.1501,,,,,,343,FEM,WORD,DIS,150,plata,,el,,203.1501,203.1502,0.037962963,-0.391666667,0,0,0,,0,38,38,342,1,trada,,,,
,,,,,,605824a5c79c7e261e281cc5,676192165fb32c2e1fb7aee6,67d28140e496a7b3ff552168,2025-03-13_03h56.05.014,Tarea de decisión léxica,2024.2.5,Win32,59.88023952,,,,,,,,,,,,,,,,,,,,,,,,203.1532,204.3664,a,1,0.5367,,0.5367,1,204.3685,204.8668,,,,,,423,MAS,WORD,AGR,150,queso,,el,,204.8668,204.8669,0.037962963,-0.391666667,0,0,0,,0,39,39,422,1,quigo,,,,
,,,,,,605824a5c79c7e261e281cc5,676192165fb32c2e1fb7aee6,67d28140e496a7b3ff552168,2025-03-13_03h56.05.014,Tarea de decisión léxica,2024.2.5,Win32,59.88023952,,,,,,,,,,,,,,,,,,,,,,,,204.8691,206.2833,l,1,0.7368,,0.7368,1,206.2834,206.7832,,,,,,358,FEM,NOWORD,DIS,150,gruba,,el,,206.7874,206.7897,0.037962963,-0.391666667,0,0,0,,0,40,40,357,1,bruja,,,,
,,,,,,605824a5c79c7e261e281cc5,676192165fb32c2e1fb7aee6,67d28140e496a7b3ff552168,2025-03-13_03h56.05.014,Tarea de decisión léxica,2024.2.5,Win32,59.88023952,,,,,,,,,,,,,,,,,,,,,,,,206.7907,208.1993,a,1,0.7374,,0.7374,1,208.1995,208.6998,,,,,,47,MAS,WORD,AGR,150,club,,el,,208.6999,208.7,0.037962963,-0.391666667,0,0,0,,0,41,41,46,1,chub,,,,
,,,,,,605824a5c79c7e261e281cc5,676192165fb32c2e1fb7aee6,67d28140e496a7b3ff552168,2025-03-13_03h56.05.014,Tarea de decisión léxica,2024.2.5,Win32,59.88023952,,,,,,,,,,,,,,,,,,,,,,,,208.703,210.3159,l,1,0.9382,,0.9382,1,210.3159,210.8162,,,,,,146,MAS,NOWORD,DIS,150,nobo,,la,,210.8163,210.8164,0.037962963,-0.391666667,0,0,0,,0,42,42,145,1,león,,,,
,,,,,,605824a5c79c7e261e281cc5,676192165fb32c2e1fb7aee6,67d28140e496a7b3ff552168,2025-03-13_03h56.05.014,Tarea de decisión léxica,2024.2.5,Win32,59.88023952,,,,,,,,,,,,,,,,,,,,,,,,210.8193,212.9658,l,1,1.4671,,1.4671,1,212.9659,213.4657,,,,,,360,MAS,NOWORD,AGR,150,cacer,,el,,213.4658,213.4658,0.037962963,-0.391666667,0,0,0,,0,43,43,359,1,calor,,,,
,,,,,,605824a5c79c7e261e281cc5,676192165fb32c2e1fb7aee6,67d28140e496a7b3ff552168,2025-03-13_03h56.05.014,Tarea de decisión léxica,2024.2.5,Win32,59.88023952,,,,,,,,,,,,,,,,,,,,,,,,213.4684,214.8824,a,1,0.7341,,0.7341,1,214.8825,215.3824,,,,,,25,FEM,WORD,DIS,150,cama,,el,,215.3824,215.3826,0.037962963,-0.391666667,0,0,0,,0,44,44,24,1,paza,,,,
,,,,,,605824a5c79c7e261e281cc5,676192165fb32c2e1fb7aee6,67d28140e496a7b3ff552168,2025-03-13_03h56.05.014,Tarea de decisión léxica,2024.2.5,Win32,59.88023952,,,,,,,,,,,,,,,,,,,,,,,,215.3854,217.1822,l,1,1.1216,,1.1216,1,217.1823,217.6821,,,,,,58,MAS,NOWORD,DIS,150,heco,,la,,217.6849,217.6892,0.037962963,-0.391666667,0,0,0,,0,45,45,57,1,dedo,,,,
,,,,,,605824a5c79c7e261e281cc5,676192165fb32c2e1fb7aee6,67d28140e496a7b3ff552168,2025-03-13_03h56.05.014,Tarea de decisión léxica,2024.2.5,Win32,59.88023952,,,,,,,,,,,,,,,,,,,,,,,,217.6902,219.1323,a,1,0.7778,,0.7778,1,219.1324,219.6322,,,,,,19,MAS,WORD,DIS,150,niño,,la,,219.6322,219.6323,0.037962963,-0.391666667,0,0,0,,0,46,46,18,1,himo,,,,
,,,,,,605824a5c79c7e261e281cc5,676192165fb32c2e1fb7aee6,67d28140e496a7b3ff552168,2025-03-13_03h56.05.014,Tarea de decisión léxica,2024.2.5,Win32,59.88023952,,,,,,,,,,,,,,,,,,,,,,,,219.6349,220.8156,a,1,0.5034,,0.5034,1,220.8157,221.3155,,,,,,417,FEM,WORD,AGR,150,barba,,la,,221.3156,221.3157,0.037962963,-0.391666667,0,0,0,,0,47,47,416,1,banja,,,,
,,,,,,605824a5c79c7e261e281cc5,676192165fb32c2e1fb7aee6,67d28140e496a7b3ff552168,2025-03-13_03h56.05.014,Tarea de decisión léxica,2024.2.5,Win32,59.88023952,,,,,,,,,,,,,,,,,,,,,,,,221.32,222.6989,l,1,0.7065,,0.7065,1,222.699,223.1986,,,,,,344,FEM,NOWORD,AGR,150,trada,,la,,223.1987,223.1988,0.037962963,-0.391666667,0,0,0,,0,48,48,343,1,plata,,,,
,,,,,,605824a5c79c7e261e281cc5,676192165fb32c2e1fb7aee6,67d28140e496a7b3ff552168,2025-03-13_03h56.05.014,Tarea de decisión léxica,2024.2.5,Win32,59.88023952,,,,,,,,,,,,,,,,,,,,,,,,223.202,224.9654,l,1,1.0884,,1.0884,1,224.9655,225.4653,,,,,,394,FEM,NOWORD,DIS,150,ashea,,el,,225.4654,225.4656,0.037962963,-0.391666667,0,0,0,,0,49,49,393,1,aldea,,,,
,,,,,,605824a5c79c7e261e281cc5,676192165fb32c2e1fb7aee6,67d28140e496a7b3ff552168,2025-03-13_03h56.05.014,Tarea de decisión léxica,2024.2.5,Win32,59.88023952,,,,,,,,,,,,,,,,,,,,,,,,225.4679,226.7151,a,1,0.5675,,0.5675,1,226.7153,227.2149,,,,,,303,MAS,WORD,DIS,150,barco,,la,,227.2173,227.2211,0.037962963,-0.391666667,0,0,0,,0,50,50,302,1,lanco,,,,
,,,,,,605824a5c79c7e261e281cc5,676192165fb32c2e1fb7aee6,67d28140e496a7b3ff552168,2025-03-13_03h56.05.014,Tarea de decisión léxica,2024.2.5,Win32,59.88023952,,,,,,,,,,,,,,,,,,,,,,,,227.2224,228.4985,l,1,0.6051,,0.6051,1,228.4985,228.9985,,,,,,86,MAS,NOWORD,DIS,150,babo,,la,,228.9985,228.9986,0.037962963,-0.391666667,0,0,0,,0,51,51,85,1,lago,,,,
,,,,,,605824a5c79c7e261e281cc5,676192165fb32c2e1fb7aee6,67d28140e496a7b3ff552168,2025-03-13_03h56.05.014,Tarea de decisión léxica,2024.2.5,Win32,59.88023952,,,,,,,,,,,,,,,,,,,,,,,,229.0009,230.2148,a,1,0.5367,,0.5367,1,230.2149,230.715,,,,,,105,FEM,WORD,DIS,150,sopa,,el,,230.715,230.7152,0.037962963,-0.391666667,0,0,0,,0,52,52,104,1,vina,,,,
,,,,,,605824a5c79c7e261e281cc5,676192165fb32c2e1fb7aee6,67d28140e496a7b3ff552168,2025-03-13_03h56.05.014,Tarea de decisión léxica,2024.2.5,Win32,59.88023952,,,,,,,,,,,,,,,,,,,,,,,,230.7184,232.0817,a,1,0.6873,,0.6873,1,232.0818,232.5817,,,,,,435,MAS,WORD,DIS,150,ritmo,,la,,232.5818,232.5819,0.037962963,-0.391666667,0,0,0,,0,53,53,434,1,ricno,,,,
,,,,,,605824a5c79c7e261e281cc5,676192165fb32c2e1fb7aee6,67d28140e496a7b3ff552168,2025-03-13_03h56.05.014,Tarea de decisión léxica,2024.2.5,Win32,59.88023952,,,,,,,,,,,,,,,,,,,,,,,,232.5854,233.9312,l,1,0.6707,,0.6707,1,233.9312,234.4313,,,,,,474,FEM,NOWORD,DIS,150,felia,,el,,234.4313,234.4314,0.037962963,-0.391666667,0,0,0,,0,54,54,473,1,feria,,,,
,,,,,,605824a5c79c7e261e281cc5,676192165fb32c2e1fb7aee6,67d28140e496a7b3ff552168,2025-03-13_03h56.05.014,Tarea de decisión léxica,2024.2.5,Win32,59.88023952,,,,,,,,,,,,,,,,,,,,,,,,234.4359,235.5981,a,1,0.4853,,0.4853,1,235.5983,236.098,,,,,,383,FEM,WORD,DIS,150,frase,,el,,236.1002,236.102,0.037962963,-0.391666667,0,0,0,,0,55,55,382,1,brame,,,,
,,,,,,605824a5c79c7e261e281cc5,676192165fb32c2e1fb7aee6,67d28140e496a7b3ff552168,2025-03-13_03h56.05.014,Tarea de decisión léxica,2024.2.5,Win32,59.88023952,,,,,,,,,,,,,,,,,,,,,,,,236.1036,237.3812,l,1,0.6008,,0.6008,1,237.3814,237.8812,,,,,,330,MAS,NOWORD,DIS,150,nueno,,la,,237.8814,237.8815,0.037962963,-0.391666667,0,0,0,,0,56,56,329,1,hueso,,,,
,,,,,,605824a5c79c7e261e281cc5,676192165fb32c2e1fb7aee6,67d28140e496a7b3ff552168,2025-03-13_03h56.05.014,Tarea de decisión léxica,2024.2.5,Win32,59.88023952,,,,,,,,,,,,,,,,,,,,,,,,237.8857,239.1814,l,1,0.6205,,0.6205,1,239.1815,239.6811,,,,,,378,MAS,NOWORD,DIS,150,gaulo,,la,,239.6811,239.6814,0.037962963,-0.391666667,0,0,0,,0,57,57,377,1,hielo,,,,
,,,,,,605824a5c79c7e261e281cc5,676192165fb32c2e1fb7aee6,67d28140e496a7b3ff552168,2025-03-13_03h56.05.014,Tarea de decisión léxica,2024.2.5,Win32,59.88023952,,,,,,,,,,,,,,,,,,,,,,,,239.685,241.0143,a,1,0.6498,,0.6498,1,241.0145,241.5142,,,,,,83,FEM,WORD,AGR,150,bala,,la,,241.5142,241.5143,0.037962963,-0.391666667,0,0,0,,0,58,58,82,1,taga,,,,
,,,,,,605824a5c79c7e261e281cc5,676192165fb32c2e1fb7aee6,67d28140e496a7b3ff552168,2025-03-13_03h56.05.014,Tarea de decisión léxica,2024.2.5,Win32,59.88023952,,,,,,,,,,,,,,,,,,,,,,,,241.5183,242.8643,l,1,0.6701,,0.6701,1,242.8645,243.3643,,,,,,66,MAS,NOWORD,DIS,150,nios,,la,,243.3664,243.3685,0.037962963,-0.391666667,0,0,0,,0,59,59,65,1,dios,,,,
,,,,,,605824a5c79c7e261e281cc5,676192165fb32c2e1fb7aee6,67d28140e496a7b3ff552168,2025-03-13_03h56.05.014,Tarea de decisión léxica,2024.2.5,Win32,59.88023952,,,,,,,,,,,,,,,,,,,,,,,,243.3698,244.9975,a,0,0.9543,,0.9543,0,244.9996,245.4976,,,,,,470,MAS,NOWORD,DIS,150,matia,,la,,245.4977,245.4978,0.037962963,-0.391666667,0,0,0,,0,60,60,469,1,patio,,,,
,,,,,,605824a5c79c7e261e281cc5,676192165fb32c2e1fb7aee6,67d28140e496a7b3ff552168,2025-03-13_03h56.05.014,Tarea de decisión léxica,2024.2.5,Win32,59.88023952,,,,,,,,,,,,,,,,,,,,,,,,245.5005,246.8637,a,1,0.6948,,0.6948,1,246.8648,247.3637,,,,,,111,MAS,WORD,DIS,150,muro,,la,,247.3638,247.3638,0.037962963,-0.391666667,0,0,0,,0,61,61,110,1,siro,,,,
,,,,,,605824a5c79c7e261e281cc5,676192165fb32c2e1fb7aee6,67d28140e496a7b3ff552168,2025-03-13_03h56.05.014,Tarea de decisión léxica,2024.2.5,Win32,59.88023952,,,,,,,,,,,,,,,,,,,,,,,,247.3669,248.5474,a,1,0.5005,,0.5005,1,248.5475,249.0473,,,,,,271,FEM,WORD,AGR,150,señal,,la,,249.0475,249.0475,0.037962963,-0.391666667,0,0,0,,0,62,62,270,1,refal,,,,
,,,,,,605824a5c79c7e261e281cc5,676192165fb32c2e1fb7aee6,67d28140e496a7b3ff552168,2025-03-13_03h56.05.014,Tarea de decisión léxica,2024.2.5,Win32,59.88023952,,,,,,,,,,,,,,,,,,,,,,,,249.051,250.2306,a,1,0.5011,,0.5011,1,250.2307,250.7306,,,,,,441,FEM,WORD,AGR,150,selva,,la,,250.7307,250.7308,0.037962963,-0.391666667,0,0,0,,0,63,63,440,1,telza,,,,
,,,,,,605824a5c79c7e261e281cc5,676192165fb32c2e1fb7aee6,67d28140e496a7b3ff552168,2025-03-13_03h56.05.014,Tarea de decisión léxica,2024.2.5,Win32,59.88023952,,,,,,,,,,,,,,,,,,,,,,,,250.733,251.9469,l,1,0.5402,,0.5402,1,251.947,252.4471,,,,,,314,MAS,NOWORD,DIS,150,govio,,la,,252.4495,252.4533,0.037962963,-0.391666667,0,0,0,,0,64,64,313,1,novio,,,,
,,,,,,605824a5c79c7e261e281cc5,676192165fb32c2e1fb7aee6,67d28140e496a7b3ff552168,2025-03-13_03h56.05.014,Tarea de decisión léxica,2024.2.5,Win32,59.88023952,,,,,,,,,,,,,,,,,,,,,,,,252.4542,253.7802,l,1,0.6496,,0.6496,1,253.7803,254.2803,,,,,,114,FEM,NOWORD,DIS,150,tada,,el,,254.2803,254.2805,0.037962963,-0.391666667,0,0,0,,0,65,65,113,1,miel,,,,
,,,,,,605824a5c79c7e261e281cc5,676192165fb32c2e1fb7aee6,67d28140e496a7b3ff552168,2025-03-13_03h56.05.014,Tarea de decisión léxica,2024.2.5,Win32,59.88023952,,,,,,,,,,,,,,,,,,,,,,,,254.2854,255.9636,a,1,1.0006,,1.0006,1,255.9637,256.4634,,,,,,205,FEM,WORD,AGR,150,rana,,la,,256.4635,256.4635,0.037962963,-0.391666667,0,0,0,,0,66,66,204,1,bara,,,,
,,,,,,605824a5c79c7e261e281cc5,676192165fb32c2e1fb7aee6,67d28140e496a7b3ff552168,2025-03-13_03h56.05.014,Tarea de decisión léxica,2024.2.5,Win32,59.88023952,,,,,,,,,,,,,,,,,,,,,,,,256.4659,257.7632,a,1,0.6263,,0.6263,1,257.7633,258.2633,,,,,,243,MAS,WORD,DIS,150,amigo,,la,,258.2633,258.2634,0.037962963,-0.391666667,0,0,0,,0,67,67,242,1,asamo,,,,
,,,,,,605824a5c79c7e261e281cc5,676192165fb32c2e1fb7aee6,67d28140e496a7b3ff552168,2025-03-13_03h56.05.014,Tarea de decisión léxica,2024.2.5,Win32,59.88023952,,,,,,,,,,,,,,,,,,,,,,,,258.2657,259.5134,a,1,0.5728,,0.5728,1,259.5135,260.0132,,,,,,301,FEM,WORD,DIS,150,banda,,el,,260.0133,260.0135,0.037962963,-0.391666667,0,0,0,,0,68,68,300,1,ranga,,,,
,,,,,,605824a5c79c7e261e281cc5,676192165fb32c2e1fb7aee6,67d28140e496a7b3ff552168,2025-03-13_03h56.05.014,Tarea de decisión léxica,2024.2.5,Win32,59.88023952,,,,,,,,,,,,,,,,,,,,,,,,260.0163,261.363,l,1,0.6702,,0.6702,1,261.3632,261.863,,,,,,46,FEM,NOWORD,DIS,150,pema,,el,,261.8654,261.8681,0.037962963,-0.391666667,0,0,0,,0,69,69,45,1,mesa,,,,
,,,,,,605824a5c79c7e261e281cc5,676192165fb32c2e1fb7aee6,67d28140e496a7b3ff552168,2025-03-13_03h56.05.014,Tarea de decisión léxica,2024.2.5,Win32,59.88023952,,,,,,,,,,,,,,,,,,,,,,,,261.8687,263.2143,l,1,0.676,,0.676,1,263.2143,263.7132,,,,,,32,FEM,NOWORD,AGR,150,bova,,la,,263.7132,263.7133,0.037962963,-0.391666667,0,0,0,,0,70,70,31,1,ropa,,,,
,,,,,,605824a5c79c7e261e281cc5,676192165fb32c2e1fb7aee6,67d28140e496a7b3ff552168,2025-03-13_03h56.05.014,Tarea de decisión léxica,2024.2.5,Win32,59.88023952,,,,,,,,,,,,,,,,,,,,,,,,263.7172,265.0963,a,1,0.7044,,0.7044,1,265.0965,265.596,,,,,,227,MAS,WORD,AGR,150,faro,,el,,265.5961,265.5961,0.037962963,-0.391666667,0,0,0,,0,71,71,226,1,laro,,,,
,,,,,,605824a5c79c7e261e281cc5,676192165fb32c2e1fb7aee6,67d28140e496a7b3ff552168,2025-03-13_03h56.05.014,Tarea de decisión léxica,2024.2.5,Win32,59.88023952,,,,,,,,,,,,,,,,,,,,,,,,265.599,266.946,a,1,0.6701,,0.6701,1,266.9461,267.4464,,,,,,11,MAS,WORD,AGR,150,lado,,el,,267.4464,267.4465,0.037962963,-0.391666667,0,0,0,,0,72,72,10,1,bapo,,,,
,,,,,,605824a5c79c7e261e281cc5,676192165fb32c2e1fb7aee6,67d28140e496a7b3ff552168,2025-03-13_03h56.05.014,Tarea de decisión léxica,2024.2.5,Win32,59.88023952,,,,,,,,,,,,,,,,,,,,,,,,267.4506,268.6627,a,1,0.5376,,0.5376,1,268.6628,269.1626,,,,,,91,FEM,WORD,DIS,150,taza,,el,,269.1627,269.1628,0.037962963,-0.391666667,0,0,0,,0,73,73,90,1,sava,,,,
,,,,,,605824a5c79c7e261e281cc5,676192165fb32c2e1fb7aee6,67d28140e496a7b3ff552168,2025-03-13_03h56.05.014,Tarea de decisión léxica,2024.2.5,Win32,59.88023952,,,,,,,,,,,,,,,,,,,,,,,,269.1652,270.3792,a,0,0.5344,,0.5344,0,270.3809,270.8793,,,,,,422,MAS,NOWORD,DIS,150,griso,,la,,270.8816,270.8855,0.037962963,-0.391666667,0,0,0,,0,74,74,421,1,primo,,,,
,,,,,,605824a5c79c7e261e281cc5,676192165fb32c2e1fb7aee6,67d28140e496a7b3ff552168,2025-03-13_03h56.05.014,Tarea de decisión léxica,2024.2.5,Win32,59.88023952,,,,,,,,,,,,,,,,,,,,,,,,270.8864,272.196,l,1,0.6403,,0.6403,1,272.1983,272.6956,,,,,,278,MAS,NOWORD,DIS,150,vuemo,,la,,272.6957,272.6958,0.037962963,-0.391666667,0,0,0,,0,75,75,277,1,fuego,,,,
,,,,,,605824a5c79c7e261e281cc5,676192165fb32c2e1fb7aee6,67d28140e496a7b3ff552168,2025-03-13_03h56.05.014,Tarea de decisión léxica,2024.2.5,Win32,59.88023952,,,,,,,,,,,,,,,,,,,,,,,,272.6983,273.9958,l,1,0.6211,,0.6211,1,273.996,274.4956,,,,,,298,MAS,NOWORD,DIS,150,brubo,,la,,274.4957,274.4958,0.037962963,-0.391666667,0,0,0,,0,76,76,297,1,grupo,,,,
,,,,,,605824a5c79c7e261e281cc5,676192165fb32c2e1fb7aee6,67d28140e496a7b3ff552168,2025-03-13_03h56.05.014,Tarea de decisión léxica,2024.2.5,Win32,59.88023952,,,,,,,,,,,,,,,,,,,,,,,,274.4987,275.6954,a,1,0.5246,,0.5246,1,275.6955,276.1955,,,,,,65,MAS,WORD,DIS,150,dios,,la,,276.1955,276.1956,0.037962963,-0.391666667,0,0,0,,0,77,77,64,1,nios,,,,
,,,,,,605824a5c79c7e261e281cc5,676192165fb32c2e1fb7aee6,67d28140e496a7b3ff552168,2025-03-13_03h56.05.014,Tarea de decisión léxica,2024.2.5,Win32,59.88023952,,,,,,,,,,,,,,,,,,,,,,,,276.1984,277.5789,l,0,0.7005,,0.7005,0,277.5804,278.0788,,,,,,151,MAS,WORD,AGR,150,tomo,,el,,278.0789,278.079,0.037962963,-0.391666667,0,0,0,,0,78,78,150,1,sogo,,,,
,,,,,,605824a5c79c7e261e281cc5,676192165fb32c2e1fb7aee6,67d28140e496a7b3ff552168,2025-03-13_03h56.05.014,Tarea de decisión léxica,2024.2.5,Win32,59.88023952,,,,,,,,,,,,,,,,,,,,,,,,278.0818,279.6121,l,1,0.8557,,0.8557,1,279.6146,280.1122,,,,,,270,MAS,NOWORD,DIS,150,mello,,la,,280.1149,280.1175,0.037962963,-0.391666667,0,0,0,,0,79,79,269,1,perro,,,,
,,,,,,605824a5c79c7e261e281cc5,676192165fb32c2e1fb7aee6,67d28140e496a7b3ff552168,2025-03-13_03h56.05.014,Tarea de decisión léxica,2024.2.5,Win32,59.88023952,,,,,,,,,,,,,,,,,,,,,,,,280.119,281.5284,l,1,0.7387,,0.7387,1,281.5286,282.0289,,,,,,110,MAS,NOWORD,DIS,150,suno,,la,,282.0289,282.029,0.037962963,-0.391666667,0,0,0,,0,80,80,109,1,rayo,,,,
,,,,,,605824a5c79c7e261e281cc5,676192165fb32c2e1fb7aee6,67d28140e496a7b3ff552168,2025-03-13_03h56.05.014,Tarea de decisión léxica,2024.2.5,Win32,59.88023952,,,,,,,,,,,,,,,,,,,,,,,,282.0319,283.312,l,1,0.6029,,0.6029,1,283.3121,283.8119,,,,,,426,FEM,NOWORD,DIS,150,virca,,el,,283.8119,283.8121,0.037962963,-0.391666667,0,0,0,,0,81,81,425,1,viuda,,,,
,,,,,,605824a5c79c7e261e281cc5,676192165fb32c2e1fb7aee6,67d28140e496a7b3ff552168,2025-03-13_03h56.05.014,Tarea de decisión léxica,2024.2.5,Win32,59.88023952,,,,,,,,,,,,,,,,,,,,,,,,283.8152,285.1451,l,0,0.6497,,0.6497,0,285.1471,285.6452,,,,,,43,FEM,WORD,DIS,150,pena,,el,,285.6452,285.6453,0.037962963,-0.391666667,0,0,0,,0,82,82,42,1,meda,,,,
,,,,,,605824a5c79c7e261e281cc5,676192165fb32c2e1fb7aee6,67d28140e496a7b3ff552168,2025-03-13_03h56.05.014,Tarea de decisión léxica,2024.2.5,Win32,59.88023952,,,,,,,,,,,,,,,,,,,,,,,,285.6481,286.8614,l,1,0.54,,0.54,1,286.8641,287.3614,,,,,,396,FEM,NOWORD,AGR,150,paeda,,la,,287.3647,287.3677,0.037962963,-0.391666667,0,0,0,,0,83,83,395,1,caída,,,,
,,,,,,605824a5c79c7e261e281cc5,676192165fb32c2e1fb7aee6,67d28140e496a7b3ff552168,2025-03-13_03h56.05.014,Tarea de decisión léxica,2024.2.5,Win32,59.88023952,,,,,,,,,,,,,,,,,,,,,,,,287.3683,288.8112,l,1,0.7698,,0.7698,1,288.8113,289.3117,,,,,,478,MAS,NOWORD,DIS,150,hocon,,la,,289.3118,289.3119,0.037962963,-0.391666667,0,0,0,,0,84,84,477,1,botón,,,,
,,,,,,605824a5c79c7e261e281cc5,676192165fb32c2e1fb7aee6,67d28140e496a7b3ff552168,2025-03-13_03h56.05.014,Tarea de decisión léxica,2024.2.5,Win32,59.88023952,,,,,,,,,,,,,,,,,,,,,,,,289.3149,290.7117,l,1,0.7183,,0.7183,1,290.7117,291.2115,,,,,,442,FEM,NOWORD,DIS,150,telza,,el,,291.2116,291.2117,0.037962963,-0.391666667,0,0,0,,0,85,85,441,1,selva,,,,
,,,,,,605824a5c79c7e261e281cc5,676192165fb32c2e1fb7aee6,67d28140e496a7b3ff552168,2025-03-13_03h56.05.014,Tarea de decisión léxica,2024.2.5,Win32,59.88023952,,,,,,,,,,,,,,,,,,,,,,,,291.2168,292.3615,a,1,0.4665,,0.4665,1,292.3616,292.8613,,,,,,331,MAS,WORD,AGR,150,éxito,,el,,292.8614,292.8615,0.037962963,-0.391666667,0,0,0,,0,86,86,330,1,erato,,,,
,,,,,,605824a5c79c7e261e281cc5,676192165fb32c2e1fb7aee6,67d28140e496a7b3ff552168,2025-03-13_03h56.05.014,Tarea de decisión léxica,2024.2.5,Win32,59.88023952,,,,,,,,,,,,,,,,,,,,,,,,292.8641,294.1945,a,1,0.652,,0.652,1,294.1947,294.6944,,,,,,375,FEM,WORD,AGR,150,salsa,,la,,294.6945,294.6946,0.037962963,-0.391666667,0,0,0,,0,87,87,374,1,sasna,,,,
,,,,,,605824a5c79c7e261e281cc5,676192165fb32c2e1fb7aee6,67d28140e496a7b3ff552168,2025-03-13_03h56.05.014,Tarea de decisión léxica,2024.2.5,Win32,59.88023952,,,,,,,,,,,,,,,,,,,,,,,,294.6968,296.1776,l,1,0.8006,,0.8006,1,296.1777,296.6778,,,,,,392,MAS,NOWORD,AGR,150,dievo,,el,,296.6797,296.6835,0.037962963,-0.391666667,0,0,0,,0,88,88,391,1,dueño,,,,
,,,,,,605824a5c79c7e261e281cc5,676192165fb32c2e1fb7aee6,67d28140e496a7b3ff552168,2025-03-13_03h56.05.014,Tarea de decisión léxica,2024.2.5,Win32,59.88023952,,,,,,,,,,,,,,,,,,,,,,,,296.6844,297.9441,l,1,0.5922,,0.5922,1,297.9442,298.4441,,,,,,74,MAS,NOWORD,DIS,150,omio,,la,,298.4442,298.4443,0.037962963,-0.391666667,0,0,0,,0,89,89,73,1,odio,,,,
,,,,,,605824a5c79c7e261e281cc5,676192165fb32c2e1fb7aee6,67d28140e496a7b3ff552168,2025-03-13_03h56.05.014,Tarea de decisión léxica,2024.2.5,Win32,59.88023952,,,,,,,,,,,,,,,,,,,,,,,,298.447,299.9106,a,0,0.793,,0.793,0,299.9137,300.4106,,,,,,144,MAS,NOWORD,AGR,150,pezo,,el,,300.4106,300.4107,0.037962963,-0.391666667,0,0,0,,0,90,90,143,1,pavo,,,,
,,,,,,605824a5c79c7e261e281cc5,676192165fb32c2e1fb7aee6,67d28140e496a7b3ff552168,2025-03-13_03h56.05.014,Tarea de decisión léxica,2024.2.5,Win32,59.88023952,,,,,,,,,,,,,,,,,,,,,,,,300.4155,301.8608,l,1,0.7704,,0.7704,1,301.8625,302.3608,,,,,,276,MAS,NOWORD,AGR,150,musto,,el,,302.3608,302.361,0.037962963,-0.391666667,0,0,0,,0,91,91,275,1,punto,,,,
,,,,,,605824a5c79c7e261e281cc5,676192165fb32c2e1fb7aee6,67d28140e496a7b3ff552168,2025-03-13_03h56.05.014,Tarea de decisión léxica,2024.2.5,Win32,59.88023952,,,,,,,,,,,,,,,,,,,,,,,,302.3639,303.6438,a,1,0.6003,,0.6003,1,303.6438,304.1441,,,,,,233,FEM,WORD,AGR,150,lana,,la,,304.1442,304.1442,0.037962963,-0.391666667,0,0,0,,0,92,92,232,1,fasa,,,,
,,,,,,605824a5c79c7e261e281cc5,676192165fb32c2e1fb7aee6,67d28140e496a7b3ff552168,2025-03-13_03h56.05.014,Tarea de decisión léxica,2024.2.5,Win32,59.88023952,,,,,,,,,,,,,,,,,,,,,,,,304.1471,305.4271,l,1,0.6001,,0.6001,1,305.4271,305.9271,,,,,,44,FEM,NOWORD,AGR,150,meda,,la,,305.9296,305.9326,0.037962963,-0.391666667,0,0,0,,0,93,93,43,1,pena,,,,
,,,,,,605824a5c79c7e261e281cc5,676192165fb32c2e1fb7aee6,67d28140e496a7b3ff552168,2025-03-13_03h56.05.014,Tarea de decisión léxica,2024.2.5,Win32,59.88023952,,,,,,,,,,,,,,,,,,,,,,,,305.9331,307.4937,l,1,0.8905,,0.8905,1,307.4937,307.9935,,,,,,460,MAS,NOWORD,AGR,150,fraco,,el,,307.9935,307.9936,0.037962963,-0.391666667,0,0,0,,0,94,94,459,1,grado,,,,
,,,,,,605824a5c79c7e261e281cc5,676192165fb32c2e1fb7aee6,67d28140e496a7b3ff552168,2025-03-13_03h56.05.014,Tarea de decisión léxica,2024.2.5,Win32,59.88023952,,,,,,,,,,,,,,,,,,,,,,,,307.9961,309.1936,a,1,0.519,,0.519,1,309.1938,309.6936,,,,,,341,MAS,WORD,DIS,150,valor,,la,,309.6936,309.6938,0.037962963,-0.391666667,0,0,0,,0,95,95,340,1,daror,,,,
,,,,,,605824a5c79c7e261e281cc5,676192165fb32c2e1fb7aee6,67d28140e496a7b3ff552168,2025-03-13_03h56.05.014,Tarea de decisión léxica,2024.2.5,Win32,59.88023952,,,,,,,,,,,,,,,,,,,,,,,,309.696,311.0769,a,1,0.7008,,0.7008,1,311.0769,311.5768,,,,,,157,MAS,WORD,AGR,150,nido,,el,,311.5768,311.577,0.037962963,-0.391666667,0,0,0,,0,96,96,156,1,hico,,,,
,,,,,,605824a5c79c7e261e281cc5,676192165fb32c2e1fb7aee6,67d28140e496a7b3ff552168,2025-03-13_03h56.05.014,Tarea de decisión léxica,2024.2.5,Win32,59.88023952,,,,,,,,,,,,,,,,,,,,,,,,311.5796,312.7599,l,1,0.5017,,0.5017,1,312.76,313.2602,,,,,,210,MAS,NOWORD,DIS,150,dero,,la,,313.2603,313.2604,0.037962963,-0.391666667,0,0,0,,0,97,97,209,1,velo,,,,
,,,,,,605824a5c79c7e261e281cc5,676192165fb32c2e1fb7aee6,67d28140e496a7b3ff552168,2025-03-13_03h56.05.014,Tarea de decisión léxica,2024.2.5,Win32,59.88023952,,,,,,,,,,,,,,,,,,,,,,,,313.2634,314.5768,l,1,0.6344,,0.6344,1,314.5769,315.0767,,,,,,412,MAS,NOWORD,AGR,150,mobro,,el,,315.0792,315.0827,0.037962963,-0.391666667,0,0,0,,0,98,98,411,1,pollo,,,,
,,,,,,605824a5c79c7e261e281cc5,676192165fb32c2e1fb7aee6,67d28140e496a7b3ff552168,2025-03-13_03h56.05.014,Tarea de decisión léxica,2024.2.5,Win32,59.88023952,,,,,,,,,,,,,,,,,,,,,,,,315.0838,316.6763,a,1,0.9261,,0.9261,1,316.6764,317.1765,,,,,,141,FEM,WORD,DIS,150,cruz,,el,,317.1765,317.1766,0.037962963,-0.391666667,0,0,0,,0,99,99,140,1,sina,,,,
,,,,,,605824a5c79c7e261e281cc5,676192165fb32c2e1fb7aee6,67d28140e496a7b3ff552168,2025-03-13_03h56.05.014,Tarea de decisión léxica,2024.2.5,Win32,59.88023952,,,,,,,,,,,,,,,,,,,,,,,,317.1805,318.5098,l,1,0.6497,,0.6497,1,318.5099,319.0096,,,,,,318,FEM,NOWORD,DIS,150,plaad,,el,,319.0097,319.0097,0.037962963,-0.391666667,0,0,0,,0,100,100,317,1,playa,,,,
,,,,,,605824a5c79c7e261e281cc5,676192165fb32c2e1fb7aee6,67d28140e496a7b3ff552168,2025-03-13_03h56.05.014,Tarea de decisión léxica,2024.2.5,Win32,59.88023952,,,,,,,,,,,,,,,,,,,,,,,,319.0172,320.243,l,1,0.5503,,0.5503,1,320.2431,320.7427,,,,,,72,FEM,NOWORD,AGR,150,urla,,la,,320.7427,320.7428,0.037962963,-0.391666667,0,0,0,,0,101,101,71,1,isla,,,,
,,,,,,605824a5c79c7e261e281cc5,676192165fb32c2e1fb7aee6,67d28140e496a7b3ff552168,2025-03-13_03h56.05.014,Tarea de decisión léxica,2024.2.5,Win32,59.88023952,,,,,,,,,,,,,,,,,,,,,,,,320.7472,322.3095,a,0,0.8947,,0.8947,0,322.3116,322.8093,,,,,,206,FEM,NOWORD,DIS,150,bara,,el,,322.8094,322.8095,0.037962963,-0.391666667,0,0,0,,0,102,102,205,1,rana,,,,
,,,,,,605824a5c79c7e261e281cc5,676192165fb32c2e1fb7aee6,67d28140e496a7b3ff552168,2025-03-13_03h56.05.014,Tarea de decisión léxica,2024.2.5,Win32,59.88023952,,,,,,,,,,,,,,,,,,,,,,,,322.8126,324.6762,l,1,1.1834,,1.1834,1,324.6778,325.1759,,,,,,348,FEM,NOWORD,AGR,150,mueza,,la,,325.1781,325.1817,0.037962963,-0.391666667,0,0,0,,0,103,103,347,1,pieza,,,,
,,,,,,605824a5c79c7e261e281cc5,676192165fb32c2e1fb7aee6,67d28140e496a7b3ff552168,2025-03-13_03h56.05.014,Tarea de decisión léxica,2024.2.5,Win32,59.88023952,,,,,,,,,,,,,,,,,,,,,,,,325.1828,326.6758,a,1,0.8246,,0.8246,1,326.6761,327.1759,,,,,,37,MAS,WORD,AGR,150,rato,,el,,327.1759,327.176,0.037962963,-0.391666667,0,0,0,,0,104,104,36,1,gaco,,,,
,,,,,,605824a5c79c7e261e281cc5,676192165fb32c2e1fb7aee6,67d28140e496a7b3ff552168,2025-03-13_03h56.05.014,Tarea de decisión léxica,2024.2.5,Win32,59.88023952,,,,,,,,,,,,,,,,,,,,,,,,327.179,328.7422,l,0,0.8877,,0.8877,0,328.7432,329.2421,,,,,,237,MAS,WORD,AGR,150,nudo,,el,,329.2422,329.2422,0.037962963,-0.391666667,0,0,0,,0,105,105,236,1,huco,,,,
,,,,,,605824a5c79c7e261e281cc5,676192165fb32c2e1fb7aee6,67d28140e496a7b3ff552168,2025-03-13_03h56.05.014,Tarea de decisión léxica,2024.2.5,Win32,59.88023952,,,,,,,,,,,,,,,,,,,,,,,,329.2444,330.9923,l,1,1.0688,,1.0688,1,330.9945,331.4923,,,,,,418,FEM,NOWORD,DIS,150,banja,,el,,331.4924,331.4925,0.037962963,-0.391666667,0,0,0,,0,106,106,417,1,barba,,,,
,,,,,,605824a5c79c7e261e281cc5,676192165fb32c2e1fb7aee6,67d28140e496a7b3ff552168,2025-03-13_03h56.05.014,Tarea de decisión léxica,2024.2.5,Win32,59.88023952,,,,,,,,,,,,,,,,,,,,,,,,331.4952,332.7419,a,1,0.578,,0.578,1,332.742,333.242,,,,,,311,MAS,WORD,AGR,150,honor,,el,,333.2447,333.2477,0.037962963,-0.391666667,0,0,0,,0,107,107,310,1,nosor,,,,
,,,,,,605824a5c79c7e261e281cc5,676192165fb32c2e1fb7aee6,67d28140e496a7b3ff552168,2025-03-13_03h56.05.014,Tarea de decisión léxica,2024.2.5,Win32,59.88023952,,,,,,,,,,,,,,,,,,,,,,,,333.2493,334.6755,l,1,0.7553,,0.7553,1,334.6756,335.1757,,,,,,430,FEM,NOWORD,DIS,150,tenta,,el,,335.1757,335.1758,0.037962963,-0.391666667,0,0,0,,0,108,108,429,1,tarta,,,,
,,,,,,605824a5c79c7e261e281cc5,676192165fb32c2e1fb7aee6,67d28140e496a7b3ff552168,2025-03-13_03h56.05.014,Tarea de decisión léxica,2024.2.5,Win32,59.88023952,,,,,,,,,,,,,,,,,,,,,,,,335.1789,336.4419,a,1,0.5936,,0.5936,1,336.442,336.9422,,,,,,431,MAS,WORD,DIS,150,motor,,la,,336.9422,336.9423,0.037962963,-0.391666667,0,0,0,,0,109,109,430,1,tetor,,,,
,,,,,,605824a5c79c7e261e281cc5,676192165fb32c2e1fb7aee6,67d28140e496a7b3ff552168,2025-03-13_03h56.05.014,Tarea de decisión léxica,2024.2.5,Win32,59.88023952,,,,,,,,,,,,,,,,,,,,,,,,336.9451,338.6083,a,1,0.9871,,0.9871,1,338.6084,339.1086,,,,,,79,FEM,WORD,AGR,150,piel,,la,,339.1087,339.1088,0.037962963,-0.391666667,0,0,0,,0,110,110,78,1,ciel,,,,
,,,,,,605824a5c79c7e261e281cc5,676192165fb32c2e1fb7aee6,67d28140e496a7b3ff552168,2025-03-13_03h56.05.014,Tarea de decisión léxica,2024.2.5,Win32,59.88023952,,,,,,,,,,,,,,,,,,,,,,,,339.1125,340.5083,l,1,0.7234,,0.7234,1,340.5083,341.0085,,,,,,40,MAS,NOWORD,AGR,150,redo,,el,,341.0086,341.0086,0.037962963,-0.391666667,0,0,0,,0,111,111,39,1,voto,,,,
,,,,,,605824a5c79c7e261e281cc5,676192165fb32c2e1fb7aee6,67d28140e496a7b3ff552168,2025-03-13_03h56.05.014,Tarea de decisión léxica,2024.2.5,Win32,59.88023952,,,,,,,,,,,,,,,,,,,,,,,,341.0114,342.2748,l,1,0.5931,,0.5931,1,342.2748,342.775,,,,,,320,MAS,NOWORD,AGR,150,tuero,,el,,342.7776,342.7799,0.037962963,-0.391666667,0,0,0,,0,112,112,319,1,suelo,,,,
,,,,,,605824a5c79c7e261e281cc5,676192165fb32c2e1fb7aee6,67d28140e496a7b3ff552168,2025-03-13_03h56.05.014,Tarea de decisión léxica,2024.2.5,Win32,59.88023952,,,,,,,,,,,,,,,,,,,,,,,,342.7816,344.0417,a,1,0.5867,,0.5867,1,344.0418,344.5416,,,,,,465,FEM,WORD,AGR,150,aguja,,la,,344.5417,344.5418,0.037962963,-0.391666667,0,0,0,,0,113,113,464,1,asuba,,,,
,,,,,,605824a5c79c7e261e281cc5,676192165fb32c2e1fb7aee6,67d28140e496a7b3ff552168,2025-03-13_03h56.05.014,Tarea de decisión léxica,2024.2.5,Win32,59.88023952,,,,,,,,,,,,,,,,,,,,,,,,344.5445,345.7747,l,1,0.5524,,0.5524,1,345.7748,346.2747,,,,,,410,MAS,NOWORD,DIS,150,pafro,,la,,346.2747,346.2748,0.037962963,-0.391666667,0,0,0,,0,114,114,409,1,carro,,,,
,,,,,,605824a5c79c7e261e281cc5,676192165fb32c2e1fb7aee6,67d28140e496a7b3ff552168,2025-03-13_03h56.05.014,Tarea de decisión léxica,2024.2.5,Win32,59.88023952,,,,,,,,,,,,,,,,,,,,,,,,346.2775,347.5247,l,1,0.5672,,0.5672,1,347.5247,348.0244,,,,,,268,MAS,NOWORD,AGR,150,figro,,el,,348.0245,348.0246,0.037962963,-0.391666667,0,0,0,,0,115,115,267,1,libro,,,,
,,,,,,605824a5c79c7e261e281cc5,676192165fb32c2e1fb7aee6,67d28140e496a7b3ff552168,2025-03-13_03h56.05.014,Tarea de decisión léxica,2024.2.5,Win32,59.88023952,,,,,,,,,,,,,,,,,,,,,,,,348.0269,349.5412,a,1,0.8428,,0.8428,1,349.5413,350.0411,,,,,,319,MAS,WORD,AGR,150,suelo,,el,,350.0411,350.0413,0.037962963,-0.391666667,0,0,0,,0,116,116,318,1,tuero,,,,
,,,,,,605824a5c79c7e261e281cc5,676192165fb32c2e1fb7aee6,67d28140e496a7b3ff552168,2025-03-13_03h56.05.014,Tarea de decisión léxica,2024.2.5,Win32,59.88023952,,,,,,,,,,,,,,,,,,,,,,,,350.0438,351.4243,l,1,0.7035,,0.7035,1,351.4243,351.9242,,,,,,14,FEM,NOWORD,DIS,150,nola,,el,,351.926,351.9283,0.037962963,-0.391666667,0,0,0,,0,117,117,13,1,hora,,,,
,,,,,,605824a5c79c7e261e281cc5,676192165fb32c2e1fb7aee6,67d28140e496a7b3ff552168,2025-03-13_03h56.05.014,Tarea de decisión léxica,2024.2.5,Win32,59.88023952,,,,,,,,,,,,,,,,,,,,,,,,351.9295,353.2742,a,1,0.6677,,0.6677,1,353.2743,353.7741,,,,,,397,FEM,WORD,AGR,150,tribu,,la,,353.7742,353.7743,0.037962963,-0.391666667,0,0,0,,0,118,118,396,1,trigi,,,,
,,,,,,605824a5c79c7e261e281cc5,676192165fb32c2e1fb7aee6,67d28140e496a7b3ff552168,2025-03-13_03h56.05.014,Tarea de decisión léxica,2024.2.5,Win32,59.88023952,,,,,,,,,,,,,,,,,,,,,,,,353.778,354.9741,l,1,0.521,,0.521,1,354.9741,355.4741,,,,,,436,MAS,NOWORD,AGR,150,ricno,,el,,355.4741,355.4741,0.037962963,-0.391666667,0,0,0,,0,119,119,435,1,ritmo,,,,
,,,,,,605824a5c79c7e261e281cc5,676192165fb32c2e1fb7aee6,67d28140e496a7b3ff552168,2025-03-13_03h56.05.014,Tarea de decisión léxica,2024.2.5,Win32,59.88023952,,,,,,,,,,,,,,,,,,,,,,,,355.4768,356.941,a,1,0.7857,,0.7857,1,356.941,357.4408,,,,,,183,FEM,WORD,AGR,150,raya,,la,,357.4408,357.441,0.037962963,-0.391666667,0,0,0,,0,120,120,182,1,raad,,,,
,,,,,,605824a5c79c7e261e281cc5,676192165fb32c2e1fb7aee6,67d28140e496a7b3ff552168,2025-03-13_03h56.05.014,Tarea de decisión léxica,2024.2.5,Win32,59.88023952,,,,,,,,,,,,,,,,,,,,,,,,357.4454,358.8076,a,1,0.6914,,0.6914,1,358.8077,359.3075,,,,,,401,MAS,WORD,DIS,150,polvo,,la,,359.3075,359.3077,0.037962963,-0.391666667,0,0,0,,0,121,121,400,1,pirvo,,,,
,,,,,,605824a5c79c7e261e281cc5,676192165fb32c2e1fb7aee6,67d28140e496a7b3ff552168,2025-03-13_03h56.05.014,Tarea de decisión léxica,2024.2.5,Win32,59.88023952,,,,,,,,,,,,,,,,,,,,,,,,359.3105,360.5738,a,1,0.5864,,0.5864,1,360.5739,361.0738,,,,,,75,MAS,WORD,DIS,150,olor,,la,,361.0772,361.0798,0.037962963,-0.391666667,0,0,0,,0,122,122,74,1,ocer,,,,
,,,,,,605824a5c79c7e261e281cc5,676192165fb32c2e1fb7aee6,67d28140e496a7b3ff552168,2025-03-13_03h56.05.014,Tarea de decisión léxica,2024.2.5,Win32,59.88023952,,,,,,,,,,,,,,,,,,,,,,,,361.0804,362.1737,a,1,0.4167,,0.4167,1,362.1738,362.6735,,,,,,251,MAS,WORD,AGR,150,señor,,el,,362.6736,362.6736,0.037962963,-0.391666667,0,0,0,,0,123,123,250,1,refor,,,,
,,,,,,605824a5c79c7e261e281cc5,676192165fb32c2e1fb7aee6,67d28140e496a7b3ff552168,2025-03-13_03h56.05.014,Tarea de decisión léxica,2024.2.5,Win32,59.88023952,,,,,,,,,,,,,,,,,,,,,,,,362.6766,363.8236,a,1,0.475,,0.475,1,363.8236,364.3237,,,,,,333,FEM,WORD,DIS,150,tarea,,el,,364.3237,364.3239,0.037962963,-0.391666667,0,0,0,,0,124,124,332,1,dalea,,,,
,,,,,,605824a5c79c7e261e281cc5,676192165fb32c2e1fb7aee6,67d28140e496a7b3ff552168,2025-03-13_03h56.05.014,Tarea de decisión léxica,2024.2.5,Win32,59.88023952,,,,,,,,,,,,,,,,,,,,,,,,364.3263,365.4568,a,1,0.4544,,0.4544,1,365.4569,365.9566,,,,,,363,FEM,WORD,AGR,150,deuda,,la,,365.9567,365.9568,0.037962963,-0.391666667,0,0,0,,0,125,125,362,1,veida,,,,
,,,,,,605824a5c79c7e261e281cc5,676192165fb32c2e1fb7aee6,67d28140e496a7b3ff552168,2025-03-13_03h56.05.014,Tarea de decisión léxica,2024.2.5,Win32,59.88023952,,,,,,,,,,,,,,,,,,,,,,,,365.959,367.54,l,1,0.9107,,0.9107,1,367.54,368.0399,,,,,,202,FEM,NOWORD,DIS,150,cusa,,el,,368.04,368.04,0.037962963,-0.391666667,0,0,0,,0,126,126,201,1,cuna,,,,
,,,,,,605824a5c79c7e261e281cc5,676192165fb32c2e1fb7aee6,67d28140e496a7b3ff552168,2025-03-13_03h56.05.014,Tarea de decisión léxica,2024.2.5,Win32,59.88023952,,,,,,,,,,,,,,,,,,,,,,,,368.0428,369.1399,a,1,0.4248,,0.4248,1,369.1399,369.6399,,,,,,27,MAS,WORD,DIS,150,baño,,la,,369.6426,369.6458,0.037962963,-0.391666667,0,0,0,,0,127,127,26,1,ravo,,,,
,,,,,,605824a5c79c7e261e281cc5,676192165fb32c2e1fb7aee6,67d28140e496a7b3ff552168,2025-03-13_03h56.05.014,Tarea de decisión léxica,2024.2.5,Win32,59.88023952,,,,,,,,,,,,,,,,,,,,,,,,369.6464,371.023,a,1,0.7057,,0.7057,1,371.023,371.5233,,,,,,345,FEM,WORD,AGR,150,arena,,la,,371.5233,371.5235,0.037962963,-0.391666667,0,0,0,,0,128,128,344,1,anera,,,,
,,,,,,605824a5c79c7e261e281cc5,676192165fb32c2e1fb7aee6,67d28140e496a7b3ff552168,2025-03-13_03h56.05.014,Tarea de decisión léxica,2024.2.5,Win32,59.88023952,,,,,,,,,,,,,,,,,,,,,,,,371.5257,372.7896,l,1,0.5876,,0.5876,1,372.7897,373.2899,,,,,,182,FEM,NOWORD,DIS,150,teda,,el,,373.2899,373.29,0.037962963,-0.391666667,0,0,0,,0,129,129,181,1,seda,,,,
,,,,,,605824a5c79c7e261e281cc5,676192165fb32c2e1fb7aee6,67d28140e496a7b3ff552168,2025-03-13_03h56.05.014,Tarea de decisión léxica,2024.2.5,Win32,59.88023952,,,,,,,,,,,,,,,,,,,,,,,,373.2923,374.573,l,1,0.6073,,0.6073,1,374.5732,375.0729,,,,,,228,MAS,NOWORD,AGR,150,laro,,el,,375.0729,375.0731,0.037962963,-0.391666667,0,0,0,,0,130,130,227,1,faro,,,,
,,,,,,605824a5c79c7e261e281cc5,676192165fb32c2e1fb7aee6,67d28140e496a7b3ff552168,2025-03-13_03h56.05.014,Tarea de decisión léxica,2024.2.5,Win32,59.88023952,,,,,,,,,,,,,,,,,,,,,,,,375.0764,376.2897,a,1,0.5344,,0.5344,1,376.2899,376.7897,,,,,,433,MAS,WORD,AGR,150,disco,,el,,376.7917,376.7942,0.037962963,-0.391666667,0,0,0,,0,131,131,432,1,durco,,,,
,,,,,,605824a5c79c7e261e281cc5,676192165fb32c2e1fb7aee6,67d28140e496a7b3ff552168,2025-03-13_03h56.05.014,Tarea de decisión léxica,2024.2.5,Win32,59.88023952,,,,,,,,,,,,,,,,,,,,,,,,376.7954,377.9063,a,1,0.4407,,0.4407,1,377.9064,378.4062,,,,,,45,FEM,WORD,AGR,150,mesa,,la,,378.4063,378.4064,0.037962963,-0.391666667,0,0,0,,0,132,132,44,1,pema,,,,
,,,,,,605824a5c79c7e261e281cc5,676192165fb32c2e1fb7aee6,67d28140e496a7b3ff552168,2025-03-13_03h56.05.014,Tarea de decisión léxica,2024.2.5,Win32,59.88023952,,,,,,,,,,,,,,,,,,,,,,,,378.4112,379.7726,l,1,0.6858,,0.6858,1,379.7727,380.2727,,,,,,208,MAS,NOWORD,AGR,150,kedo,,el,,380.2727,380.2728,0.037962963,-0.391666667,0,0,0,,0,133,133,207,1,kilo,,,,
,,,,,,605824a5c79c7e261e281cc5,676192165fb32c2e1fb7aee6,67d28140e496a7b3ff552168,2025-03-13_03h56.05.014,Tarea de decisión léxica,2024.2.5,Win32,59.88023952,,,,,,,,,,,,,,,,,,,,,,,,380.2761,381.4395,a,1,0.4885,,0.4885,1,381.4397,381.9394,,,,,,421,MAS,WORD,DIS,150,primo,,la,,381.9395,381.9395,0.037962963,-0.391666667,0,0,0,,0,134,134,420,1,griso,,,,
,,,,,,605824a5c79c7e261e281cc5,676192165fb32c2e1fb7aee6,67d28140e496a7b3ff552168,2025-03-13_03h56.05.014,Tarea de decisión léxica,2024.2.5,Win32,59.88023952,,,,,,,,,,,,,,,,,,,,,,,,381.942,383.5725,l,1,0.9547,,0.9547,1,383.5726,384.0724,,,,,,462,FEM,NOWORD,DIS,150,pagra,,el,,384.0725,384.0726,0.037962963,-0.391666667,0,0,0,,0,135,135,461,1,tabla,,,,
,,,,,,605824a5c79c7e261e281cc5,676192165fb32c2e1fb7aee6,67d28140e496a7b3ff552168,2025-03-13_03h56.05.014,Tarea de decisión léxica,2024.2.5,Win32,59.88023952,,,,,,,,,,,,,,,,,,,,,,,,384.0769,385.4221,l,1,0.67,,0.67,1,385.4222,385.9224,,,,,,284,MAS,NOWORD,AGR,150,tuevo,,el,,385.9248,385.9272,0.037962963,-0.391666667,0,0,0,,0,136,136,283,1,sueño,,,,
,,,,,,605824a5c79c7e261e281cc5,676192165fb32c2e1fb7aee6,67d28140e496a7b3ff552168,2025-03-13_03h56.05.014,Tarea de decisión léxica,2024.2.5,Win32,59.88023952,,,,,,,,,,,,,,,,,,,,,,,,385.928,387.2387,a,1,0.6437,,0.6437,1,387.2388,387.7391,,,,,,175,FEM,WORD,AGR,150,goma,,la,,387.7391,387.7391,0.037962963,-0.391666667,0,0,0,,0,137,137,174,1,hosa,,,,
,,,,,,605824a5c79c7e261e281cc5,676192165fb32c2e1fb7aee6,67d28140e496a7b3ff552168,2025-03-13_03h56.05.014,Tarea de decisión léxica,2024.2.5,Win32,59.88023952,,,,,,,,,,,,,,,,,,,,,,,,387.7422,390.3888,,0,,,0.6437,-1,390.392,390.8888,,,,,,372,FEM,NOWORD,AGR,150,mosta,,la,,390.8889,390.889,0.037962963,-0.391666667,0,0,0,,0,138,138,371,1,pasta,,,,
,,,,,,605824a5c79c7e261e281cc5,676192165fb32c2e1fb7aee6,67d28140e496a7b3ff552168,2025-03-13_03h56.05.014,Tarea de decisión léxica,2024.2.5,Win32,59.88023952,,,,,,,,,,,,,,,,,,,,,,,,390.8913,392.1887,l,1,0.6211,,0.6211,1,392.1907,392.6887,,,,,,428,FEM,NOWORD,AGR,150,oseva,,la,,392.6888,392.6889,0.037962963,-0.391666667,0,0,0,,0,139,139,427,1,oreja,,,,
,,,,,,605824a5c79c7e261e281cc5,676192165fb32c2e1fb7aee6,67d28140e496a7b3ff552168,2025-03-13_03h56.05.014,Tarea de decisión léxica,2024.2.5,Win32,59.88023952,,,,,,,,,,,,,,,,,,,,,,,,392.6911,393.9051,l,1,0.5334,,0.5334,1,393.9052,394.4051,,,,,,232,FEM,NOWORD,AGR,150,heta,,la,,394.4052,394.4052,0.037962963,-0.391666667,0,0,0,,0,140,140,231,1,bota,,,,
,,,,,,605824a5c79c7e261e281cc5,676192165fb32c2e1fb7aee6,67d28140e496a7b3ff552168,2025-03-13_03h56.05.014,Tarea de decisión léxica,2024.2.5,Win32,59.88023952,,,,,,,,,,,,,,,,,,,,,,,,394.4082,395.5551,a,1,0.468,,0.468,1,395.5551,396.0548,,,,,,283,MAS,WORD,AGR,150,sueño,,el,,396.0565,396.0591,0.037962963,-0.391666667,0,0,0,,0,141,141,282,1,tuevo,,,,
,,,,,,605824a5c79c7e261e281cc5,676192165fb32c2e1fb7aee6,67d28140e496a7b3ff552168,2025-03-13_03h56.05.014,Tarea de decisión léxica,2024.2.5,Win32,59.88023952,,,,,,,,,,,,,,,,,,,,,,,,396.0606,397.2549,l,1,0.5177,,0.5177,1,397.255,397.7549,,,,,,214,FEM,NOWORD,DIS,150,bana,,el,,397.7549,397.755,0.037962963,-0.391666667,0,0,0,,0,142,142,213,1,rama,,,,
,,,,,,605824a5c79c7e261e281cc5,676192165fb32c2e1fb7aee6,67d28140e496a7b3ff552168,2025-03-13_03h56.05.014,Tarea de decisión léxica,2024.2.5,Win32,59.88023952,,,,,,,,,,,,,,,,,,,,,,,,397.7572,398.8214,l,1,0.3871,,0.3871,1,398.8215,399.3214,,,,,,52,FEM,NOWORD,AGR,150,mava,,la,,399.3214,399.3215,0.037962963,-0.391666667,0,0,0,,0,143,143,51,1,caja,,,,
,,,,,,605824a5c79c7e261e281cc5,676192165fb32c2e1fb7aee6,67d28140e496a7b3ff552168,2025-03-13_03h56.05.014,Tarea de decisión léxica,2024.2.5,Win32,59.88023952,,,,,,,,,,,,,,,,,,,,,,,,399.3242,400.6047,a,1,0.6039,,0.6039,1,400.6048,401.1046,,,,,,461,FEM,WORD,AGR,150,tabla,,la,,401.1047,401.1048,0.037962963,-0.391666667,0,0,0,,0,144,144,460,1,pagra,,,,
,,,,,,605824a5c79c7e261e281cc5,676192165fb32c2e1fb7aee6,67d28140e496a7b3ff552168,2025-03-13_03h56.05.014,Tarea de decisión léxica,2024.2.5,Win32,59.88023952,,,,,,,,,,,,,,,,,,,,,,,,401.1073,402.3382,a,1,0.5499,,0.5499,1,402.3383,402.838,,,,,,81,FEM,WORD,DIS,150,dama,,el,,402.8381,402.8381,0.037962963,-0.391666667,0,0,0,,0,145,145,80,1,vasa,,,,
,,,,,,605824a5c79c7e261e281cc5,676192165fb32c2e1fb7aee6,67d28140e496a7b3ff552168,2025-03-13_03h56.05.014,Tarea de decisión léxica,2024.2.5,Win32,59.88023952,,,,,,,,,,,,,,,,,,,,,,,,402.8406,404.1378,l,1,0.6199,,0.6199,1,404.138,404.6381,,,,,,356,FEM,NOWORD,AGR,150,bepla,,la,,404.6408,404.6444,0.037962963,-0.391666667,0,0,0,,0,146,146,355,1,regla,,,,
,,,,,,605824a5c79c7e261e281cc5,676192165fb32c2e1fb7aee6,67d28140e496a7b3ff552168,2025-03-13_03h56.05.014,Tarea de decisión léxica,2024.2.5,Win32,59.88023952,,,,,,,,,,,,,,,,,,,,,,,,404.6453,405.9875,a,1,0.6703,,0.6703,1,405.9876,406.4882,,,,,,69,FEM,WORD,AGR,150,zona,,la,,406.4882,406.4883,0.037962963,-0.391666667,0,0,0,,0,147,147,68,1,ñola,,,,
,,,,,,605824a5c79c7e261e281cc5,676192165fb32c2e1fb7aee6,67d28140e496a7b3ff552168,2025-03-13_03h56.05.014,Tarea de decisión léxica,2024.2.5,Win32,59.88023952,,,,,,,,,,,,,,,,,,,,,,,,406.4908,407.7208,a,1,0.5608,,0.5608,1,407.7209,408.2209,,,,,,169,MAS,WORD,DIS,150,cubo,,la,,408.2211,408.2211,0.037962963,-0.391666667,0,0,0,,0,148,148,168,1,mibo,,,,
,,,,,,605824a5c79c7e261e281cc5,676192165fb32c2e1fb7aee6,67d28140e496a7b3ff552168,2025-03-13_03h56.05.014,Tarea de decisión léxica,2024.2.5,Win32,59.88023952,,,,,,,,,,,,,,,,,,,,,,,,408.2238,409.4378,l,1,0.5341,,0.5341,1,409.4379,409.9378,,,,,,326,FEM,NOWORD,DIS,150,mabia,,el,,409.9378,409.9379,0.037962963,-0.391666667,0,0,0,,0,149,149,325,1,magia,,,,
,,,,,,605824a5c79c7e261e281cc5,676192165fb32c2e1fb7aee6,67d28140e496a7b3ff552168,2025-03-13_03h56.05.014,Tarea de decisión léxica,2024.2.5,Win32,59.88023952,,,,,,,,,,,,,,,,,,,,,,,,409.9404,411.2375,l,1,0.6168,,0.6168,1,411.2376,411.7375,,,,,,108,MAS,NOWORD,AGR,150,raot,,el,,411.7376,411.7377,0.037962963,-0.391666667,0,0,0,,0,150,150,107,1,saco,,,,
,,,,,,605824a5c79c7e261e281cc5,676192165fb32c2e1fb7aee6,67d28140e496a7b3ff552168,2025-03-13_03h56.05.014,Tarea de decisión léxica,2024.2.5,Win32,59.88023952,,,,,,,,,,,,,,,,,,,,,,,,411.74,412.9539,l,1,0.542,,0.542,1,412.9539,413.454,,,,,,256,MAS,NOWORD,AGR,150,mauco,,el,,413.4556,413.458,0.037962963,-0.391666667,0,0,0,,0,151,151,255,1,miedo,,,,
,,,,,,605824a5c79c7e261e281cc5,676192165fb32c2e1fb7aee6,67d28140e496a7b3ff552168,2025-03-13_03h56.05.014,Tarea de decisión léxica,2024.2.5,Win32,59.88023952,,,,,,,,,,,,,,,,,,,,,,,,413.4594,414.6205,a,1,0.4916,,0.4916,1,414.6206,415.1208,,,,,,107,MAS,WORD,DIS,150,saco,,la,,415.121,415.1212,0.037962963,-0.391666667,0,0,0,,0,152,152,106,1,raot,,,,
,,,,,,605824a5c79c7e261e281cc5,676192165fb32c2e1fb7aee6,67d28140e496a7b3ff552168,2025-03-13_03h56.05.014,Tarea de decisión léxica,2024.2.5,Win32,59.88023952,,,,,,,,,,,,,,,,,,,,,,,,415.1236,417.1876,a,1,1.3844,,1.3844,1,417.1878,417.6875,,,,,,369,MAS,WORD,AGR,150,ruido,,el,,417.6878,417.688,0.037962963,-0.391666667,0,0,0,,0,153,153,368,1,rioco,,,,
,,,,,,605824a5c79c7e261e281cc5,676192165fb32c2e1fb7aee6,67d28140e496a7b3ff552168,2025-03-13_03h56.05.014,Tarea de decisión léxica,2024.2.5,Win32,59.88023952,,,,,,,,,,,,,,,,,,,,,,,,417.69,419.3379,a,0,0.9682,,0.9682,0,419.3399,419.8375,,,,,,36,MAS,NOWORD,AGR,150,meno,,el,,419.8377,419.8379,0.037962963,-0.391666667,0,0,0,,0,154,154,35,1,pelo,,,,
,,,,,,605824a5c79c7e261e281cc5,676192165fb32c2e1fb7aee6,67d28140e496a7b3ff552168,2025-03-13_03h56.05.014,Tarea de decisión léxica,2024.2.5,Win32,59.88023952,,,,,,,,,,,,,,,,,,,,,,,,419.8416,421.0874,l,1,0.5678,,0.5678,1,421.0894,421.5875,,,,,,60,FEM,NOWORD,AGR,150,tafa,,la,,421.5894,421.591,0.037962963,-0.391666667,0,0,0,,0,155,155,59,1,sala,,,,
,,,,,,605824a5c79c7e261e281cc5,676192165fb32c2e1fb7aee6,67d28140e496a7b3ff552168,2025-03-13_03h56.05.014,Tarea de decisión léxica,2024.2.5,Win32,59.88023952,,,,,,,,,,,,,,,,,,,,,,,,421.5917,422.8873,a,1,0.6186,,0.6186,1,422.8875,423.3872,,,,,,127,MAS,WORD,AGR,150,pico,,el,,423.3873,423.3877,0.037962963,-0.391666667,0,0,0,,0,156,156,126,1,itio,,,,
,,,,,,605824a5c79c7e261e281cc5,676192165fb32c2e1fb7aee6,67d28140e496a7b3ff552168,2025-03-13_03h56.05.014,Tarea de decisión léxica,2024.2.5,Win32,59.88023952,,,,,,,,,,,,,,,,,,,,,,,,423.3896,424.7709,a,1,0.7056,,0.7056,1,424.7713,425.27,,,,,,85,MAS,WORD,DIS,150,lago,,la,,425.2702,425.2705,0.037962963,-0.391666667,0,0,0,,0,157,157,84,1,babo,,,,
,,,,,,605824a5c79c7e261e281cc5,676192165fb32c2e1fb7aee6,67d28140e496a7b3ff552168,2025-03-13_03h56.05.014,Tarea de decisión léxica,2024.2.5,Win32,59.88023952,,,,,,,,,,,,,,,,,,,,,,,,425.2732,426.4374,l,0,0.4898,,0.4898,0,426.4393,426.937,,,,,,479,MAS,WORD,DIS,150,rumbo,,la,,426.9372,426.9374,0.037962963,-0.391666667,0,0,0,,0,158,158,478,1,rimpo,,,,
,,,,,,605824a5c79c7e261e281cc5,676192165fb32c2e1fb7aee6,67d28140e496a7b3ff552168,2025-03-13_03h56.05.014,Tarea de decisión léxica,2024.2.5,Win32,59.88023952,,,,,,,,,,,,,,,,,,,,,,,,426.9409,428.2036,a,1,0.5831,,0.5831,1,428.2059,428.7037,,,,,,93,FEM,WORD,AGR,150,bola,,la,,428.704,428.7044,0.037962963,-0.391666667,0,0,0,,0,159,159,92,1,rona,,,,
,,,,,,605824a5c79c7e261e281cc5,676192165fb32c2e1fb7aee6,67d28140e496a7b3ff552168,2025-03-13_03h56.05.014,Tarea de decisión léxica,2024.2.5,Win32,59.88023952,,,,,,,,,,,,,,,,,,,,,,,,428.7072,429.887,a,1,0.5049,,0.5049,1,429.8873,430.387,,,,,,253,MAS,WORD,DIS,150,chico,,la,,430.3891,487.8,0.037962963,-0.391666667,0,0,0,space,0,160,160,252,1,trido,57.3801,,,
,,,,,,605824a5c79c7e261e281cc5,676192165fb32c2e1fb7aee6,67d28140e496a7b3ff552168,2025-03-13_03h56.05.014,Tarea de decisión léxica,2024.2.5,Win32,59.88023952,,,,,,,,,,,,,,,,,,,,,,,,487.8032,489.5163,l,1,1.0388,,1.0388,1,489.5167,490.0166,,,,,,176,FEM,NOWORD,AGR,150,hosa,,la,,490.0168,490.017,0.037962963,-0.391666667,0,0,0,,0,161,161,175,1,goma,,,,
,,,,,,605824a5c79c7e261e281cc5,676192165fb32c2e1fb7aee6,67d28140e496a7b3ff552168,2025-03-13_03h56.05.014,Tarea de decisión léxica,2024.2.5,Win32,59.88023952,,,,,,,,,,,,,,,,,,,,,,,,490.0189,491.3165,a,1,0.619,,0.619,1,491.3168,491.8166,,,,,,161,MAS,WORD,AGR,150,coro,,el,,491.8168,491.8171,0.037962963,-0.391666667,0,0,0,,0,162,162,160,1,bopo,,,,
,,,,,,605824a5c79c7e261e281cc5,676192165fb32c2e1fb7aee6,67d28140e496a7b3ff552168,2025-03-13_03h56.05.014,Tarea de decisión léxica,2024.2.5,Win32,59.88023952,,,,,,,,,,,,,,,,,,,,,,,,491.8189,493.3002,l,1,0.8005,,0.8005,1,493.3005,493.7993,,,,,,106,FEM,NOWORD,DIS,150,vina,,el,,493.7997,493.8,0.037962963,-0.391666667,0,0,0,,0,163,163,105,1,sopa,,,,
,,,,,,605824a5c79c7e261e281cc5,676192165fb32c2e1fb7aee6,67d28140e496a7b3ff552168,2025-03-13_03h56.05.014,Tarea de decisión léxica,2024.2.5,Win32,59.88023952,,,,,,,,,,,,,,,,,,,,,,,,493.8046,495.0823,l,1,0.6062,,0.6062,1,495.0826,495.5826,,,,,,258,FEM,NOWORD,DIS,150,asama,,el,,495.5828,495.5831,0.037962963,-0.391666667,0,0,0,,0,164,164,257,1,amiga,,,,
,,,,,,605824a5c79c7e261e281cc5,676192165fb32c2e1fb7aee6,67d28140e496a7b3ff552168,2025-03-13_03h56.05.014,Tarea de decisión léxica,2024.2.5,Win32,59.88023952,,,,,,,,,,,,,,,,,,,,,,,,495.5853,496.8159,l,0,0.5536,,0.5536,0,496.8182,497.3164,,,,,,137,MAS,WORD,DIS,150,nene,,la,,497.3184,497.3204,0.037962963,-0.391666667,0,0,0,,0,165,165,136,1,pamo,,,,
,,,,,,605824a5c79c7e261e281cc5,676192165fb32c2e1fb7aee6,67d28140e496a7b3ff552168,2025-03-13_03h56.05.014,Tarea de decisión léxica,2024.2.5,Win32,59.88023952,,,,,,,,,,,,,,,,,,,,,,,,497.321,498.4829,l,1,0.4852,,0.4852,1,498.4849,498.9823,,,,,,78,MAS,NOWORD,DIS,150,fodo,,la,,498.9825,498.9829,0.037962963,-0.391666667,0,0,0,,0,166,166,77,1,loco,,,,
,,,,,,605824a5c79c7e261e281cc5,676192165fb32c2e1fb7aee6,67d28140e496a7b3ff552168,2025-03-13_03h56.05.014,Tarea de decisión léxica,2024.2.5,Win32,59.88023952,,,,,,,,,,,,,,,,,,,,,,,,498.9851,500.0991,l,1,0.4406,,0.4406,1,500.0996,500.5993,,,,,,142,FEM,NOWORD,DIS,150,sina,,el,,500.5994,500.5997,0.037962963,-0.391666667,0,0,0,,0,167,167,141,1,cruz,,,,
,,,,,,605824a5c79c7e261e281cc5,676192165fb32c2e1fb7aee6,67d28140e496a7b3ff552168,2025-03-13_03h56.05.014,Tarea de decisión léxica,2024.2.5,Win32,59.88023952,,,,,,,,,,,,,,,,,,,,,,,,500.6035,501.85,a,1,0.5677,,0.5677,1,501.8502,502.3489,,,,,,49,FEM,WORD,DIS,150,edad,,el,,502.3491,502.3493,0.037962963,-0.391666667,0,0,0,,0,168,168,48,1,ecat,,,,
,,,,,,605824a5c79c7e261e281cc5,676192165fb32c2e1fb7aee6,67d28140e496a7b3ff552168,2025-03-13_03h56.05.014,Tarea de decisión léxica,2024.2.5,Win32,59.88023952,,,,,,,,,,,,,,,,,,,,,,,,502.3521,503.4987,a,1,0.4669,,0.4669,1,503.499,503.9994,,,,,,17,FEM,WORD,DIS,150,mamá,,el,,503.9995,503.9998,0.037962963,-0.391666667,0,0,0,,0,169,169,16,1,paba,,,,
,,,,,,605824a5c79c7e261e281cc5,676192165fb32c2e1fb7aee6,67d28140e496a7b3ff552168,2025-03-13_03h56.05.014,Tarea de decisión léxica,2024.2.5,Win32,59.88023952,,,,,,,,,,,,,,,,,,,,,,,,504.0016,505.2158,a,1,0.5346,,0.5346,1,505.2161,505.7156,,,,,,409,MAS,WORD,AGR,150,carro,,el,,505.7177,505.7193,0.037962963,-0.391666667,0,0,0,,0,170,170,408,1,pafro,,,,
,,,,,,605824a5c79c7e261e281cc5,676192165fb32c2e1fb7aee6,67d28140e496a7b3ff552168,2025-03-13_03h56.05.014,Tarea de decisión léxica,2024.2.5,Win32,59.88023952,,,,,,,,,,,,,,,,,,,,,,,,505.7199,506.999,l,1,0.6007,,0.6007,1,506.9992,507.4991,,,,,,416,FEM,NOWORD,AGR,150,juira,,la,,507.4993,507.4996,0.037962963,-0.391666667,0,0,0,,0,171,171,415,1,jaula,,,,
,,,,,,605824a5c79c7e261e281cc5,676192165fb32c2e1fb7aee6,67d28140e496a7b3ff552168,2025-03-13_03h56.05.014,Tarea de decisión léxica,2024.2.5,Win32,59.88023952,,,,,,,,,,,,,,,,,,,,,,,,507.5023,509.0992,a,1,0.9166,,0.9166,1,509.0995,509.5991,,,,,,67,FEM,WORD,DIS,150,nena,,el,,509.5992,509.5997,0.037962963,-0.391666667,0,0,0,,0,172,172,66,1,gesa,,,,
,,,,,,605824a5c79c7e261e281cc5,676192165fb32c2e1fb7aee6,67d28140e496a7b3ff552168,2025-03-13_03h56.05.014,Tarea de decisión léxica,2024.2.5,Win32,59.88023952,,,,,,,,,,,,,,,,,,,,,,,,509.6028,510.8321,a,1,0.5481,,0.5481,1,510.8324,511.3321,,,,,,57,MAS,WORD,AGR,150,dedo,,el,,511.3321,511.3324,0.037962963,-0.391666667,0,0,0,,0,173,173,56,1,heco,,,,
,,,,,,605824a5c79c7e261e281cc5,676192165fb32c2e1fb7aee6,67d28140e496a7b3ff552168,2025-03-13_03h56.05.014,Tarea de decisión léxica,2024.2.5,Win32,59.88023952,,,,,,,,,,,,,,,,,,,,,,,,511.3347,512.7487,l,1,0.7347,,0.7347,1,512.7489,513.2486,,,,,,310,FEM,NOWORD,DIS,150,tirra,,el,,513.2488,513.2491,0.037962963,-0.391666667,0,0,0,,0,174,174,309,1,silla,,,,
,,,,,,605824a5c79c7e261e281cc5,676192165fb32c2e1fb7aee6,67d28140e496a7b3ff552168,2025-03-13_03h56.05.014,Tarea de decisión léxica,2024.2.5,Win32,59.88023952,,,,,,,,,,,,,,,,,,,,,,,,513.2512,514.3989,a,1,0.4674,,0.4674,1,514.3992,514.8979,,,,,,135,MAS,WORD,AGR,150,tubo,,el,,514.9011,514.9042,0.037962963,-0.391666667,0,0,0,,0,175,175,134,1,geso,,,,
,,,,,,605824a5c79c7e261e281cc5,676192165fb32c2e1fb7aee6,67d28140e496a7b3ff552168,2025-03-13_03h56.05.014,Tarea de decisión léxica,2024.2.5,Win32,59.88023952,,,,,,,,,,,,,,,,,,,,,,,,514.9051,516.3151,l,1,0.7362,,0.7362,1,516.3154,516.8147,,,,,,324,FEM,NOWORD,AGR,150,certa,,la,,516.8149,516.8153,0.037962963,-0.391666667,0,0,0,,0,176,176,323,1,cinta,,,,
,,,,,,605824a5c79c7e261e281cc5,676192165fb32c2e1fb7aee6,67d28140e496a7b3ff552168,2025-03-13_03h56.05.014,Tarea de decisión léxica,2024.2.5,Win32,59.88023952,,,,,,,,,,,,,,,,,,,,,,,,516.8171,518.0485,a,1,0.5522,,0.5522,1,518.0488,518.5483,,,,,,451,FEM,WORD,AGR,150,fruta,,la,,518.5485,518.5488,0.037962963,-0.391666667,0,0,0,,0,177,177,450,1,clita,,,,
,,,,,,605824a5c79c7e261e281cc5,676192165fb32c2e1fb7aee6,67d28140e496a7b3ff552168,2025-03-13_03h56.05.014,Tarea de decisión léxica,2024.2.5,Win32,59.88023952,,,,,,,,,,,,,,,,,,,,,,,,518.5507,519.815,l,1,0.5858,,0.5858,1,519.8153,520.3147,,,,,,128,MAS,NOWORD,AGR,150,itio,,el,,520.3149,520.3152,0.037962963,-0.391666667,0,0,0,,0,178,178,127,1,pico,,,,
,,,,,,605824a5c79c7e261e281cc5,676192165fb32c2e1fb7aee6,67d28140e496a7b3ff552168,2025-03-13_03h56.05.014,Tarea de decisión léxica,2024.2.5,Win32,59.88023952,,,,,,,,,,,,,,,,,,,,,,,,520.317,521.8983,l,1,0.9014,,0.9014,1,521.8987,522.3983,,,,,,468,MAS,NOWORD,AGR,150,peiso,,el,,522.401,522.403,0.037962963,-0.391666667,0,0,0,,0,179,179,467,1,piano,,,,
,,,,,,605824a5c79c7e261e281cc5,676192165fb32c2e1fb7aee6,67d28140e496a7b3ff552168,2025-03-13_03h56.05.014,Tarea de decisión léxica,2024.2.5,Win32,59.88023952,,,,,,,,,,,,,,,,,,,,,,,,522.4038,523.7147,a,1,0.6348,,0.6348,1,523.7149,524.2141,,,,,,359,MAS,WORD,AGR,150,calor,,el,,524.2142,524.2146,0.037962963,-0.391666667,0,0,0,,0,180,180,358,1,cacer,,,,
,,,,,,605824a5c79c7e261e281cc5,676192165fb32c2e1fb7aee6,67d28140e496a7b3ff552168,2025-03-13_03h56.05.014,Tarea de decisión léxica,2024.2.5,Win32,59.88023952,,,,,,,,,,,,,,,,,,,,,,,,524.2172,525.5003,a,1,0.6017,,0.6017,1,525.5005,525.998,,,,,,291,FEM,WORD,DIS,150,pista,,el,,525.9981,525.9984,0.037962963,-0.391666667,0,0,0,,0,181,181,290,1,mesta,,,,
,,,,,,605824a5c79c7e261e281cc5,676192165fb32c2e1fb7aee6,67d28140e496a7b3ff552168,2025-03-13_03h56.05.014,Tarea de decisión léxica,2024.2.5,Win32,59.88023952,,,,,,,,,,,,,,,,,,,,,,,,526.0003,527.2482,a,1,0.5527,,0.5527,1,527.2485,527.7474,,,,,,89,MAS,WORD,DIS,150,humo,,la,,527.7476,527.7479,0.037962963,-0.391666667,0,0,0,,0,182,182,88,1,guso,,,,
,,,,,,605824a5c79c7e261e281cc5,676192165fb32c2e1fb7aee6,67d28140e496a7b3ff552168,2025-03-13_03h56.05.014,Tarea de decisión léxica,2024.2.5,Win32,59.88023952,,,,,,,,,,,,,,,,,,,,,,,,527.7501,529.0641,l,1,0.6401,,0.6401,1,529.0643,529.5641,,,,,,170,MAS,NOWORD,DIS,150,mibo,,la,,529.5643,529.5646,0.037962963,-0.391666667,0,0,0,,0,183,183,169,1,cubo,,,,
,,,,,,605824a5c79c7e261e281cc5,676192165fb32c2e1fb7aee6,67d28140e496a7b3ff552168,2025-03-13_03h56.05.014,Tarea de decisión léxica,2024.2.5,Win32,59.88023952,,,,,,,,,,,,,,,,,,,,,,,,529.5687,531.0304,l,1,0.7865,,0.7865,1,531.0307,531.5303,,,,,,168,FEM,NOWORD,AGR,150,zifa,,la,,531.5331,531.5362,0.037962963,-0.391666667,0,0,0,,0,184,184,167,1,jefa,,,,
,,,,,,605824a5c79c7e261e281cc5,676192165fb32c2e1fb7aee6,67d28140e496a7b3ff552168,2025-03-13_03h56.05.014,Tarea de decisión léxica,2024.2.5,Win32,59.88023952,,,,,,,,,,,,,,,,,,,,,,,,531.5376,532.7975,a,1,0.5877,,0.5877,1,532.7978,533.2975,,,,,,225,MAS,WORD,DIS,150,lodo,,la,,533.2977,533.298,0.037962963,-0.391666667,0,0,0,,0,185,185,224,1,boco,,,,
,,,,,,605824a5c79c7e261e281cc5,676192165fb32c2e1fb7aee6,67d28140e496a7b3ff552168,2025-03-13_03h56.05.014,Tarea de decisión léxica,2024.2.5,Win32,59.88023952,,,,,,,,,,,,,,,,,,,,,,,,533.3009,534.6477,a,1,0.6677,,0.6677,1,534.6479,535.1375,,,,,,255,MAS,WORD,AGR,150,miedo,,el,,535.1375,535.1376,0.037962963,-0.391666667,0,0,0,,0,186,186,254,1,mauco,,,,
,,,,,,605824a5c79c7e261e281cc5,676192165fb32c2e1fb7aee6,67d28140e496a7b3ff552168,2025-03-13_03h56.05.014,Tarea de decisión léxica,2024.2.5,Win32,59.88023952,,,,,,,,,,,,,,,,,,,,,,,,535.1387,537.0139,a,1,1.2043,,1.2043,1,537.0142,537.5134,,,,,,475,FEM,WORD,DIS,150,manta,,el,,537.5137,537.5141,0.037962963,-0.391666667,0,0,0,,0,187,187,474,1,mucta,,,,
,,,,,,605824a5c79c7e261e281cc5,676192165fb32c2e1fb7aee6,67d28140e496a7b3ff552168,2025-03-13_03h56.05.014,Tarea de decisión léxica,2024.2.5,Win32,59.88023952,,,,,,,,,,,,,,,,,,,,,,,,537.5162,539.0309,a,1,0.8335,,0.8335,1,539.0312,539.5301,,,,,,203,FEM,WORD,DIS,150,leña,,el,,539.5304,539.5307,0.037962963,-0.391666667,0,0,0,,0,188,188,202,1,beja,,,,
,,,,,,605824a5c79c7e261e281cc5,676192165fb32c2e1fb7aee6,67d28140e496a7b3ff552168,2025-03-13_03h56.05.014,Tarea de decisión léxica,2024.2.5,Win32,59.88023952,,,,,,,,,,,,,,,,,,,,,,,,539.534,540.8469,a,1,0.6406,,0.6406,1,540.8471,541.3472,,,,,,165,FEM,WORD,DIS,150,vela,,el,,541.3491,541.3507,0.037962963,-0.391666667,0,0,0,,0,189,189,164,1,dera,,,,
,,,,,,605824a5c79c7e261e281cc5,676192165fb32c2e1fb7aee6,67d28140e496a7b3ff552168,2025-03-13_03h56.05.014,Tarea de decisión léxica,2024.2.5,Win32,59.88023952,,,,,,,,,,,,,,,,,,,,,,,,541.3513,543.1966,l,1,1.1675,,1.1675,1,543.1968,543.6967,,,,,,340,MAS,NOWORD,AGR,150,plajo,,el,,543.6968,543.6971,0.037962963,-0.391666667,0,0,0,,0,190,190,339,1,brazo,,,,
,,,,,,605824a5c79c7e261e281cc5,676192165fb32c2e1fb7aee6,67d28140e496a7b3ff552168,2025-03-13_03h56.05.014,Tarea de decisión léxica,2024.2.5,Win32,59.88023952,,,,,,,,,,,,,,,,,,,,,,,,543.6994,545.3634,l,1,0.9829,,0.9829,1,545.3636,545.8635,,,,,,50,FEM,NOWORD,DIS,150,ecat,,el,,545.8636,545.864,0.037962963,-0.391666667,0,0,0,,0,191,191,49,1,edad,,,,
,,,,,,605824a5c79c7e261e281cc5,676192165fb32c2e1fb7aee6,67d28140e496a7b3ff552168,2025-03-13_03h56.05.014,Tarea de decisión léxica,2024.2.5,Win32,59.88023952,,,,,,,,,,,,,,,,,,,,,,,,545.8667,547.4959,l,1,0.9507,,0.9507,1,547.4962,547.9967,,,,,,94,FEM,NOWORD,DIS,150,rona,,el,,547.997,547.9974,0.037962963,-0.391666667,0,0,0,,0,192,192,93,1,bola,,,,
,,,,,,605824a5c79c7e261e281cc5,676192165fb32c2e1fb7aee6,67d28140e496a7b3ff552168,2025-03-13_03h56.05.014,Tarea de decisión léxica,2024.2.5,Win32,59.88023952,,,,,,,,,,,,,,,,,,,,,,,,548.0012,549.7464,a,1,1.0678,,1.0678,1,549.7466,550.2466,,,,,,133,FEM,WORD,AGR,150,vaca,,la,,550.2467,550.2471,0.037962963,-0.391666667,0,0,0,,0,193,193,132,1,vesa,,,,
,,,,,,605824a5c79c7e261e281cc5,676192165fb32c2e1fb7aee6,67d28140e496a7b3ff552168,2025-03-13_03h56.05.014,Tarea de decisión léxica,2024.2.5,Win32,59.88023952,,,,,,,,,,,,,,,,,,,,,,,,550.2488,551.8463,l,1,0.92,,0.92,1,551.8466,552.3462,,,,,,192,FEM,NOWORD,AGR,150,bila,,la,,552.3483,552.35,0.037962963,-0.391666667,0,0,0,,0,194,194,191,1,pila,,,,
,,,,,,605824a5c79c7e261e281cc5,676192165fb32c2e1fb7aee6,67d28140e496a7b3ff552168,2025-03-13_03h56.05.014,Tarea de decisión léxica,2024.2.5,Win32,59.88023952,,,,,,,,,,,,,,,,,,,,,,,,552.3507,553.5628,a,0,0.541,,0.541,0,553.5651,554.0626,,,,,,82,FEM,NOWORD,DIS,150,vasa,,el,,554.0628,554.0631,0.037962963,-0.391666667,0,0,0,,0,195,195,81,1,dama,,,,
,,,,,,605824a5c79c7e261e281cc5,676192165fb32c2e1fb7aee6,67d28140e496a7b3ff552168,2025-03-13_03h56.05.014,Tarea de decisión léxica,2024.2.5,Win32,59.88023952,,,,,,,,,,,,,,,,,,,,,,,,554.0656,555.6294,l,1,0.8828,,0.8828,1,555.6317,556.1298,,,,,,76,MAS,NOWORD,AGR,150,ocer,,el,,556.1301,556.1304,0.037962963,-0.391666667,0,0,0,,0,196,196,75,1,olor,,,,
,,,,,,605824a5c79c7e261e281cc5,676192165fb32c2e1fb7aee6,67d28140e496a7b3ff552168,2025-03-13_03h56.05.014,Tarea de decisión léxica,2024.2.5,Win32,59.88023952,,,,,,,,,,,,,,,,,,,,,,,,556.1332,557.4626,l,1,0.6561,,0.6561,1,557.4629,557.9625,,,,,,194,FEM,NOWORD,DIS,150,foda,,el,,557.9625,557.9629,0.037962963,-0.391666667,0,0,0,,0,197,197,193,1,loca,,,,
,,,,,,605824a5c79c7e261e281cc5,676192165fb32c2e1fb7aee6,67d28140e496a7b3ff552168,2025-03-13_03h56.05.014,Tarea de decisión léxica,2024.2.5,Win32,59.88023952,,,,,,,,,,,,,,,,,,,,,,,,557.9664,559.3628,l,1,0.7159,,0.7159,1,559.3632,559.8625,,,,,,56,MAS,NOWORD,AGR,150,jado,,el,,559.8626,559.8629,0.037962963,-0.391666667,0,0,0,,0,198,198,55,1,gato,,,,
,,,,,,605824a5c79c7e261e281cc5,676192165fb32c2e1fb7aee6,67d28140e496a7b3ff552168,2025-03-13_03h56.05.014,Tarea de decisión léxica,2024.2.5,Win32,59.88023952,,,,,,,,,,,,,,,,,,,,,,,,559.8666,561.1294,l,1,0.5831,,0.5831,1,561.1296,561.6286,,,,,,350,MAS,NOWORD,DIS,150,cosir,,la,,561.6312,561.6337,0.037962963,-0.391666667,0,0,0,,0,199,199,349,1,color,,,,
,,,,,,605824a5c79c7e261e281cc5,676192165fb32c2e1fb7aee6,67d28140e496a7b3ff552168,2025-03-13_03h56.05.014,Tarea de decisión léxica,2024.2.5,Win32,59.88023952,,,,,,,,,,,,,,,,,,,,,,,,561.6349,562.829,l,1,0.5167,,0.5167,1,562.8293,563.3288,,,,,,260,MAS,NOWORD,AGR,150,jaumo,,el,,563.3288,563.3292,0.037962963,-0.391666667,0,0,0,,0,200,200,259,1,juego,,,,
,,,,,,605824a5c79c7e261e281cc5,676192165fb32c2e1fb7aee6,67d28140e496a7b3ff552168,2025-03-13_03h56.05.014,Tarea de decisión léxica,2024.2.5,Win32,59.88023952,,,,,,,,,,,,,,,,,,,,,,,,563.331,564.9453,a,1,0.9345,,0.9345,1,564.9456,565.4455,,,,,,437,FEM,WORD,AGR,150,plaza,,la,,565.4457,565.4458,0.037962963,-0.391666667,0,0,0,,0,201,201,436,1,glava,,,,
,,,,,,605824a5c79c7e261e281cc5,676192165fb32c2e1fb7aee6,67d28140e496a7b3ff552168,2025-03-13_03h56.05.014,Tarea de decisión léxica,2024.2.5,Win32,59.88023952,,,,,,,,,,,,,,,,,,,,,,,,565.4478,566.7459,a,1,0.619,,0.619,1,566.7462,567.2455,,,,,,241,MAS,WORD,AGR,150,mundo,,el,,567.2457,567.2459,0.037962963,-0.391666667,0,0,0,,0,202,202,240,1,mirdo,,,,
,,,,,,605824a5c79c7e261e281cc5,676192165fb32c2e1fb7aee6,67d28140e496a7b3ff552168,2025-03-13_03h56.05.014,Tarea de decisión léxica,2024.2.5,Win32,59.88023952,,,,,,,,,,,,,,,,,,,,,,,,567.2476,568.4948,l,1,0.5764,,0.5764,1,568.495,568.9955,,,,,,272,FEM,NOWORD,AGR,150,refal,,la,,568.9976,569.0002,0.037962963,-0.391666667,0,0,0,,0,203,203,271,1,señal,,,,
,,,,,,605824a5c79c7e261e281cc5,676192165fb32c2e1fb7aee6,67d28140e496a7b3ff552168,2025-03-13_03h56.05.014,Tarea de decisión léxica,2024.2.5,Win32,59.88023952,,,,,,,,,,,,,,,,,,,,,,,,569.0009,570.4116,a,1,0.7345,,0.7345,1,570.4119,570.9115,,,,,,201,FEM,WORD,AGR,150,cuna,,la,,570.9116,570.9118,0.037962963,-0.391666667,0,0,0,,0,204,204,200,1,cusa,,,,
,,,,,,605824a5c79c7e261e281cc5,676192165fb32c2e1fb7aee6,67d28140e496a7b3ff552168,2025-03-13_03h56.05.014,Tarea de decisión léxica,2024.2.5,Win32,59.88023952,,,,,,,,,,,,,,,,,,,,,,,,570.9141,572.2285,l,1,0.635,,0.635,1,572.2288,572.7283,,,,,,6,FEM,NOWORD,DIS,150,poga,,el,,572.7286,572.7288,0.037962963,-0.391666667,0,0,0,,0,205,205,5,1,cosa,,,,
,,,,,,605824a5c79c7e261e281cc5,676192165fb32c2e1fb7aee6,67d28140e496a7b3ff552168,2025-03-13_03h56.05.014,Tarea de decisión léxica,2024.2.5,Win32,59.88023952,,,,,,,,,,,,,,,,,,,,,,,,572.7325,574.111,l,1,0.7071,,0.7071,1,574.1115,574.6115,,,,,,364,FEM,NOWORD,AGR,150,veida,,la,,574.6118,574.6122,0.037962963,-0.391666667,0,0,0,,0,206,206,363,1,deuda,,,,
,,,,,,605824a5c79c7e261e281cc5,676192165fb32c2e1fb7aee6,67d28140e496a7b3ff552168,2025-03-13_03h56.05.014,Tarea de decisión léxica,2024.2.5,Win32,59.88023952,,,,,,,,,,,,,,,,,,,,,,,,574.6158,575.7949,l,1,0.5003,,0.5003,1,575.7951,576.2951,,,,,,432,MAS,NOWORD,AGR,150,tetor,,el,,576.2953,576.2955,0.037962963,-0.391666667,0,0,0,,0,207,207,431,1,motor,,,,
,,,,,,605824a5c79c7e261e281cc5,676192165fb32c2e1fb7aee6,67d28140e496a7b3ff552168,2025-03-13_03h56.05.014,Tarea de decisión léxica,2024.2.5,Win32,59.88023952,,,,,,,,,,,,,,,,,,,,,,,,576.2984,577.6444,a,1,0.6674,,0.6674,1,577.6447,578.1445,,,,,,115,FEM,WORD,DIS,150,pata,,el,,578.1469,578.1486,0.037962963,-0.391666667,0,0,0,,0,208,208,114,1,haca,,,,
,,,,,,605824a5c79c7e261e281cc5,676192165fb32c2e1fb7aee6,67d28140e496a7b3ff552168,2025-03-13_03h56.05.014,Tarea de decisión léxica,2024.2.5,Win32,59.88023952,,,,,,,,,,,,,,,,,,,,,,,,578.1492,579.4947,a,1,0.6731,,0.6731,1,579.4949,579.9941,,,,,,285,MAS,WORD,DIS,150,error,,la,,579.9943,579.9947,0.037962963,-0.391666667,0,0,0,,0,209,209,284,1,echor,,,,
,,,,,,605824a5c79c7e261e281cc5,676192165fb32c2e1fb7aee6,67d28140e496a7b3ff552168,2025-03-13_03h56.05.014,Tarea de decisión léxica,2024.2.5,Win32,59.88023952,,,,,,,,,,,,,,,,,,,,,,,,579.9977,581.1946,l,1,0.5186,,0.5186,1,581.1947,581.6945,,,,,,380,MAS,NOWORD,AGR,150,tunso,,el,,581.6948,581.6951,0.037962963,-0.391666667,0,0,0,,0,210,210,379,1,turno,,,,
,,,,,,605824a5c79c7e261e281cc5,676192165fb32c2e1fb7aee6,67d28140e496a7b3ff552168,2025-03-13_03h56.05.014,Tarea de decisión léxica,2024.2.5,Win32,59.88023952,,,,,,,,,,,,,,,,,,,,,,,,581.6972,582.8277,a,1,0.4499,,0.4499,1,582.8279,583.3281,,,,,,307,MAS,WORD,DIS,150,hotel,,la,,583.3281,583.3284,0.037962963,-0.391666667,0,0,0,,0,211,211,306,1,holol,,,,
,,,,,,605824a5c79c7e261e281cc5,676192165fb32c2e1fb7aee6,67d28140e496a7b3ff552168,2025-03-13_03h56.05.014,Tarea de decisión léxica,2024.2.5,Win32,59.88023952,,,,,,,,,,,,,,,,,,,,,,,,583.3316,584.4779,a,1,0.4556,,0.4556,1,584.4781,584.9777,,,,,,247,FEM,WORD,DIS,150,chica,,el,,584.9779,584.9783,0.037962963,-0.391666667,0,0,0,,0,212,212,246,1,trida,,,,
,,,,,,605824a5c79c7e261e281cc5,676192165fb32c2e1fb7aee6,67d28140e496a7b3ff552168,2025-03-13_03h56.05.014,Tarea de decisión léxica,2024.2.5,Win32,59.88023952,,,,,,,,,,,,,,,,,,,,,,,,584.9809,586.244,l,1,0.5891,,0.5891,1,586.2442,586.7442,,,,,,384,FEM,NOWORD,AGR,150,brame,,la,,586.7462,586.748,0.037962963,-0.391666667,0,0,0,,0,213,213,383,1,frase,,,,
,,,,,,605824a5c79c7e261e281cc5,676192165fb32c2e1fb7aee6,67d28140e496a7b3ff552168,2025-03-13_03h56.05.014,Tarea de decisión léxica,2024.2.5,Win32,59.88023952,,,,,,,,,,,,,,,,,,,,,,,,586.7487,587.9776,a,1,0.5523,,0.5523,1,587.9778,588.4776,,,,,,411,MAS,WORD,DIS,150,pollo,,la,,588.4778,588.4781,0.037962963,-0.391666667,0,0,0,,0,214,214,410,1,mobro,,,,
,,,,,,605824a5c79c7e261e281cc5,676192165fb32c2e1fb7aee6,67d28140e496a7b3ff552168,2025-03-13_03h56.05.014,Tarea de decisión léxica,2024.2.5,Win32,59.88023952,,,,,,,,,,,,,,,,,,,,,,,,588.4798,589.8275,l,1,0.6737,,0.6737,1,589.8278,590.3276,,,,,,458,MAS,NOWORD,DIS,150,glaco,,la,,590.3278,590.3281,0.037962963,-0.391666667,0,0,0,,0,215,215,457,1,plato,,,,
,,,,,,605824a5c79c7e261e281cc5,676192165fb32c2e1fb7aee6,67d28140e496a7b3ff552168,2025-03-13_03h56.05.014,Tarea de decisión léxica,2024.2.5,Win32,59.88023952,,,,,,,,,,,,,,,,,,,,,,,,590.3317,591.9104,l,1,0.904,,0.904,1,591.9106,592.4108,,,,,,286,MAS,NOWORD,DIS,150,echor,,la,,592.411,592.4113,0.037962963,-0.391666667,0,0,0,,0,216,216,285,1,error,,,,
,,,,,,605824a5c79c7e261e281cc5,676192165fb32c2e1fb7aee6,67d28140e496a7b3ff552168,2025-03-13_03h56.05.014,Tarea de decisión léxica,2024.2.5,Win32,59.88023952,,,,,,,,,,,,,,,,,,,,,,,,592.413,593.7106,l,1,0.6221,,0.6221,1,593.7109,594.2104,,,,,,122,MAS,NOWORD,DIS,150,bomo,,la,,594.2106,594.2109,0.037962963,-0.391666667,0,0,0,,0,217,217,121,1,hoyo,,,,
,,,,,,605824a5c79c7e261e281cc5,676192165fb32c2e1fb7aee6,67d28140e496a7b3ff552168,2025-03-13_03h56.05.014,Tarea de decisión léxica,2024.2.5,Win32,59.88023952,,,,,,,,,,,,,,,,,,,,,,,,594.2126,595.3103,l,1,0.422,,0.422,1,595.3107,595.8101,,,,,,226,MAS,NOWORD,DIS,150,boco,,la,,595.8126,595.8155,0.037962963,-0.391666667,0,0,0,,0,218,218,225,1,lodo,,,,
,,,,,,605824a5c79c7e261e281cc5,676192165fb32c2e1fb7aee6,67d28140e496a7b3ff552168,2025-03-13_03h56.05.014,Tarea de decisión léxica,2024.2.5,Win32,59.88023952,,,,,,,,,,,,,,,,,,,,,,,,595.816,597.6438,l,1,1.1501,,1.1501,1,597.6442,598.1432,,,,,,134,FEM,NOWORD,DIS,150,vesa,,el,,598.1433,598.1436,0.037962963,-0.391666667,0,0,0,,0,219,219,133,1,vaca,,,,
,,,,,,605824a5c79c7e261e281cc5,676192165fb32c2e1fb7aee6,67d28140e496a7b3ff552168,2025-03-13_03h56.05.014,Tarea de decisión léxica,2024.2.5,Win32,59.88023952,,,,,,,,,,,,,,,,,,,,,,,,598.1456,599.3772,l,1,0.5554,,0.5554,1,599.3775,599.877,,,,,,338,MAS,NOWORD,DIS,150,nuejo,,la,,599.8772,599.8775,0.037962963,-0.391666667,0,0,0,,0,220,220,337,1,huevo,,,,
,,,,,,605824a5c79c7e261e281cc5,676192165fb32c2e1fb7aee6,67d28140e496a7b3ff552168,2025-03-13_03h56.05.014,Tarea de decisión léxica,2024.2.5,Win32,59.88023952,,,,,,,,,,,,,,,,,,,,,,,,599.8792,601.2267,l,1,0.6743,,0.6743,1,601.227,601.7266,,,,,,218,MAS,NOWORD,DIS,150,budo,,la,,601.7268,601.727,0.037962963,-0.391666667,0,0,0,,0,221,221,217,1,luto,,,,
,,,,,,605824a5c79c7e261e281cc5,676192165fb32c2e1fb7aee6,67d28140e496a7b3ff552168,2025-03-13_03h56.05.014,Tarea de decisión léxica,2024.2.5,Win32,59.88023952,,,,,,,,,,,,,,,,,,,,,,,,601.7292,603.4933,a,1,1.0885,,1.0885,1,603.4936,603.9932,,,,,,219,FEM,WORD,AGR,150,pipa,,la,,603.9934,603.9939,0.037962963,-0.391666667,0,0,0,,0,222,222,218,1,miva,,,,
,,,,,,605824a5c79c7e261e281cc5,676192165fb32c2e1fb7aee6,67d28140e496a7b3ff552168,2025-03-13_03h56.05.014,Tarea de decisión léxica,2024.2.5,Win32,59.88023952,,,,,,,,,,,,,,,,,,,,,,,,603.9974,605.5098,a,1,0.8352,,0.8352,1,605.5101,606.0095,,,,,,181,FEM,WORD,DIS,150,seda,,el,,606.012,606.0137,0.037962963,-0.391666667,0,0,0,,0,223,223,180,1,teda,,,,
,,,,,,605824a5c79c7e261e281cc5,676192165fb32c2e1fb7aee6,67d28140e496a7b3ff552168,2025-03-13_03h56.05.014,Tarea de decisión léxica,2024.2.5,Win32,59.88023952,,,,,,,,,,,,,,,,,,,,,,,,606.0145,607.176,a,1,0.4891,,0.4891,1,607.1763,607.6761,,,,,,349,MAS,WORD,AGR,150,color,,el,,607.6763,607.6765,0.037962963,-0.391666667,0,0,0,,0,224,224,348,1,cosir,,,,
,,,,,,605824a5c79c7e261e281cc5,676192165fb32c2e1fb7aee6,67d28140e496a7b3ff552168,2025-03-13_03h56.05.014,Tarea de decisión léxica,2024.2.5,Win32,59.88023952,,,,,,,,,,,,,,,,,,,,,,,,607.6786,609.7757,l,1,1.4199,,1.4199,1,609.7758,610.2761,,,,,,434,MAS,NOWORD,DIS,150,durco,,la,,610.2763,610.2765,0.037962963,-0.391666667,0,0,0,,0,225,225,433,1,disco,,,,
,,,,,,605824a5c79c7e261e281cc5,676192165fb32c2e1fb7aee6,67d28140e496a7b3ff552168,2025-03-13_03h56.05.014,Tarea de decisión léxica,2024.2.5,Win32,59.88023952,,,,,,,,,,,,,,,,,,,,,,,,610.2782,611.4426,a,1,0.4852,,0.4852,1,611.4428,611.9424,,,,,,399,MAS,WORD,AGR,150,techo,,el,,611.9426,611.9428,0.037962963,-0.391666667,0,0,0,,0,226,226,398,1,serro,,,,
,,,,,,605824a5c79c7e261e281cc5,676192165fb32c2e1fb7aee6,67d28140e496a7b3ff552168,2025-03-13_03h56.05.014,Tarea de decisión léxica,2024.2.5,Win32,59.88023952,,,,,,,,,,,,,,,,,,,,,,,,611.9452,613.6425,l,0,1.0193,,1.0193,0,613.6446,614.1428,,,,,,395,FEM,WORD,DIS,150,caída,,el,,614.1448,614.147,0.037962963,-0.391666667,0,0,0,,0,227,227,394,1,paeda,,,,
,,,,,,605824a5c79c7e261e281cc5,676192165fb32c2e1fb7aee6,67d28140e496a7b3ff552168,2025-03-13_03h56.05.014,Tarea de decisión léxica,2024.2.5,Win32,59.88023952,,,,,,,,,,,,,,,,,,,,,,,,614.1476,615.4426,l,1,0.618,,0.618,1,615.4446,615.9418,,,,,,24,FEM,NOWORD,AGR,150,giva,,la,,615.942,615.9423,0.037962963,-0.391666667,0,0,0,,0,228,228,23,1,hija,,,,
,,,,,,605824a5c79c7e261e281cc5,676192165fb32c2e1fb7aee6,67d28140e496a7b3ff552168,2025-03-13_03h56.05.014,Tarea de decisión léxica,2024.2.5,Win32,59.88023952,,,,,,,,,,,,,,,,,,,,,,,,615.9446,617.4756,a,1,0.8531,,0.8531,1,617.4759,617.9754,,,,,,31,FEM,WORD,AGR,150,ropa,,la,,617.9756,617.9758,0.037962963,-0.391666667,0,0,0,,0,229,229,30,1,bova,,,,
,,,,,,605824a5c79c7e261e281cc5,676192165fb32c2e1fb7aee6,67d28140e496a7b3ff552168,2025-03-13_03h56.05.014,Tarea de decisión léxica,2024.2.5,Win32,59.88023952,,,,,,,,,,,,,,,,,,,,,,,,617.9779,619.1757,a,1,0.5219,,0.5219,1,619.1759,619.6759,,,,,,403,FEM,WORD,DIS,150,prima,,el,,619.6761,619.6765,0.037962963,-0.391666667,0,0,0,,0,230,230,402,1,grisa,,,,
,,,,,,605824a5c79c7e261e281cc5,676192165fb32c2e1fb7aee6,67d28140e496a7b3ff552168,2025-03-13_03h56.05.014,Tarea de decisión léxica,2024.2.5,Win32,59.88023952,,,,,,,,,,,,,,,,,,,,,,,,619.6784,620.8423,a,1,0.4847,,0.4847,1,620.8425,621.3422,,,,,,147,FEM,WORD,AGR,150,hoja,,la,,621.3424,621.3429,0.037962963,-0.391666667,0,0,0,,0,231,231,146,1,pama,,,,
,,,,,,605824a5c79c7e261e281cc5,676192165fb32c2e1fb7aee6,67d28140e496a7b3ff552168,2025-03-13_03h56.05.014,Tarea de decisión léxica,2024.2.5,Win32,59.88023952,,,,,,,,,,,,,,,,,,,,,,,,621.3448,622.492,a,1,0.4675,,0.4675,1,622.4922,622.9921,,,,,,391,MAS,WORD,DIS,150,dueño,,la,,622.9948,622.997,0.037962963,-0.391666667,0,0,0,,0,232,232,390,1,dievo,,,,
,,,,,,605824a5c79c7e261e281cc5,676192165fb32c2e1fb7aee6,67d28140e496a7b3ff552168,2025-03-13_03h56.05.014,Tarea de decisión léxica,2024.2.5,Win32,59.88023952,,,,,,,,,,,,,,,,,,,,,,,,622.9978,624.4089,l,1,0.7336,,0.7336,1,624.4091,624.9089,,,,,,188,MAS,NOWORD,AGR,150,suto,,el,,624.909,624.9093,0.037962963,-0.391666667,0,0,0,,0,233,233,187,1,mito,,,,
,,,,,,605824a5c79c7e261e281cc5,676192165fb32c2e1fb7aee6,67d28140e496a7b3ff552168,2025-03-13_03h56.05.014,Tarea de decisión léxica,2024.2.5,Win32,59.88023952,,,,,,,,,,,,,,,,,,,,,,,,624.911,626.1086,a,0,0.5194,,0.5194,0,626.1107,626.6088,,,,,,400,MAS,NOWORD,AGR,150,serro,,el,,626.6089,626.6094,0.037962963,-0.391666667,0,0,0,,0,234,234,399,1,techo,,,,
,,,,,,605824a5c79c7e261e281cc5,676192165fb32c2e1fb7aee6,67d28140e496a7b3ff552168,2025-03-13_03h56.05.014,Tarea de decisión léxica,2024.2.5,Win32,59.88023952,,,,,,,,,,,,,,,,,,,,,,,,626.611,627.7246,a,1,0.4241,,0.4241,1,627.7272,628.2244,,,,,,275,MAS,WORD,DIS,150,punto,,la,,628.2246,628.2248,0.037962963,-0.391666667,0,0,0,,0,235,235,274,1,musto,,,,
,,,,,,605824a5c79c7e261e281cc5,676192165fb32c2e1fb7aee6,67d28140e496a7b3ff552168,2025-03-13_03h56.05.014,Tarea de decisión léxica,2024.2.5,Win32,59.88023952,,,,,,,,,,,,,,,,,,,,,,,,628.2273,629.7249,l,1,0.8195,,0.8195,1,629.725,630.225,,,,,,198,MAS,NOWORD,DIS,150,dade,,la,,630.2252,630.2254,0.037962963,-0.391666667,0,0,0,,0,236,236,197,1,bate,,,,
,,,,,,605824a5c79c7e261e281cc5,676192165fb32c2e1fb7aee6,67d28140e496a7b3ff552168,2025-03-13_03h56.05.014,Tarea de decisión léxica,2024.2.5,Win32,59.88023952,,,,,,,,,,,,,,,,,,,,,,,,630.2271,631.6922,l,1,0.7862,,0.7862,1,631.6923,632.1922,,,,,,406,FEM,NOWORD,DIS,150,rarra,,el,,632.1961,632.1974,0.037962963,-0.391666667,0,0,0,,0,237,237,405,1,barra,,,,
,,,,,,605824a5c79c7e261e281cc5,676192165fb32c2e1fb7aee6,67d28140e496a7b3ff552168,2025-03-13_03h56.05.014,Tarea de decisión léxica,2024.2.5,Win32,59.88023952,,,,,,,,,,,,,,,,,,,,,,,,632.1981,633.708,l,1,0.8385,,0.8385,1,633.7083,634.2076,,,,,,160,MAS,NOWORD,AGR,150,bilo,,el,,634.2078,634.2081,0.037962963,-0.391666667,0,0,0,,0,238,238,159,1,giro,,,,
,,,,,,605824a5c79c7e261e281cc5,676192165fb32c2e1fb7aee6,67d28140e496a7b3ff552168,2025-03-13_03h56.05.014,Tarea de decisión léxica,2024.2.5,Win32,59.88023952,,,,,,,,,,,,,,,,,,,,,,,,634.2107,635.358,l,1,0.4675,,0.4675,1,635.3583,635.8581,,,,,,370,MAS,NOWORD,DIS,150,rioco,,la,,635.8582,635.8586,0.037962963,-0.391666667,0,0,0,,0,239,239,369,1,ruido,,,,
,,,,,,605824a5c79c7e261e281cc5,676192165fb32c2e1fb7aee6,67d28140e496a7b3ff552168,2025-03-13_03h56.05.014,Tarea de decisión léxica,2024.2.5,Win32,59.88023952,,,,,,,,,,,,,,,,,,,,,,,,635.8628,637.058,l,1,0.5166,,0.5166,1,637.0582,637.5578,,,,,,38,MAS,NOWORD,DIS,150,gaco,,la,,637.5579,637.5582,0.037962963,-0.391666667,0,0,0,,0,240,240,37,1,rato,,,,
,,,,,,605824a5c79c7e261e281cc5,676192165fb32c2e1fb7aee6,67d28140e496a7b3ff552168,2025-03-13_03h56.05.014,Tarea de decisión léxica,2024.2.5,Win32,59.88023952,,,,,,,,,,,,,,,,,,,,,,,,637.5605,639.2413,a,1,1.0002,,1.0002,1,639.2415,639.7413,,,,,,199,MAS,WORD,DIS,150,lazo,,la,,639.7414,639.7417,0.037962963,-0.391666667,0,0,0,,0,241,241,198,1,fano,,,,
,,,,,,605824a5c79c7e261e281cc5,676192165fb32c2e1fb7aee6,67d28140e496a7b3ff552168,2025-03-13_03h56.05.014,Tarea de decisión léxica,2024.2.5,Win32,59.88023952,,,,,,,,,,,,,,,,,,,,,,,,639.7436,641.2412,a,1,0.8191,,0.8191,1,641.2414,641.7413,,,,,,309,FEM,WORD,AGR,150,silla,,la,,641.7433,641.7452,0.037962963,-0.391666667,0,0,0,,0,242,242,308,1,tirra,,,,
,,,,,,605824a5c79c7e261e281cc5,676192165fb32c2e1fb7aee6,67d28140e496a7b3ff552168,2025-03-13_03h56.05.014,Tarea de decisión léxica,2024.2.5,Win32,59.88023952,,,,,,,,,,,,,,,,,,,,,,,,641.7459,642.9081,a,1,0.4882,,0.4882,1,642.9083,643.4077,,,,,,299,FEM,WORD,AGR,150,bolsa,,la,,643.4079,643.408,0.037962963,-0.391666667,0,0,0,,0,243,243,298,1,bosga,,,,
,,,,,,605824a5c79c7e261e281cc5,676192165fb32c2e1fb7aee6,67d28140e496a7b3ff552168,2025-03-13_03h56.05.014,Tarea de decisión léxica,2024.2.5,Win32,59.88023952,,,,,,,,,,,,,,,,,,,,,,,,643.4099,644.9741,l,1,0.8855,,0.8855,1,644.9743,645.4736,,,,,,244,MAS,NOWORD,AGR,150,asamo,,el,,645.4737,645.4741,0.037962963,-0.391666667,0,0,0,,0,244,244,243,1,amigo,,,,
,,,,,,605824a5c79c7e261e281cc5,676192165fb32c2e1fb7aee6,67d28140e496a7b3ff552168,2025-03-13_03h56.05.014,Tarea de decisión léxica,2024.2.5,Win32,59.88023952,,,,,,,,,,,,,,,,,,,,,,,,645.4764,647.2409,l,1,1.0846,,1.0846,1,647.2412,647.7399,,,,,,126,MAS,NOWORD,DIS,150,vudo,,la,,647.7401,647.7405,0.037962963,-0.391666667,0,0,0,,0,245,245,125,1,lujo,,,,
,,,,,,605824a5c79c7e261e281cc5,676192165fb32c2e1fb7aee6,67d28140e496a7b3ff552168,2025-03-13_03h56.05.014,Tarea de decisión léxica,2024.2.5,Win32,59.88023952,,,,,,,,,,,,,,,,,,,,,,,,647.7445,649.5236,l,1,1.1082,,1.1082,1,649.5238,650.0238,,,,,,280,FEM,NOWORD,AGR,150,grina,,la,,650.024,650.0244,0.037962963,-0.391666667,0,0,0,,0,246,246,279,1,prisa,,,,
,,,,,,605824a5c79c7e261e281cc5,676192165fb32c2e1fb7aee6,67d28140e496a7b3ff552168,2025-03-13_03h56.05.014,Tarea de decisión léxica,2024.2.5,Win32,59.88023952,,,,,,,,,,,,,,,,,,,,,,,,650.0283,651.4739,l,1,0.7674,,0.7674,1,651.4742,651.974,,,,,,252,MAS,NOWORD,AGR,150,refor,,el,,651.9764,651.9778,0.037962963,-0.391666667,0,0,0,,0,247,247,251,1,señor,,,,
,,,,,,605824a5c79c7e261e281cc5,676192165fb32c2e1fb7aee6,67d28140e496a7b3ff552168,2025-03-13_03h56.05.014,Tarea de decisión léxica,2024.2.5,Win32,59.88023952,,,,,,,,,,,,,,,,,,,,,,,,651.9783,653.1905,a,1,0.5369,,0.5369,1,653.1907,653.6904,,,,,,273,FEM,WORD,DIS,150,broma,,el,,653.6906,653.6908,0.037962963,-0.391666667,0,0,0,,0,248,248,272,1,frosa,,,,
,,,,,,605824a5c79c7e261e281cc5,676192165fb32c2e1fb7aee6,67d28140e496a7b3ff552168,2025-03-13_03h56.05.014,Tarea de decisión léxica,2024.2.5,Win32,59.88023952,,,,,,,,,,,,,,,,,,,,,,,,653.6928,655.04,a,1,0.6695,,0.6695,1,655.0403,655.5397,,,,,,223,FEM,WORD,AGR,150,cera,,la,,655.5399,655.5403,0.037962963,-0.391666667,0,0,0,,0,249,249,222,1,cira,,,,
,,,,,,605824a5c79c7e261e281cc5,676192165fb32c2e1fb7aee6,67d28140e496a7b3ff552168,2025-03-13_03h56.05.014,Tarea de decisión léxica,2024.2.5,Win32,59.88023952,,,,,,,,,,,,,,,,,,,,,,,,655.5433,656.6902,a,1,0.4673,,0.4673,1,656.6905,657.1897,,,,,,13,FEM,WORD,DIS,150,hora,,el,,657.1898,657.1902,0.037962963,-0.391666667,0,0,0,,0,250,250,12,1,nola,,,,
,,,,,,605824a5c79c7e261e281cc5,676192165fb32c2e1fb7aee6,67d28140e496a7b3ff552168,2025-03-13_03h56.05.014,Tarea de decisión léxica,2024.2.5,Win32,59.88023952,,,,,,,,,,,,,,,,,,,,,,,,657.1926,658.3568,l,1,0.4833,,0.4833,1,658.357,658.8565,,,,,,246,FEM,NOWORD,DIS,150,pafle,,el,,658.859,658.8612,0.037962963,-0.391666667,0,0,0,,0,251,251,245,1,madre,,,,
,,,,,,605824a5c79c7e261e281cc5,676192165fb32c2e1fb7aee6,67d28140e496a7b3ff552168,2025-03-13_03h56.05.014,Tarea de decisión léxica,2024.2.5,Win32,59.88023952,,,,,,,,,,,,,,,,,,,,,,,,658.8619,660.1399,l,1,0.601,,0.601,1,660.1401,660.64,,,,,,140,MAS,NOWORD,AGR,150,nila,,el,,660.6404,660.6409,0.037962963,-0.391666667,0,0,0,,0,252,252,139,1,mago,,,,
,,,,,,605824a5c79c7e261e281cc5,676192165fb32c2e1fb7aee6,67d28140e496a7b3ff552168,2025-03-13_03h56.05.014,Tarea de decisión léxica,2024.2.5,Win32,59.88023952,,,,,,,,,,,,,,,,,,,,,,,,660.6433,661.8555,l,1,0.542,,0.542,1,661.8556,662.3561,,,,,,92,FEM,NOWORD,AGR,150,sava,,la,,662.3563,662.3566,0.037962963,-0.391666667,0,0,0,,0,253,253,91,1,taza,,,,
,,,,,,605824a5c79c7e261e281cc5,676192165fb32c2e1fb7aee6,67d28140e496a7b3ff552168,2025-03-13_03h56.05.014,Tarea de decisión léxica,2024.2.5,Win32,59.88023952,,,,,,,,,,,,,,,,,,,,,,,,662.3595,663.5725,a,1,0.5345,,0.5345,1,663.5728,664.0724,,,,,,51,FEM,WORD,AGR,150,caja,,la,,664.0726,664.0729,0.037962963,-0.391666667,0,0,0,,0,254,254,50,1,mava,,,,
,,,,,,605824a5c79c7e261e281cc5,676192165fb32c2e1fb7aee6,67d28140e496a7b3ff552168,2025-03-13_03h56.05.014,Tarea de decisión léxica,2024.2.5,Win32,59.88023952,,,,,,,,,,,,,,,,,,,,,,,,664.0757,665.2732,l,1,0.5266,,0.5266,1,665.2736,665.773,,,,,,120,MAS,NOWORD,AGR,150,hooy,,el,,665.7733,665.7737,0.037962963,-0.391666667,0,0,0,,0,255,255,119,1,pozo,,,,
,,,,,,605824a5c79c7e261e281cc5,676192165fb32c2e1fb7aee6,67d28140e496a7b3ff552168,2025-03-13_03h56.05.014,Tarea de decisión léxica,2024.2.5,Win32,59.88023952,,,,,,,,,,,,,,,,,,,,,,,,665.7761,667.306,a,1,0.8565,,0.8565,1,667.3063,667.806,,,,,,443,MAS,WORD,AGR,150,salón,,el,,667.8098,667.8113,0.037962963,-0.391666667,0,0,0,,0,256,256,442,1,taron,,,,
,,,,,,605824a5c79c7e261e281cc5,676192165fb32c2e1fb7aee6,67d28140e496a7b3ff552168,2025-03-13_03h56.05.014,Tarea de decisión léxica,2024.2.5,Win32,59.88023952,,,,,,,,,,,,,,,,,,,,,,,,667.812,669.073,l,1,0.5856,,0.5856,1,669.0732,669.5728,,,,,,98,MAS,NOWORD,DIS,150,fopo,,la,,669.573,669.5733,0.037962963,-0.391666667,0,0,0,,0,257,257,97,1,mono,,,,
,,,,,,605824a5c79c7e261e281cc5,676192165fb32c2e1fb7aee6,67d28140e496a7b3ff552168,2025-03-13_03h56.05.014,Tarea de decisión léxica,2024.2.5,Win32,59.88023952,,,,,,,,,,,,,,,,,,,,,,,,669.576,670.7384,a,1,0.4923,,0.4923,1,670.7387,671.2391,,,,,,381,MAS,WORD,DIS,150,humor,,la,,671.2392,671.2397,0.037962963,-0.391666667,0,0,0,,0,258,258,380,1,nusor,,,,
,,,,,,605824a5c79c7e261e281cc5,676192165fb32c2e1fb7aee6,67d28140e496a7b3ff552168,2025-03-13_03h56.05.014,Tarea de decisión léxica,2024.2.5,Win32,59.88023952,,,,,,,,,,,,,,,,,,,,,,,,671.2417,672.523,l,1,0.6005,,0.6005,1,672.5234,673.0228,,,,,,446,MAS,NOWORD,DIS,150,ascor,,la,,673.0229,673.0234,0.037962963,-0.391666667,0,0,0,,0,259,259,445,1,actor,,,,
,,,,,,605824a5c79c7e261e281cc5,676192165fb32c2e1fb7aee6,67d28140e496a7b3ff552168,2025-03-13_03h56.05.014,Tarea de decisión léxica,2024.2.5,Win32,59.88023952,,,,,,,,,,,,,,,,,,,,,,,,673.027,674.3391,l,1,0.6374,,0.6374,1,674.3393,674.8393,,,,,,390,MAS,NOWORD,DIS,150,cenco,,la,,674.8394,674.8398,0.037962963,-0.391666667,0,0,0,,0,260,260,389,1,cerdo,,,,
,,,,,,605824a5c79c7e261e281cc5,676192165fb32c2e1fb7aee6,67d28140e496a7b3ff552168,2025-03-13_03h56.05.014,Tarea de decisión léxica,2024.2.5,Win32,59.88023952,,,,,,,,,,,,,,,,,,,,,,,,674.8413,676.0889,a,1,0.567,,0.567,1,676.0893,676.5891,,,,,,15,FEM,WORD,AGR,150,idea,,la,,676.5912,676.5945,0.037962963,-0.391666667,0,0,0,,0,261,261,14,1,odea,,,,
,,,,,,605824a5c79c7e261e281cc5,676192165fb32c2e1fb7aee6,67d28140e496a7b3ff552168,2025-03-13_03h56.05.014,Tarea de decisión léxica,2024.2.5,Win32,59.88023952,,,,,,,,,,,,,,,,,,,,,,,,676.5954,677.8725,a,1,0.6163,,0.6163,1,677.8729,678.372,,,,,,265,FEM,WORD,DIS,150,mitad,,el,,678.3722,678.3727,0.037962963,-0.391666667,0,0,0,,0,262,262,264,1,pitat,,,,
,,,,,,605824a5c79c7e261e281cc5,676192165fb32c2e1fb7aee6,67d28140e496a7b3ff552168,2025-03-13_03h56.05.014,Tarea de decisión léxica,2024.2.5,Win32,59.88023952,,,,,,,,,,,,,,,,,,,,,,,,678.3748,679.7221,l,1,0.6664,,0.6664,1,679.7224,680.2224,,,,,,10,MAS,NOWORD,DIS,150,sibo,,la,,680.2226,680.2232,0.037962963,-0.391666667,0,0,0,,0,263,263,9,1,tipo,,,,
