counterbalancing_condition,consent_prescreening.block_1/declare_consent,consent_prescreening.block_1/age_years,consent_prescreening.block_1/gender,consent_prescreening.block_1/language_disorder,consent_prescreening.block_1/first_language,PROLIFIC_PID,STUDY_ID,SESSION_ID,date,expName,psychopyVersion,OS,frameRate,check_prescreening_answers.started,check_prescreening_answers.stopped,Instructions.started,Instructions.stopped,instr_done_keyboard.keys,instr_done_keyboard.rt,instr_done_keyboard.duration,instr_done_touch.x,instr_done_touch.y,instr_done_touch.leftButton,instr_done_touch.midButton,instr_done_touch.rightButton,instr_done_touch.clicked_name,instruction_pages.thisRepN,instruction_pages.thisTrialN,instruction_pages.thisN,instruction_pages.thisIndex,instruction_pages.ran,pageN,phase,instruct_text,has_image,instruct_image,presentTrial.started,presentTrial.stopped,response.keys,response.corr,rt,corr,feedback.started,feedback.stopped,practice_trials.thisRepN,practice_trials.thisTrialN,practice_trials.thisN,practice_trials.thisIndex,practice_trials.ran,TrialID,Gender,StimulusType,Condition,PrimeDuration,Prime,len,Flanker,corrAns,response.rt,response.duration,Break.started,Break.stopped,break_done_touch.x,break_done_touch.y,break_done_touch.leftButton,break_done_touch.midButton,break_done_touch.rightButton,break_done_keyboard.keys,experiment_trials.thisRepN,experiment_trials.thisTrialN,experiment_trials.thisN,experiment_trials.thisIndex,experiment_trials.ran,PairedWith,break_done_keyboard.rt,break_done_keyboard.duration,End.started,End.stopped
2,"[""over_18"",""comfortable"",""read_info"",""consent_given""]",23,M,"[""none""]","[""spanish""]",6062876a9cb05fa535867e17,676192165fb32c2e1fb7aee6,67d0df53f296cba0fc348327,2025-03-11_22h12.00.737,Tarea de decisión léxica,2024.2.5,Win32,142.8571429,,,,,,,,,,,,,,,,,,,,,,,,,,,,,,,,,,,,,,,,,,,,,,,,,,,,,,,,,,,,,,,,,
,,,,,,6062876a9cb05fa535867e17,676192165fb32c2e1fb7aee6,67d0df53f296cba0fc348327,2025-03-11_22h12.00.737,Tarea de decisión léxica,2024.2.5,Win32,142.8571429,79.4024,79.4025,,,,,,,,,,,,,,,,,,,,,,,,,,,,,,,,,,,,,,,,,,,,,,,,,,,,,,,,,,,,,,,
,,,,,,6062876a9cb05fa535867e17,676192165fb32c2e1fb7aee6,67d0df53f296cba0fc348327,2025-03-11_22h12.00.737,Tarea de decisión léxica,2024.2.5,Win32,142.8571429,,,79.4136,96.7353,space,17.295,,0.468099946,-0.041840074,0,0,0,,0,0,0,0,1,1,instructions,"INSTRUCCIONES
Va a realizar una prueba de decisión léxica. Desde el comienzo de la prueba mire siempre al centro de la pantalla. Se presentará una serie de cadenas de letras, una a la vez, en la pantalla. Su tarea consiste en determinar si cada cadena de letras constituye una palabra real en español o una no-palabra (una secuencia de letras que no constituye una palabra real). 

Pulse la tecla ESPACIO para continuar.",0,keyboardresponseWN.png,,,,,,,,,,,,,,,,,,,,,,,,,,,,,,,,,,,,,,,,,,
,,,,,,6062876a9cb05fa535867e17,676192165fb32c2e1fb7aee6,67d0df53f296cba0fc348327,2025-03-11_22h12.00.737,Tarea de decisión léxica,2024.2.5,Win32,142.8571429,,,96.7368,108.0903,space,11.3462,,0.315534336,-0.01410084,0,0,0,,0,1,1,1,1,2,instructions,"El procedimiento es el siguiente: Aparecerán dos barras verticales posicionadas en el centro de la pantalla, separadas por un pequeño espacio.Por favor, enfoque su atención en el espacio entre las barras. Esto preparará sus ojos para la siguiente cadena de letras, que aparecerá entre las dos barras durante un instante.

Pulse la tecla ESPACIO para continuar.",0,keyboardresponseNW.png,,,,,,,,,,,,,,,,,,,,,,,,,,,,,,,,,,,,,,,,,,
,,,,,,6062876a9cb05fa535867e17,676192165fb32c2e1fb7aee6,67d0df53f296cba0fc348327,2025-03-11_22h12.00.737,Tarea de decisión léxica,2024.2.5,Win32,142.8571429,,,108.0921,119.5083,space,11.3811,,0.703883614,0.027508012,0,0,0,,0,2,2,2,1,3,instructions,"En el teclado de su dispositivo, pulse la tecla ""A"" si la cadena de letras es una palabra real en español (por ejemplo: ""mano"") y la tecla ""L"" si la cadena de letras es una no-palabra (por ejemplo: ""minu"").
Pulse la tecla ESPACIO para continuar.",1,keyboardresponseWN.png,,,,,,,,,,,,,,,,,,,,,,,,,,,,,,,,,,,,,,,,,,
,,,,,,6062876a9cb05fa535867e17,676192165fb32c2e1fb7aee6,67d0df53f296cba0fc348327,2025-03-11_22h12.00.737,Tarea de decisión léxica,2024.2.5,Win32,142.8571429,,,119.5098,133.357,space,13.8393,,0.703883614,0.027508012,0,0,0,,0,3,3,3,1,4,instructions,"Es muy importante que responda con la mayor rapidez y precisión posibles. Si no responde dentro de 2 segundos, aparecerá el mensaje ""Muy lento"" y el experimento pasará a la siguiente palabra. Inmediatamente después de su respuesta se indicará si fue correcta o no. Los primeros 15 intentos serán de práctica y habrá dos descansos durante la prueba.

Pulse la tecla ESPACIO  para iniciar la parte de práctica.",0,keyboardresponseWN.png,,,,,,,,,,,,,,,,,,,,,,,,,,,,,,,,,,,,,,,,,,
,,,,,,6062876a9cb05fa535867e17,676192165fb32c2e1fb7aee6,67d0df53f296cba0fc348327,2025-03-11_22h12.00.737,Tarea de decisión léxica,2024.2.5,Win32,142.8571429,,,,,,,,,,,,,,,,,,,,,,,,133.3655,136.0172,,0,,-1,136.0173,136.5171,0,0,0,6,1,1007,MAS,WORD,DIS,150,masa,4,la,l,,,,,,,,,,,,,,,,,,,,
,,,,,,6062876a9cb05fa535867e17,676192165fb32c2e1fb7aee6,67d0df53f296cba0fc348327,2025-03-11_22h12.00.737,Tarea de decisión léxica,2024.2.5,Win32,142.8571429,,,,,,,,,,,,,,,,,,,,,,,,136.5182,138.0798,l,1,0.9057,1,138.0838,138.5797,0,1,1,3,1,1004,FEM,NOWORD,AGR,150,bireo,5,la,a,0.9057,,,,,,,,,,,,,,,,,,,
,,,,,,6062876a9cb05fa535867e17,676192165fb32c2e1fb7aee6,67d0df53f296cba0fc348327,2025-03-11_22h12.00.737,Tarea de decisión léxica,2024.2.5,Win32,142.8571429,,,,,,,,,,,,,,,,,,,,,,,,138.5806,140.2536,l,1,1.015,1,140.2536,140.7536,0,2,2,0,1,1001,FEM,NOWORD,AGR,150,croz,4,la,a,1.015,,,,,,,,,,,,,,,,,,,
,,,,,,6062876a9cb05fa535867e17,676192165fb32c2e1fb7aee6,67d0df53f296cba0fc348327,2025-03-11_22h12.00.737,Tarea de decisión léxica,2024.2.5,Win32,142.8571429,,,,,,,,,,,,,,,,,,,,,,,,140.7544,142.4899,l,1,1.0813,1,142.49,142.99,0,3,3,2,1,1003,FEM,NOWORD,DIS,150,muvor,5,el,a,1.0813,,,,,,,,,,,,,,,,,,,
,,,,,,6062876a9cb05fa535867e17,676192165fb32c2e1fb7aee6,67d0df53f296cba0fc348327,2025-03-11_22h12.00.737,Tarea de decisión léxica,2024.2.5,Win32,142.8571429,,,,,,,,,,,,,,,,,,,,,,,,142.9905,144.3166,a,1,0.6692,1,144.3166,144.8166,0,4,4,5,1,1006,FEM,WORD,AGR,150,cara,4,la,l,0.6692,,,,,,,,,,,,,,,,,,,
,,,,,,6062876a9cb05fa535867e17,676192165fb32c2e1fb7aee6,67d0df53f296cba0fc348327,2025-03-11_22h12.00.737,Tarea de decisión léxica,2024.2.5,Win32,142.8571429,,,,,,,,,,,,,,,,,,,,,,,,144.8174,146.0529,a,1,0.5825,1,146.0529,146.5528,0,5,5,9,1,1010,MAS,WORD,DIS,150,video,5,la,l,0.5825,,,,,,,,,,,,,,,,,,,
,,,,,,6062876a9cb05fa535867e17,676192165fb32c2e1fb7aee6,67d0df53f296cba0fc348327,2025-03-11_22h12.00.737,Tarea de decisión léxica,2024.2.5,Win32,142.8571429,,,,,,,,,,,,,,,,,,,,,,,,146.5536,147.9279,a,1,0.7183,1,147.928,148.4281,0,6,6,8,1,1009,FEM,WORD,AGR,150,viejo,5,la,l,0.7183,,,,,,,,,,,,,,,,,,,
,,,,,,6062876a9cb05fa535867e17,676192165fb32c2e1fb7aee6,67d0df53f296cba0fc348327,2025-03-11_22h12.00.737,Tarea de decisión léxica,2024.2.5,Win32,142.8571429,,,,,,,,,,,,,,,,,,,,,,,,148.429,149.9977,a,1,0.915,1,149.9977,150.4977,0,7,7,7,1,1008,MAS,WORD,DIS,150,frío,4,la,l,0.915,,,,,,,,,,,,,,,,,,,
,,,,,,6062876a9cb05fa535867e17,676192165fb32c2e1fb7aee6,67d0df53f296cba0fc348327,2025-03-11_22h12.00.737,Tarea de decisión léxica,2024.2.5,Win32,142.8571429,,,,,,,,,,,,,,,,,,,,,,,,150.4983,152.116,l,1,0.9625,1,152.116,152.616,0,8,8,1,1,1002,FEM,NOWORD,DIS,150,mabo,4,el,a,0.9625,,,,,,,,,,,,,,,,,,,
,,,,,,6062876a9cb05fa535867e17,676192165fb32c2e1fb7aee6,67d0df53f296cba0fc348327,2025-03-11_22h12.00.737,Tarea de decisión léxica,2024.2.5,Win32,142.8571429,,,,,,,,,,,,,,,,,,,,,,,,152.6167,154.1162,l,1,0.8436,1,154.1163,154.6163,0,9,9,4,1,1005,MAS,NOWORD,DIS,150,nobad,5,la,a,0.8436,,,,,,,,,,,,,,,,,,,
,,,,,,6062876a9cb05fa535867e17,676192165fb32c2e1fb7aee6,67d0df53f296cba0fc348327,2025-03-11_22h12.00.737,Tarea de decisión léxica,2024.2.5,Win32,142.8571429,,,160.2086,171.9308,space,11.7151,,0.705733157,0.027508012,0,0,0,,,,,,,,,,,,171.9524,173.1462,l,1,0.5365,1,173.1463,173.6461,,,,,,70,FEM,NOWORD,DIS,150,ñola,,el,,0.5365,,173.6463,173.6486,0.705733157,0.027508012,0,0,0,,0,0,0,69,1,zona,,,,
,,,,,,6062876a9cb05fa535867e17,676192165fb32c2e1fb7aee6,67d0df53f296cba0fc348327,2025-03-11_22h12.00.737,Tarea de decisión léxica,2024.2.5,Win32,142.8571429,,,,,,,,,,,,,,,,,,,,,,,,173.649,174.813,l,1,0.5129,1,174.813,175.3131,,,,,,338,MAS,NOWORD,DIS,150,nuejo,,la,,0.5129,,175.3131,175.3131,0.705733157,0.027508012,0,0,0,,0,1,1,337,1,huevo,,,,
,,,,,,6062876a9cb05fa535867e17,676192165fb32c2e1fb7aee6,67d0df53f296cba0fc348327,2025-03-11_22h12.00.737,Tarea de decisión léxica,2024.2.5,Win32,142.8571429,,,,,,,,,,,,,,,,,,,,,,,,175.3137,176.5145,l,1,0.5421,1,176.5146,177.0146,,,,,,74,MAS,NOWORD,DIS,150,omio,,la,,0.5421,,177.0153,177.0157,0.705733157,0.027508012,0,0,0,,0,2,2,73,1,odio,,,,
,,,,,,6062876a9cb05fa535867e17,676192165fb32c2e1fb7aee6,67d0df53f296cba0fc348327,2025-03-11_22h12.00.737,Tarea de decisión léxica,2024.2.5,Win32,142.8571429,,,,,,,,,,,,,,,,,,,,,,,,177.016,178.0773,a,1,0.4036,1,178.0773,178.5773,,,,,,181,FEM,WORD,DIS,150,seda,,el,,0.4036,,178.5773,178.5774,0.705733157,0.027508012,0,0,0,,0,3,3,180,1,teda,,,,
,,,,,,6062876a9cb05fa535867e17,676192165fb32c2e1fb7aee6,67d0df53f296cba0fc348327,2025-03-11_22h12.00.737,Tarea de decisión léxica,2024.2.5,Win32,142.8571429,,,,,,,,,,,,,,,,,,,,,,,,178.5779,179.5635,a,1,0.3289,1,179.5635,180.0636,,,,,,213,FEM,WORD,DIS,150,rama,,el,,0.3289,,180.0636,180.0637,0.705733157,0.027508012,0,0,0,,0,4,4,212,1,bana,,,,
,,,,,,6062876a9cb05fa535867e17,676192165fb32c2e1fb7aee6,67d0df53f296cba0fc348327,2025-03-11_22h12.00.737,Tarea de decisión léxica,2024.2.5,Win32,142.8571429,,,,,,,,,,,,,,,,,,,,,,,,180.0643,181.1748,a,1,0.4519,1,181.1749,181.6749,,,,,,267,MAS,WORD,AGR,150,libro,,el,,0.4519,,181.675,181.675,0.705733157,0.027508012,0,0,0,,0,5,5,266,1,figro,,,,
,,,,,,6062876a9cb05fa535867e17,676192165fb32c2e1fb7aee6,67d0df53f296cba0fc348327,2025-03-11_22h12.00.737,Tarea de decisión léxica,2024.2.5,Win32,142.8571429,,,,,,,,,,,,,,,,,,,,,,,,181.6758,182.932,a,0,0.5972,0,182.9327,183.432,,,,,,444,MAS,NOWORD,AGR,150,taron,,el,,0.5972,,183.4321,183.4322,0.705733157,0.027508012,0,0,0,,0,6,6,443,1,salón,,,,
,,,,,,6062876a9cb05fa535867e17,676192165fb32c2e1fb7aee6,67d0df53f296cba0fc348327,2025-03-11_22h12.00.737,Tarea de decisión léxica,2024.2.5,Win32,142.8571429,,,,,,,,,,,,,,,,,,,,,,,,183.4328,184.7169,l,1,0.6255,1,184.7174,185.2169,,,,,,286,MAS,NOWORD,DIS,150,echor,,la,,0.6255,,185.2179,185.2182,0.705733157,0.027508012,0,0,0,,0,7,7,285,1,error,,,,
,,,,,,6062876a9cb05fa535867e17,676192165fb32c2e1fb7aee6,67d0df53f296cba0fc348327,2025-03-11_22h12.00.737,Tarea de decisión léxica,2024.2.5,Win32,142.8571429,,,,,,,,,,,,,,,,,,,,,,,,185.2187,186.3976,a,1,0.5244,1,186.3977,186.8977,,,,,,165,FEM,WORD,DIS,150,vela,,el,,0.5244,,186.8977,186.8977,0.705733157,0.027508012,0,0,0,,0,8,8,164,1,dera,,,,
,,,,,,6062876a9cb05fa535867e17,676192165fb32c2e1fb7aee6,67d0df53f296cba0fc348327,2025-03-11_22h12.00.737,Tarea de decisión léxica,2024.2.5,Win32,142.8571429,,,,,,,,,,,,,,,,,,,,,,,,186.8983,187.9047,a,1,0.3528,1,187.9047,188.4049,,,,,,71,FEM,WORD,AGR,150,isla,,la,,0.3528,,188.4049,188.4049,0.705733157,0.027508012,0,0,0,,0,9,9,70,1,urla,,,,
,,,,,,6062876a9cb05fa535867e17,676192165fb32c2e1fb7aee6,67d0df53f296cba0fc348327,2025-03-11_22h12.00.737,Tarea de decisión léxica,2024.2.5,Win32,142.8571429,,,,,,,,,,,,,,,,,,,,,,,,188.4054,189.7661,l,1,0.7027,1,189.7662,190.2661,,,,,,158,MAS,NOWORD,DIS,150,hico,,la,,0.7027,,190.2662,190.2663,0.705733157,0.027508012,0,0,0,,0,10,10,157,1,nido,,,,
,,,,,,6062876a9cb05fa535867e17,676192165fb32c2e1fb7aee6,67d0df53f296cba0fc348327,2025-03-11_22h12.00.737,Tarea de decisión léxica,2024.2.5,Win32,142.8571429,,,,,,,,,,,,,,,,,,,,,,,,190.2668,191.8219,l,1,0.8995,1,191.8219,192.3219,,,,,,14,FEM,NOWORD,DIS,150,nola,,el,,0.8995,,192.3226,192.3229,0.705733157,0.027508012,0,0,0,,0,11,11,13,1,hora,,,,
,,,,,,6062876a9cb05fa535867e17,676192165fb32c2e1fb7aee6,67d0df53f296cba0fc348327,2025-03-11_22h12.00.737,Tarea de decisión léxica,2024.2.5,Win32,142.8571429,,,,,,,,,,,,,,,,,,,,,,,,192.3233,193.8429,l,1,0.8615,1,193.843,194.3429,,,,,,122,MAS,NOWORD,DIS,150,bomo,,la,,0.8615,,194.343,194.343,0.705733157,0.027508012,0,0,0,,0,12,12,121,1,hoyo,,,,
,,,,,,6062876a9cb05fa535867e17,676192165fb32c2e1fb7aee6,67d0df53f296cba0fc348327,2025-03-11_22h12.00.737,Tarea de decisión léxica,2024.2.5,Win32,142.8571429,,,,,,,,,,,,,,,,,,,,,,,,194.3437,195.6279,l,1,0.6288,1,195.6279,196.1279,,,,,,90,MAS,NOWORD,DIS,150,guso,,la,,0.6288,,196.1279,196.128,0.705733157,0.027508012,0,0,0,,0,13,13,89,1,humo,,,,
,,,,,,6062876a9cb05fa535867e17,676192165fb32c2e1fb7aee6,67d0df53f296cba0fc348327,2025-03-11_22h12.00.737,Tarea de decisión léxica,2024.2.5,Win32,142.8571429,,,,,,,,,,,,,,,,,,,,,,,,196.1285,197.6072,l,1,0.8249,1,197.6072,198.1072,,,,,,164,FEM,NOWORD,AGR,150,laga,,la,,0.8249,,198.1073,198.1074,0.705733157,0.027508012,0,0,0,,0,14,14,163,1,fama,,,,
,,,,,,6062876a9cb05fa535867e17,676192165fb32c2e1fb7aee6,67d0df53f296cba0fc348327,2025-03-11_22h12.00.737,Tarea de decisión léxica,2024.2.5,Win32,142.8571429,,,,,,,,,,,,,,,,,,,,,,,,198.1079,199.6908,a,1,0.924,1,199.6908,200.1908,,,,,,125,MAS,WORD,DIS,150,lujo,,la,,0.924,,200.1908,200.1909,0.705733157,0.027508012,0,0,0,,0,15,15,124,1,vudo,,,,
,,,,,,6062876a9cb05fa535867e17,676192165fb32c2e1fb7aee6,67d0df53f296cba0fc348327,2025-03-11_22h12.00.737,Tarea de decisión léxica,2024.2.5,Win32,142.8571429,,,,,,,,,,,,,,,,,,,,,,,,200.1915,201.5383,l,1,0.6892,1,201.5383,202.0383,,,,,,326,FEM,NOWORD,DIS,150,mabia,,el,,0.6892,,202.039,202.0393,0.705733157,0.027508012,0,0,0,,0,16,16,325,1,magia,,,,
,,,,,,6062876a9cb05fa535867e17,676192165fb32c2e1fb7aee6,67d0df53f296cba0fc348327,2025-03-11_22h12.00.737,Tarea de decisión léxica,2024.2.5,Win32,142.8571429,,,,,,,,,,,,,,,,,,,,,,,,202.0396,203.5037,l,1,0.8067,1,203.5038,204.0038,,,,,,4,FEM,NOWORD,AGR,150,dica,,la,,0.8067,,204.0038,204.0038,0.705733157,0.027508012,0,0,0,,0,17,17,3,1,vida,,,,
,,,,,,6062876a9cb05fa535867e17,676192165fb32c2e1fb7aee6,67d0df53f296cba0fc348327,2025-03-11_22h12.00.737,Tarea de decisión léxica,2024.2.5,Win32,142.8571429,,,,,,,,,,,,,,,,,,,,,,,,204.0044,205.6568,l,1,0.9997,1,205.6569,206.1568,,,,,,322,MAS,NOWORD,DIS,150,rarco,,la,,0.9997,,206.1569,206.1569,0.705733157,0.027508012,0,0,0,,0,18,18,321,1,banco,,,,
,,,,,,6062876a9cb05fa535867e17,676192165fb32c2e1fb7aee6,67d0df53f296cba0fc348327,2025-03-11_22h12.00.737,Tarea de decisión léxica,2024.2.5,Win32,142.8571429,,,,,,,,,,,,,,,,,,,,,,,,206.1574,208.0598,l,1,1.2489,1,208.0599,208.5598,,,,,,36,MAS,NOWORD,AGR,150,meno,,el,,1.2489,,208.5599,208.5599,0.705733157,0.027508012,0,0,0,,0,19,19,35,1,pelo,,,,
,,,,,,6062876a9cb05fa535867e17,676192165fb32c2e1fb7aee6,67d0df53f296cba0fc348327,2025-03-11_22h12.00.737,Tarea de decisión léxica,2024.2.5,Win32,142.8571429,,,,,,,,,,,,,,,,,,,,,,,,208.5605,209.8794,l,1,0.6628,1,209.8795,210.3795,,,,,,168,FEM,NOWORD,AGR,150,zifa,,la,,0.6628,,210.3796,210.3796,0.705733157,0.027508012,0,0,0,,0,20,20,167,1,jefa,,,,
,,,,,,6062876a9cb05fa535867e17,676192165fb32c2e1fb7aee6,67d0df53f296cba0fc348327,2025-03-11_22h12.00.737,Tarea de decisión léxica,2024.2.5,Win32,142.8571429,,,,,,,,,,,,,,,,,,,,,,,,210.3802,211.898,a,1,0.861,1,211.8981,212.3935,,,,,,353,FEM,WORD,DIS,150,celda,,el,,0.861,,212.3943,212.3947,0.705733157,0.027508012,0,0,0,,0,21,21,352,1,cezca,,,,
,,,,,,6062876a9cb05fa535867e17,676192165fb32c2e1fb7aee6,67d0df53f296cba0fc348327,2025-03-11_22h12.00.737,Tarea de decisión léxica,2024.2.5,Win32,142.8571429,,,,,,,,,,,,,,,,,,,,,,,,212.3951,213.5743,l,1,0.5212,1,213.5744,214.0744,,,,,,186,MAS,NOWORD,DIS,150,raol,,la,,0.5212,,214.0744,214.0744,0.705733157,0.027508012,0,0,0,,0,22,22,185,1,baúl,,,,
,,,,,,6062876a9cb05fa535867e17,676192165fb32c2e1fb7aee6,67d0df53f296cba0fc348327,2025-03-11_22h12.00.737,Tarea de decisión léxica,2024.2.5,Win32,142.8571429,,,,,,,,,,,,,,,,,,,,,,,,214.075,215.3106,l,1,0.58,1,215.3107,215.8107,,,,,,104,FEM,NOWORD,AGR,150,rova,,la,,0.58,,215.8107,215.8107,0.705733157,0.027508012,0,0,0,,0,23,23,103,1,ruta,,,,
,,,,,,6062876a9cb05fa535867e17,676192165fb32c2e1fb7aee6,67d0df53f296cba0fc348327,2025-03-11_22h12.00.737,Tarea de decisión léxica,2024.2.5,Win32,142.8571429,,,,,,,,,,,,,,,,,,,,,,,,215.8112,216.9011,a,1,0.4313,1,216.9011,217.4011,,,,,,11,MAS,WORD,AGR,150,lado,,el,,0.4313,,217.4011,217.4011,0.705733157,0.027508012,0,0,0,,0,24,24,10,1,bapo,,,,
,,,,,,6062876a9cb05fa535867e17,676192165fb32c2e1fb7aee6,67d0df53f296cba0fc348327,2025-03-11_22h12.00.737,Tarea de decisión léxica,2024.2.5,Win32,142.8571429,,,,,,,,,,,,,,,,,,,,,,,,217.4018,218.7902,a,1,0.7349,1,218.7902,219.2902,,,,,,339,MAS,WORD,AGR,150,brazo,,el,,0.7349,,219.2902,219.2902,0.705733157,0.027508012,0,0,0,,0,25,25,338,1,plajo,,,,
,,,,,,6062876a9cb05fa535867e17,676192165fb32c2e1fb7aee6,67d0df53f296cba0fc348327,2025-03-11_22h12.00.737,Tarea de decisión léxica,2024.2.5,Win32,142.8571429,,,,,,,,,,,,,,,,,,,,,,,,219.2908,220.5543,a,1,0.6064,1,220.5543,221.0543,,,,,,479,MAS,WORD,AGR,150,rumbo,,el,,0.6064,,221.0551,221.0554,0.705733157,0.027508012,0,0,0,,0,26,26,478,1,rimpo,,,,
,,,,,,6062876a9cb05fa535867e17,676192165fb32c2e1fb7aee6,67d0df53f296cba0fc348327,2025-03-11_22h12.00.737,Tarea de decisión léxica,2024.2.5,Win32,142.8571429,,,,,,,,,,,,,,,,,,,,,,,,221.0558,222.4642,a,1,0.7518,1,222.4642,222.9643,,,,,,101,MAS,WORD,DIS,150,tono,,la,,0.7518,,222.9643,222.9643,0.705733157,0.027508012,0,0,0,,0,27,27,100,1,gito,,,,
,,,,,,6062876a9cb05fa535867e17,676192165fb32c2e1fb7aee6,67d0df53f296cba0fc348327,2025-03-11_22h12.00.737,Tarea de decisión léxica,2024.2.5,Win32,142.8571429,,,,,,,,,,,,,,,,,,,,,,,,222.9651,224.4436,a,1,0.8244,1,224.4437,224.9437,,,,,,421,MAS,WORD,DIS,150,primo,,la,,0.8244,,224.9437,224.9437,0.705733157,0.027508012,0,0,0,,0,28,28,420,1,griso,,,,
,,,,,,6062876a9cb05fa535867e17,676192165fb32c2e1fb7aee6,67d0df53f296cba0fc348327,2025-03-11_22h12.00.737,Tarea de decisión léxica,2024.2.5,Win32,142.8571429,,,,,,,,,,,,,,,,,,,,,,,,224.9442,226.0273,a,1,0.4298,1,226.0273,226.5272,,,,,,391,MAS,WORD,AGR,150,dueño,,el,,0.4298,,226.5272,226.5272,0.705733157,0.027508012,0,0,0,,0,29,29,390,1,dievo,,,,
,,,,,,6062876a9cb05fa535867e17,676192165fb32c2e1fb7aee6,67d0df53f296cba0fc348327,2025-03-11_22h12.00.737,Tarea de decisión léxica,2024.2.5,Win32,142.8571429,,,,,,,,,,,,,,,,,,,,,,,,226.5278,227.437,a,1,0.2512,1,227.4371,227.937,,,,,,245,FEM,WORD,DIS,150,madre,,el,,0.2512,,227.937,227.9371,0.705733157,0.027508012,0,0,0,,0,30,30,244,1,pafle,,,,
,,,,,,6062876a9cb05fa535867e17,676192165fb32c2e1fb7aee6,67d0df53f296cba0fc348327,2025-03-11_22h12.00.737,Tarea de decisión léxica,2024.2.5,Win32,142.8571429,,,,,,,,,,,,,,,,,,,,,,,,227.9378,228.944,a,1,0.3475,1,228.9441,229.4442,,,,,,183,FEM,WORD,AGR,150,raya,,la,,0.3475,,229.4449,229.4453,0.705733157,0.027508012,0,0,0,,0,31,31,182,1,raad,,,,
,,,,,,6062876a9cb05fa535867e17,676192165fb32c2e1fb7aee6,67d0df53f296cba0fc348327,2025-03-11_22h12.00.737,Tarea de decisión léxica,2024.2.5,Win32,142.8571429,,,,,,,,,,,,,,,,,,,,,,,,229.4456,230.3818,a,1,0.2781,1,230.3818,230.8818,,,,,,131,FEM,WORD,AGR,150,mina,,la,,0.2781,,230.8819,230.8819,0.705733157,0.027508012,0,0,0,,0,32,32,130,1,fada,,,,
,,,,,,6062876a9cb05fa535867e17,676192165fb32c2e1fb7aee6,67d0df53f296cba0fc348327,2025-03-11_22h12.00.737,Tarea de decisión léxica,2024.2.5,Win32,142.8571429,,,,,,,,,,,,,,,,,,,,,,,,230.8825,231.9722,l,1,0.4302,1,231.9722,232.4723,,,,,,456,MAS,NOWORD,AGR,150,riaso,,el,,0.4302,,232.4723,232.4724,0.705733157,0.027508012,0,0,0,,0,33,33,455,1,reino,,,,
,,,,,,6062876a9cb05fa535867e17,676192165fb32c2e1fb7aee6,67d0df53f296cba0fc348327,2025-03-11_22h12.00.737,Tarea de decisión léxica,2024.2.5,Win32,142.8571429,,,,,,,,,,,,,,,,,,,,,,,,232.4728,233.7919,l,1,0.6649,1,233.7919,234.2919,,,,,,82,FEM,NOWORD,DIS,150,vasa,,el,,0.6649,,234.2919,234.292,0.705733157,0.027508012,0,0,0,,0,34,34,81,1,dama,,,,
,,,,,,6062876a9cb05fa535867e17,676192165fb32c2e1fb7aee6,67d0df53f296cba0fc348327,2025-03-11_22h12.00.737,Tarea de decisión léxica,2024.2.5,Win32,142.8571429,,,,,,,,,,,,,,,,,,,,,,,,234.2924,235.5907,a,1,0.6413,1,235.5907,236.0907,,,,,,151,MAS,WORD,AGR,150,tomo,,el,,0.6413,,236.0914,236.0919,0.705733157,0.027508012,0,0,0,,0,35,35,150,1,sogo,,,,
,,,,,,6062876a9cb05fa535867e17,676192165fb32c2e1fb7aee6,67d0df53f296cba0fc348327,2025-03-11_22h12.00.737,Tarea de decisión léxica,2024.2.5,Win32,142.8571429,,,,,,,,,,,,,,,,,,,,,,,,236.0922,237.4936,l,1,0.7468,1,237.4937,237.9937,,,,,,148,FEM,NOWORD,AGR,150,pama,,la,,0.7468,,237.9937,237.9937,0.705733157,0.027508012,0,0,0,,0,36,36,147,1,hoja,,,,
,,,,,,6062876a9cb05fa535867e17,676192165fb32c2e1fb7aee6,67d0df53f296cba0fc348327,2025-03-11_22h12.00.737,Tarea de decisión léxica,2024.2.5,Win32,142.8571429,,,,,,,,,,,,,,,,,,,,,,,,237.9943,239.0633,a,1,0.4116,1,239.0633,239.5634,,,,,,381,MAS,WORD,DIS,150,humor,,la,,0.4116,,239.5634,239.5634,0.705733157,0.027508012,0,0,0,,0,37,37,380,1,nusor,,,,
,,,,,,6062876a9cb05fa535867e17,676192165fb32c2e1fb7aee6,67d0df53f296cba0fc348327,2025-03-11_22h12.00.737,Tarea de decisión léxica,2024.2.5,Win32,142.8571429,,,,,,,,,,,,,,,,,,,,,,,,239.564,240.751,l,1,0.5341,1,240.751,241.2511,,,,,,302,FEM,NOWORD,DIS,150,ranga,,el,,0.5341,,241.2512,241.2512,0.705733157,0.027508012,0,0,0,,0,38,38,301,1,banda,,,,
,,,,,,6062876a9cb05fa535867e17,676192165fb32c2e1fb7aee6,67d0df53f296cba0fc348327,2025-03-11_22h12.00.737,Tarea de decisión léxica,2024.2.5,Win32,142.8571429,,,,,,,,,,,,,,,,,,,,,,,,241.2518,242.3692,a,1,0.4614,1,242.3693,242.8693,,,,,,197,MAS,WORD,DIS,150,bate,,la,,0.4614,,242.8693,242.8693,0.705733157,0.027508012,0,0,0,,0,39,39,196,1,dade,,,,
,,,,,,6062876a9cb05fa535867e17,676192165fb32c2e1fb7aee6,67d0df53f296cba0fc348327,2025-03-11_22h12.00.737,Tarea de decisión léxica,2024.2.5,Win32,142.8571429,,,,,,,,,,,,,,,,,,,,,,,,242.8699,243.8068,a,1,0.2822,1,243.8069,244.3069,,,,,,59,FEM,WORD,AGR,150,sala,,la,,0.2822,,244.3076,244.308,0.705733157,0.027508012,0,0,0,,0,40,40,58,1,tafa,,,,
,,,,,,6062876a9cb05fa535867e17,676192165fb32c2e1fb7aee6,67d0df53f296cba0fc348327,2025-03-11_22h12.00.737,Tarea de decisión léxica,2024.2.5,Win32,142.8571429,,,,,,,,,,,,,,,,,,,,,,,,244.3084,245.3904,a,1,0.4271,1,245.3904,245.8905,,,,,,315,FEM,WORD,AGR,150,reina,,la,,0.4271,,245.8905,245.8905,0.705733157,0.027508012,0,0,0,,0,41,41,314,1,riosa,,,,
,,,,,,6062876a9cb05fa535867e17,676192165fb32c2e1fb7aee6,67d0df53f296cba0fc348327,2025-03-11_22h12.00.737,Tarea de decisión léxica,2024.2.5,Win32,142.8571429,,,,,,,,,,,,,,,,,,,,,,,,245.891,246.8281,a,1,0.2783,1,246.8281,247.3281,,,,,,335,FEM,WORD,AGR,150,costa,,la,,0.2783,,247.3281,247.3282,0.705733157,0.027508012,0,0,0,,0,42,42,334,1,pesta,,,,
,,,,,,6062876a9cb05fa535867e17,676192165fb32c2e1fb7aee6,67d0df53f296cba0fc348327,2025-03-11_22h12.00.737,Tarea de decisión léxica,2024.2.5,Win32,142.8571429,,,,,,,,,,,,,,,,,,,,,,,,247.3289,248.3698,l,1,0.3878,1,248.37,248.8699,,,,,,438,FEM,NOWORD,DIS,150,glava,,el,,0.3878,,248.87,248.8701,0.705733157,0.027508012,0,0,0,,0,43,43,437,1,plaza,,,,
,,,,,,6062876a9cb05fa535867e17,676192165fb32c2e1fb7aee6,67d0df53f296cba0fc348327,2025-03-11_22h12.00.737,Tarea de decisión léxica,2024.2.5,Win32,142.8571429,,,,,,,,,,,,,,,,,,,,,,,,248.8706,249.9742,a,0,0.4477,0,249.9747,250.4743,,,,,,84,FEM,NOWORD,AGR,150,taga,,la,,0.4477,,250.4744,250.4744,0.705733157,0.027508012,0,0,0,,0,44,44,83,1,bala,,,,
,,,,,,6062876a9cb05fa535867e17,676192165fb32c2e1fb7aee6,67d0df53f296cba0fc348327,2025-03-11_22h12.00.737,Tarea de decisión léxica,2024.2.5,Win32,142.8571429,,,,,,,,,,,,,,,,,,,,,,,,250.475,251.5022,a,0,0.3715,0,251.5023,252.0023,,,,,,248,FEM,NOWORD,AGR,150,trida,,la,,0.3715,,252.0028,252.0032,0.705733157,0.027508012,0,0,0,,0,45,45,247,1,chica,,,,
,,,,,,6062876a9cb05fa535867e17,676192165fb32c2e1fb7aee6,67d0df53f296cba0fc348327,2025-03-11_22h12.00.737,Tarea de decisión léxica,2024.2.5,Win32,142.8571429,,,,,,,,,,,,,,,,,,,,,,,,252.0036,252.9537,a,1,0.292,1,252.9542,253.4538,,,,,,371,FEM,WORD,AGR,150,pasta,,la,,0.292,,253.4539,253.4539,0.705733157,0.027508012,0,0,0,,0,46,46,370,1,mosta,,,,
,,,,,,6062876a9cb05fa535867e17,676192165fb32c2e1fb7aee6,67d0df53f296cba0fc348327,2025-03-11_22h12.00.737,Tarea de decisión léxica,2024.2.5,Win32,142.8571429,,,,,,,,,,,,,,,,,,,,,,,,253.4546,254.3011,a,1,0.189,1,254.3012,254.8011,,,,,,435,MAS,WORD,AGR,150,ritmo,,el,,0.189,,254.8012,254.8012,0.705733157,0.027508012,0,0,0,,0,47,47,434,1,ricno,,,,
,,,,,,6062876a9cb05fa535867e17,676192165fb32c2e1fb7aee6,67d0df53f296cba0fc348327,2025-03-11_22h12.00.737,Tarea de decisión léxica,2024.2.5,Win32,142.8571429,,,,,,,,,,,,,,,,,,,,,,,,254.8019,255.6138,a,1,0.1547,1,255.6138,256.1139,,,,,,239,MAS,WORD,AGR,150,mozo,,el,,0.1547,,256.1139,256.1139,0.705733157,0.027508012,0,0,0,,0,48,48,238,1,poño,,,,
,,,,,,6062876a9cb05fa535867e17,676192165fb32c2e1fb7aee6,67d0df53f296cba0fc348327,2025-03-11_22h12.00.737,Tarea de decisión léxica,2024.2.5,Win32,142.8571429,,,,,,,,,,,,,,,,,,,,,,,,256.1145,256.9195,a,1,0.1476,1,256.9195,257.4195,,,,,,251,MAS,WORD,AGR,150,señor,,el,,0.1476,,257.4195,257.4195,0.705733157,0.027508012,0,0,0,,0,49,49,250,1,refor,,,,
,,,,,,6062876a9cb05fa535867e17,676192165fb32c2e1fb7aee6,67d0df53f296cba0fc348327,2025-03-11_22h12.00.737,Tarea de decisión léxica,2024.2.5,Win32,142.8571429,,,,,,,,,,,,,,,,,,,,,,,,257.4201,258.6767,a,0,0.6036,0,258.6772,259.1768,,,,,,256,MAS,NOWORD,AGR,150,mauco,,el,,0.6036,,259.1773,259.1777,0.705733157,0.027508012,0,0,0,,0,50,50,255,1,miedo,,,,
,,,,,,6062876a9cb05fa535867e17,676192165fb32c2e1fb7aee6,67d0df53f296cba0fc348327,2025-03-11_22h12.00.737,Tarea de decisión léxica,2024.2.5,Win32,142.8571429,,,,,,,,,,,,,,,,,,,,,,,,259.178,260.2046,a,1,0.3686,1,260.205,260.7046,,,,,,201,FEM,WORD,DIS,150,cuna,,el,,0.3686,,260.7047,260.7047,0.705733157,0.027508012,0,0,0,,0,51,51,200,1,cusa,,,,
,,,,,,6062876a9cb05fa535867e17,676192165fb32c2e1fb7aee6,67d0df53f296cba0fc348327,2025-03-11_22h12.00.737,Tarea de decisión léxica,2024.2.5,Win32,142.8571429,,,,,,,,,,,,,,,,,,,,,,,,260.7052,261.6006,a,0,0.2395,0,261.601,262.1006,,,,,,204,FEM,NOWORD,AGR,150,beja,,la,,0.2395,,262.1006,262.1007,0.705733157,0.027508012,0,0,0,,0,52,52,203,1,leña,,,,
,,,,,,6062876a9cb05fa535867e17,676192165fb32c2e1fb7aee6,67d0df53f296cba0fc348327,2025-03-11_22h12.00.737,Tarea de decisión léxica,2024.2.5,Win32,142.8571429,,,,,,,,,,,,,,,,,,,,,,,,262.1012,263.1562,a,1,0.3974,1,263.1567,263.6564,,,,,,29,MAS,WORD,DIS,150,modo,,la,,0.3974,,263.6564,263.6564,0.705733157,0.027508012,0,0,0,,0,53,53,28,1,pono,,,,
,,,,,,6062876a9cb05fa535867e17,676192165fb32c2e1fb7aee6,67d0df53f296cba0fc348327,2025-03-11_22h12.00.737,Tarea de decisión léxica,2024.2.5,Win32,142.8571429,,,,,,,,,,,,,,,,,,,,,,,,263.6569,264.8162,l,1,0.5034,1,264.8162,265.3162,,,,,,460,MAS,NOWORD,AGR,150,fraco,,el,,0.5034,,265.3163,265.3163,0.705733157,0.027508012,0,0,0,,0,54,54,459,1,grado,,,,
,,,,,,6062876a9cb05fa535867e17,676192165fb32c2e1fb7aee6,67d0df53f296cba0fc348327,2025-03-11_22h12.00.737,Tarea de decisión léxica,2024.2.5,Win32,142.8571429,,,,,,,,,,,,,,,,,,,,,,,,265.3169,266.5316,l,1,0.561,1,266.5316,267.0317,,,,,,348,FEM,NOWORD,AGR,150,mueza,,la,,0.561,,267.0322,267.0326,0.705733157,0.027508012,0,0,0,,0,55,55,347,1,pieza,,,,
,,,,,,6062876a9cb05fa535867e17,676192165fb32c2e1fb7aee6,67d0df53f296cba0fc348327,2025-03-11_22h12.00.737,Tarea de decisión léxica,2024.2.5,Win32,142.8571429,,,,,,,,,,,,,,,,,,,,,,,,267.0331,268.1151,a,1,0.4281,1,268.1153,268.6153,,,,,,269,MAS,WORD,DIS,150,perro,,la,,0.4281,,268.6153,268.6153,0.705733157,0.027508012,0,0,0,,0,56,56,268,1,mello,,,,
,,,,,,6062876a9cb05fa535867e17,676192165fb32c2e1fb7aee6,67d0df53f296cba0fc348327,2025-03-11_22h12.00.737,Tarea de decisión léxica,2024.2.5,Win32,142.8571429,,,,,,,,,,,,,,,,,,,,,,,,268.6158,269.7821,l,1,0.5114,1,269.7821,270.2821,,,,,,340,MAS,NOWORD,AGR,150,plajo,,el,,0.5114,,270.2822,270.2823,0.705733157,0.027508012,0,0,0,,0,57,57,339,1,brazo,,,,
,,,,,,6062876a9cb05fa535867e17,676192165fb32c2e1fb7aee6,67d0df53f296cba0fc348327,2025-03-11_22h12.00.737,Tarea de decisión léxica,2024.2.5,Win32,142.8571429,,,,,,,,,,,,,,,,,,,,,,,,270.2829,271.3864,a,1,0.4446,1,271.3865,271.8864,,,,,,419,MAS,WORD,AGR,150,truco,,el,,0.4446,,271.8864,271.8864,0.705733157,0.027508012,0,0,0,,0,58,58,418,1,chudo,,,,
,,,,,,6062876a9cb05fa535867e17,676192165fb32c2e1fb7aee6,67d0df53f296cba0fc348327,2025-03-11_22h12.00.737,Tarea de decisión léxica,2024.2.5,Win32,142.8571429,,,,,,,,,,,,,,,,,,,,,,,,271.887,272.9907,l,1,0.4451,1,272.9908,273.4908,,,,,,270,MAS,NOWORD,DIS,150,mello,,la,,0.4451,,273.4913,273.4917,0.705733157,0.027508012,0,0,0,,0,59,59,269,1,perro,,,,
,,,,,,6062876a9cb05fa535867e17,676192165fb32c2e1fb7aee6,67d0df53f296cba0fc348327,2025-03-11_22h12.00.737,Tarea de decisión léxica,2024.2.5,Win32,142.8571429,,,,,,,,,,,,,,,,,,,,,,,,273.492,274.4771,a,1,0.3289,1,274.4771,274.9771,,,,,,291,FEM,WORD,AGR,150,pista,,la,,0.3289,,274.9771,274.9772,0.705733157,0.027508012,0,0,0,,0,60,60,290,1,mesta,,,,
,,,,,,6062876a9cb05fa535867e17,676192165fb32c2e1fb7aee6,67d0df53f296cba0fc348327,2025-03-11_22h12.00.737,Tarea de decisión léxica,2024.2.5,Win32,142.8571429,,,,,,,,,,,,,,,,,,,,,,,,274.9778,275.9703,a,1,0.339,1,275.9703,276.4702,,,,,,51,FEM,WORD,AGR,150,caja,,la,,0.339,,276.4703,276.4704,0.705733157,0.027508012,0,0,0,,0,61,61,50,1,mava,,,,
,,,,,,6062876a9cb05fa535867e17,676192165fb32c2e1fb7aee6,67d0df53f296cba0fc348327,2025-03-11_22h12.00.737,Tarea de decisión léxica,2024.2.5,Win32,142.8571429,,,,,,,,,,,,,,,,,,,,,,,,276.471,277.4981,a,1,0.3688,1,277.4982,277.9983,,,,,,199,MAS,WORD,AGR,150,lazo,,el,,0.3688,,277.9983,277.9984,0.705733157,0.027508012,0,0,0,,0,62,62,198,1,fano,,,,
,,,,,,6062876a9cb05fa535867e17,676192165fb32c2e1fb7aee6,67d0df53f296cba0fc348327,2025-03-11_22h12.00.737,Tarea de decisión léxica,2024.2.5,Win32,142.8571429,,,,,,,,,,,,,,,,,,,,,,,,277.9992,278.9427,l,1,0.2851,1,278.9428,279.4428,,,,,,16,FEM,NOWORD,AGR,150,odea,,la,,0.2851,,279.4429,279.443,0.705733157,0.027508012,0,0,0,,0,63,63,15,1,idea,,,,
,,,,,,6062876a9cb05fa535867e17,676192165fb32c2e1fb7aee6,67d0df53f296cba0fc348327,2025-03-11_22h12.00.737,Tarea de decisión léxica,2024.2.5,Win32,142.8571429,,,,,,,,,,,,,,,,,,,,,,,,279.4436,280.4082,a,1,0.3091,1,280.4083,280.9082,,,,,,311,MAS,WORD,AGR,150,honor,,el,,0.3091,,280.9089,280.9091,0.705733157,0.027508012,0,0,0,,0,64,64,310,1,nosor,,,,
,,,,,,6062876a9cb05fa535867e17,676192165fb32c2e1fb7aee6,67d0df53f296cba0fc348327,2025-03-11_22h12.00.737,Tarea de decisión léxica,2024.2.5,Win32,142.8571429,,,,,,,,,,,,,,,,,,,,,,,,280.9095,281.8389,a,1,0.2755,1,281.839,282.339,,,,,,3,FEM,WORD,AGR,150,vida,,la,,0.2755,,282.339,282.3391,0.705733157,0.027508012,0,0,0,,0,65,65,2,1,dica,,,,
,,,,,,6062876a9cb05fa535867e17,676192165fb32c2e1fb7aee6,67d0df53f296cba0fc348327,2025-03-11_22h12.00.737,Tarea de decisión léxica,2024.2.5,Win32,142.8571429,,,,,,,,,,,,,,,,,,,,,,,,282.3398,283.3738,l,1,0.3809,1,283.3738,283.8739,,,,,,150,MAS,NOWORD,DIS,150,pafo,,la,,0.3809,,283.8739,283.8739,0.705733157,0.027508012,0,0,0,,0,66,66,149,1,cabo,,,,
,,,,,,6062876a9cb05fa535867e17,676192165fb32c2e1fb7aee6,67d0df53f296cba0fc348327,2025-03-11_22h12.00.737,Tarea de decisión léxica,2024.2.5,Win32,142.8571429,,,,,,,,,,,,,,,,,,,,,,,,283.8744,285.0059,l,1,0.473,1,285.006,285.506,,,,,,278,MAS,NOWORD,DIS,150,vuemo,,la,,0.473,,285.5061,285.5061,0.705733157,0.027508012,0,0,0,,0,67,67,277,1,fuego,,,,
,,,,,,6062876a9cb05fa535867e17,676192165fb32c2e1fb7aee6,67d0df53f296cba0fc348327,2025-03-11_22h12.00.737,Tarea de decisión léxica,2024.2.5,Win32,142.8571429,,,,,,,,,,,,,,,,,,,,,,,,285.5066,286.4436,a,1,0.2824,1,286.4437,286.9437,,,,,,1,FEM,WORD,DIS,150,casa,,el,,0.2824,,286.9437,286.9437,0.705733157,0.027508012,0,0,0,,0,68,68,0,1,mada,,,,
,,,,,,6062876a9cb05fa535867e17,676192165fb32c2e1fb7aee6,67d0df53f296cba0fc348327,2025-03-11_22h12.00.737,Tarea de decisión léxica,2024.2.5,Win32,142.8571429,,,,,,,,,,,,,,,,,,,,,,,,286.9443,287.9716,l,1,0.3714,1,287.9716,288.4717,,,,,,376,FEM,NOWORD,AGR,150,sasna,,la,,0.3714,,288.4723,288.4727,0.705733157,0.027508012,0,0,0,,0,69,69,375,1,salsa,,,,
,,,,,,6062876a9cb05fa535867e17,676192165fb32c2e1fb7aee6,67d0df53f296cba0fc348327,2025-03-11_22h12.00.737,Tarea de decisión léxica,2024.2.5,Win32,142.8571429,,,,,,,,,,,,,,,,,,,,,,,,288.473,289.3954,a,1,0.2665,1,289.3955,289.8954,,,,,,399,MAS,WORD,AGR,150,techo,,el,,0.2665,,289.8954,289.8954,0.705733157,0.027508012,0,0,0,,0,70,70,398,1,serro,,,,
,,,,,,6062876a9cb05fa535867e17,676192165fb32c2e1fb7aee6,67d0df53f296cba0fc348327,2025-03-11_22h12.00.737,Tarea de decisión léxica,2024.2.5,Win32,142.8571429,,,,,,,,,,,,,,,,,,,,,,,,289.896,290.7913,a,1,0.2382,1,290.7914,291.2913,,,,,,293,MAS,WORD,DIS,150,campo,,la,,0.2382,,291.2913,291.2915,0.705733157,0.027508012,0,0,0,,0,71,71,292,1,cacso,,,,
,,,,,,6062876a9cb05fa535867e17,676192165fb32c2e1fb7aee6,67d0df53f296cba0fc348327,2025-03-11_22h12.00.737,Tarea de decisión léxica,2024.2.5,Win32,142.8571429,,,,,,,,,,,,,,,,,,,,,,,,291.2921,292.368,a,1,0.4188,1,292.368,292.868,,,,,,387,FEM,WORD,AGR,150,crema,,la,,0.4188,,292.868,292.868,0.705733157,0.027508012,0,0,0,,0,72,72,386,1,bresa,,,,
,,,,,,6062876a9cb05fa535867e17,676192165fb32c2e1fb7aee6,67d0df53f296cba0fc348327,2025-03-11_22h12.00.737,Tarea de decisión léxica,2024.2.5,Win32,142.8571429,,,,,,,,,,,,,,,,,,,,,,,,292.8688,293.7708,a,1,0.2452,1,293.7709,294.271,,,,,,305,MAS,WORD,DIS,150,avión,,la,,0.2452,,294.271,294.271,0.705733157,0.027508012,0,0,0,,0,73,73,304,1,adiol,,,,
,,,,,,6062876a9cb05fa535867e17,676192165fb32c2e1fb7aee6,67d0df53f296cba0fc348327,2025-03-11_22h12.00.737,Tarea de decisión léxica,2024.2.5,Win32,142.8571429,,,,,,,,,,,,,,,,,,,,,,,,294.2715,295.5488,a,1,0.6243,1,295.5489,296.0489,,,,,,137,MAS,WORD,DIS,150,nene,,la,,0.6243,,296.0496,296.0499,0.705733157,0.027508012,0,0,0,,0,74,74,136,1,pamo,,,,
,,,,,,6062876a9cb05fa535867e17,676192165fb32c2e1fb7aee6,67d0df53f296cba0fc348327,2025-03-11_22h12.00.737,Tarea de decisión léxica,2024.2.5,Win32,142.8571429,,,,,,,,,,,,,,,,,,,,,,,,296.0504,297.1393,l,1,0.4315,1,297.1393,297.6393,,,,,,470,MAS,NOWORD,DIS,150,matia,,la,,0.4315,,297.6393,297.6394,0.705733157,0.027508012,0,0,0,,0,75,75,469,1,patio,,,,
,,,,,,6062876a9cb05fa535867e17,676192165fb32c2e1fb7aee6,67d0df53f296cba0fc348327,2025-03-11_22h12.00.737,Tarea de decisión léxica,2024.2.5,Win32,142.8571429,,,,,,,,,,,,,,,,,,,,,,,,297.6399,298.7923,l,1,0.4972,1,298.7923,299.2923,,,,,,254,MAS,NOWORD,DIS,150,trido,,la,,0.4972,,299.2923,299.2923,0.705733157,0.027508012,0,0,0,,0,76,76,253,1,chico,,,,
,,,,,,6062876a9cb05fa535867e17,676192165fb32c2e1fb7aee6,67d0df53f296cba0fc348327,2025-03-11_22h12.00.737,Tarea de decisión léxica,2024.2.5,Win32,142.8571429,,,,,,,,,,,,,,,,,,,,,,,,299.2929,300.3549,a,1,0.4041,1,300.355,300.855,,,,,,119,MAS,WORD,AGR,150,pozo,,el,,0.4041,,300.855,300.855,0.705733157,0.027508012,0,0,0,,0,77,77,118,1,hooy,,,,
,,,,,,6062876a9cb05fa535867e17,676192165fb32c2e1fb7aee6,67d0df53f296cba0fc348327,2025-03-11_22h12.00.737,Tarea de decisión léxica,2024.2.5,Win32,142.8571429,,,,,,,,,,,,,,,,,,,,,,,,300.8556,301.9871,l,1,0.4772,1,301.9871,302.4872,,,,,,422,MAS,NOWORD,DIS,150,griso,,la,,0.4772,,302.4872,302.4872,0.705733157,0.027508012,0,0,0,,0,78,78,421,1,primo,,,,
,,,,,,6062876a9cb05fa535867e17,676192165fb32c2e1fb7aee6,67d0df53f296cba0fc348327,2025-03-11_22h12.00.737,Tarea de decisión léxica,2024.2.5,Win32,142.8571429,,,,,,,,,,,,,,,,,,,,,,,,302.488,303.4526,a,1,0.3116,1,303.4526,303.9526,,,,,,211,FEM,WORD,AGR,150,joya,,la,,0.3116,,303.9531,303.9534,0.705733157,0.027508012,0,0,0,,0,79,79,210,1,joad,,,,
,,,,,,6062876a9cb05fa535867e17,676192165fb32c2e1fb7aee6,67d0df53f296cba0fc348327,2025-03-11_22h12.00.737,Tarea de decisión léxica,2024.2.5,Win32,142.8571429,,,,,,,,,,,,,,,,,,,,,,,,303.9538,304.911,l,1,0.303,1,304.911,305.411,,,,,,48,MAS,NOWORD,AGR,150,chub,,el,,0.303,,305.4111,305.4111,0.705733157,0.027508012,0,0,0,,0,80,80,47,1,club,,,,
,,,,,,6062876a9cb05fa535867e17,676192165fb32c2e1fb7aee6,67d0df53f296cba0fc348327,2025-03-11_22h12.00.737,Tarea de decisión léxica,2024.2.5,Win32,142.8571429,,,,,,,,,,,,,,,,,,,,,,,,305.4118,306.5223,l,1,0.4547,1,306.5223,307.0224,,,,,,368,MAS,NOWORD,AGR,150,rerob,,el,,0.4547,,307.0224,307.0224,0.705733157,0.027508012,0,0,0,,0,81,81,367,1,reloj,,,,
,,,,,,6062876a9cb05fa535867e17,676192165fb32c2e1fb7aee6,67d0df53f296cba0fc348327,2025-03-11_22h12.00.737,Tarea de decisión léxica,2024.2.5,Win32,142.8571429,,,,,,,,,,,,,,,,,,,,,,,,307.0231,308.1198,l,1,0.4434,1,308.1198,308.6198,,,,,,236,FEM,NOWORD,AGR,150,tria,,la,,0.4434,,308.6198,308.6198,0.705733157,0.027508012,0,0,0,,0,82,82,235,1,grúa,,,,
,,,,,,6062876a9cb05fa535867e17,676192165fb32c2e1fb7aee6,67d0df53f296cba0fc348327,2025-03-11_22h12.00.737,Tarea de decisión léxica,2024.2.5,Win32,142.8571429,,,,,,,,,,,,,,,,,,,,,,,,308.6203,309.592,a,1,0.3176,1,309.5921,310.0922,,,,,,103,FEM,WORD,AGR,150,ruta,,la,,0.3176,,310.0927,310.0931,0.705733157,0.027508012,0,0,0,,0,83,83,102,1,rova,,,,
,,,,,,6062876a9cb05fa535867e17,676192165fb32c2e1fb7aee6,67d0df53f296cba0fc348327,2025-03-11_22h12.00.737,Tarea de decisión léxica,2024.2.5,Win32,142.8571429,,,,,,,,,,,,,,,,,,,,,,,,310.0935,311.259,l,0,0.5087,0,311.2595,311.759,,,,,,209,MAS,WORD,DIS,150,velo,,la,,0.5087,,311.759,311.7591,0.705733157,0.027508012,0,0,0,,0,84,84,208,1,dero,,,,
,,,,,,6062876a9cb05fa535867e17,676192165fb32c2e1fb7aee6,67d0df53f296cba0fc348327,2025-03-11_22h12.00.737,Tarea de decisión léxica,2024.2.5,Win32,142.8571429,,,,,,,,,,,,,,,,,,,,,,,,311.7597,312.8494,l,1,0.4341,1,312.8498,313.3494,,,,,,100,MAS,NOWORD,AGR,150,soro,,el,,0.4341,,313.3494,313.3495,0.705733157,0.027508012,0,0,0,,0,85,85,99,1,lobo,,,,
,,,,,,6062876a9cb05fa535867e17,676192165fb32c2e1fb7aee6,67d0df53f296cba0fc348327,2025-03-11_22h12.00.737,Tarea de decisión léxica,2024.2.5,Win32,142.8571429,,,,,,,,,,,,,,,,,,,,,,,,313.35,314.4676,l,1,0.463,1,314.4676,314.9676,,,,,,46,FEM,NOWORD,DIS,150,pema,,el,,0.463,,314.9677,314.9677,0.705733157,0.027508012,0,0,0,,0,86,86,45,1,mesa,,,,
,,,,,,6062876a9cb05fa535867e17,676192165fb32c2e1fb7aee6,67d0df53f296cba0fc348327,2025-03-11_22h12.00.737,Tarea de decisión léxica,2024.2.5,Win32,142.8571429,,,,,,,,,,,,,,,,,,,,,,,,314.9683,316.2386,l,1,0.6153,1,316.2387,316.7387,,,,,,226,MAS,NOWORD,DIS,150,boco,,la,,0.6153,,316.7388,316.7388,0.705733157,0.027508012,0,0,0,,0,87,87,225,1,lodo,,,,
,,,,,,6062876a9cb05fa535867e17,676192165fb32c2e1fb7aee6,67d0df53f296cba0fc348327,2025-03-11_22h12.00.737,Tarea de decisión léxica,2024.2.5,Win32,142.8571429,,,,,,,,,,,,,,,,,,,,,,,,316.7394,317.7946,a,1,0.4024,1,317.7946,318.2944,,,,,,111,MAS,WORD,AGR,150,muro,,el,,0.4024,,318.2949,318.2954,0.705733157,0.027508012,0,0,0,,0,88,88,110,1,siro,,,,
,,,,,,6062876a9cb05fa535867e17,676192165fb32c2e1fb7aee6,67d0df53f296cba0fc348327,2025-03-11_22h12.00.737,Tarea de decisión léxica,2024.2.5,Win32,142.8571429,,,,,,,,,,,,,,,,,,,,,,,,318.2958,319.3432,l,1,0.3911,1,319.3432,319.8433,,,,,,468,MAS,NOWORD,AGR,150,peiso,,el,,0.3911,,319.8433,319.8433,0.705733157,0.027508012,0,0,0,,0,89,89,467,1,piano,,,,
,,,,,,6062876a9cb05fa535867e17,676192165fb32c2e1fb7aee6,67d0df53f296cba0fc348327,2025-03-11_22h12.00.737,Tarea de decisión léxica,2024.2.5,Win32,142.8571429,,,,,,,,,,,,,,,,,,,,,,,,319.8438,321.0517,l,1,0.55,1,321.0517,321.5517,,,,,,228,MAS,NOWORD,AGR,150,laro,,el,,0.55,,321.5518,321.5518,0.705733157,0.027508012,0,0,0,,0,90,90,227,1,faro,,,,
,,,,,,6062876a9cb05fa535867e17,676192165fb32c2e1fb7aee6,67d0df53f296cba0fc348327,2025-03-11_22h12.00.737,Tarea de decisión léxica,2024.2.5,Win32,142.8571429,,,,,,,,,,,,,,,,,,,,,,,,321.5522,322.7602,l,1,0.5516,1,322.7603,323.2603,,,,,,132,FEM,NOWORD,AGR,150,fada,,la,,0.5516,,323.2603,323.2604,0.705733157,0.027508012,0,0,0,,0,91,91,131,1,mina,,,,
,,,,,,6062876a9cb05fa535867e17,676192165fb32c2e1fb7aee6,67d0df53f296cba0fc348327,2025-03-11_22h12.00.737,Tarea de decisión léxica,2024.2.5,Win32,142.8571429,,,,,,,,,,,,,,,,,,,,,,,,323.2609,324.309,l,1,0.3895,1,324.3091,324.809,,,,,,300,FEM,NOWORD,AGR,150,bosga,,la,,0.3895,,324.8091,324.8091,0.705733157,0.027508012,0,0,0,,0,92,92,299,1,bolsa,,,,
,,,,,,6062876a9cb05fa535867e17,676192165fb32c2e1fb7aee6,67d0df53f296cba0fc348327,2025-03-11_22h12.00.737,Tarea de decisión léxica,2024.2.5,Win32,142.8571429,,,,,,,,,,,,,,,,,,,,,,,,324.8097,325.9411,l,1,0.4764,1,325.9412,326.4412,,,,,,240,MAS,NOWORD,AGR,150,poño,,el,,0.4764,,326.4417,326.4421,0.705733157,0.027508012,0,0,0,,0,93,93,239,1,mozo,,,,
,,,,,,6062876a9cb05fa535867e17,676192165fb32c2e1fb7aee6,67d0df53f296cba0fc348327,2025-03-11_22h12.00.737,Tarea de decisión léxica,2024.2.5,Win32,142.8571429,,,,,,,,,,,,,,,,,,,,,,,,326.4424,327.5385,l,1,0.4377,1,327.5386,328.0386,,,,,,294,MAS,NOWORD,DIS,150,cacso,,la,,0.4377,,328.0386,328.0387,0.705733157,0.027508012,0,0,0,,0,94,94,293,1,campo,,,,
,,,,,,6062876a9cb05fa535867e17,676192165fb32c2e1fb7aee6,67d0df53f296cba0fc348327,2025-03-11_22h12.00.737,Tarea de decisión léxica,2024.2.5,Win32,142.8571429,,,,,,,,,,,,,,,,,,,,,,,,328.0392,329.0664,a,1,0.3688,1,329.0665,329.5666,,,,,,475,FEM,WORD,AGR,150,manta,,la,,0.3688,,329.5666,329.5667,0.705733157,0.027508012,0,0,0,,0,95,95,474,1,mucta,,,,
,,,,,,6062876a9cb05fa535867e17,676192165fb32c2e1fb7aee6,67d0df53f296cba0fc348327,2025-03-11_22h12.00.737,Tarea de decisión léxica,2024.2.5,Win32,142.8571429,,,,,,,,,,,,,,,,,,,,,,,,329.5672,330.6292,l,1,0.409,1,330.6292,331.1292,,,,,,68,FEM,NOWORD,AGR,150,gesa,,la,,0.409,,331.1292,331.1293,0.705733157,0.027508012,0,0,0,,0,96,96,67,1,nena,,,,
,,,,,,6062876a9cb05fa535867e17,676192165fb32c2e1fb7aee6,67d0df53f296cba0fc348327,2025-03-11_22h12.00.737,Tarea de decisión léxica,2024.2.5,Win32,142.8571429,,,,,,,,,,,,,,,,,,,,,,,,331.1298,332.3586,l,1,0.5744,1,332.3586,332.8586,,,,,,288,FEM,NOWORD,AGR,150,fosta,,la,,0.5744,,332.8586,332.8587,0.705733157,0.027508012,0,0,0,,0,97,97,287,1,lista,,,,
,,,,,,6062876a9cb05fa535867e17,676192165fb32c2e1fb7aee6,67d0df53f296cba0fc348327,2025-03-11_22h12.00.737,Tarea de decisión léxica,2024.2.5,Win32,142.8571429,,,,,,,,,,,,,,,,,,,,,,,,332.8593,333.8726,a,1,0.358,1,333.8727,334.3727,,,,,,341,MAS,WORD,DIS,150,valor,,la,,0.358,,334.3733,334.3737,0.705733157,0.027508012,0,0,0,,0,98,98,340,1,daror,,,,
,,,,,,6062876a9cb05fa535867e17,676192165fb32c2e1fb7aee6,67d0df53f296cba0fc348327,2025-03-11_22h12.00.737,Tarea de decisión léxica,2024.2.5,Win32,142.8571429,,,,,,,,,,,,,,,,,,,,,,,,334.3743,335.4353,a,1,0.4078,1,335.4353,335.9353,,,,,,207,MAS,WORD,AGR,150,kilo,,el,,0.4078,,335.9354,335.9354,0.705733157,0.027508012,0,0,0,,0,99,99,206,1,kedo,,,,
,,,,,,6062876a9cb05fa535867e17,676192165fb32c2e1fb7aee6,67d0df53f296cba0fc348327,2025-03-11_22h12.00.737,Tarea de decisión léxica,2024.2.5,Win32,142.8571429,,,,,,,,,,,,,,,,,,,,,,,,335.9359,336.9215,a,1,0.3268,1,336.9215,337.4216,,,,,,321,MAS,WORD,DIS,150,banco,,la,,0.3268,,337.4216,337.4216,0.705733157,0.027508012,0,0,0,,0,100,100,320,1,rarco,,,,
,,,,,,6062876a9cb05fa535867e17,676192165fb32c2e1fb7aee6,67d0df53f296cba0fc348327,2025-03-11_22h12.00.737,Tarea de decisión léxica,2024.2.5,Win32,142.8571429,,,,,,,,,,,,,,,,,,,,,,,,337.4221,338.3801,a,1,0.3013,1,338.3801,338.8801,,,,,,409,MAS,WORD,DIS,150,carro,,la,,0.3013,,338.8801,338.8802,0.705733157,0.027508012,0,0,0,,0,101,101,408,1,pafro,,,,
,,,,,,6062876a9cb05fa535867e17,676192165fb32c2e1fb7aee6,67d0df53f296cba0fc348327,2025-03-11_22h12.00.737,Tarea de decisión léxica,2024.2.5,Win32,142.8571429,,,,,,,,,,,,,,,,,,,,,,,,338.8808,339.8316,a,1,0.2931,1,339.8316,340.3317,,,,,,63,FEM,WORD,AGR,150,luna,,la,,0.2931,,340.3317,340.3318,0.705733157,0.027508012,0,0,0,,0,102,102,62,1,funa,,,,
,,,,,,6062876a9cb05fa535867e17,676192165fb32c2e1fb7aee6,67d0df53f296cba0fc348327,2025-03-11_22h12.00.737,Tarea de decisión léxica,2024.2.5,Win32,142.8571429,,,,,,,,,,,,,,,,,,,,,,,,340.3324,341.4984,l,1,0.5114,1,341.4985,341.9985,,,,,,102,MAS,NOWORD,DIS,150,gito,,la,,0.5114,,341.9991,341.9995,0.705733157,0.027508012,0,0,0,,0,103,103,101,1,tono,,,,
,,,,,,6062876a9cb05fa535867e17,676192165fb32c2e1fb7aee6,67d0df53f296cba0fc348327,2025-03-11_22h12.00.737,Tarea de decisión léxica,2024.2.5,Win32,142.8571429,,,,,,,,,,,,,,,,,,,,,,,,342.0002,343.207,l,1,0.5499,1,343.207,343.707,,,,,,280,FEM,NOWORD,AGR,150,grina,,la,,0.5499,,343.707,343.7071,0.705733157,0.027508012,0,0,0,,0,104,104,279,1,prisa,,,,
,,,,,,6062876a9cb05fa535867e17,676192165fb32c2e1fb7aee6,67d0df53f296cba0fc348327,2025-03-11_22h12.00.737,Tarea de decisión léxica,2024.2.5,Win32,142.8571429,,,,,,,,,,,,,,,,,,,,,,,,343.7077,344.7002,a,1,0.339,1,344.7002,345.2003,,,,,,15,FEM,WORD,AGR,150,idea,,la,,0.339,,345.2003,345.2003,0.705733157,0.027508012,0,0,0,,0,105,105,14,1,odea,,,,
,,,,,,6062876a9cb05fa535867e17,676192165fb32c2e1fb7aee6,67d0df53f296cba0fc348327,2025-03-11_22h12.00.737,Tarea de decisión léxica,2024.2.5,Win32,142.8571429,,,,,,,,,,,,,,,,,,,,,,,,345.2009,346.2559,l,1,0.3974,1,346.2559,346.756,,,,,,404,FEM,NOWORD,AGR,150,grisa,,la,,0.3974,,346.756,346.7561,0.705733157,0.027508012,0,0,0,,0,106,106,403,1,prima,,,,
,,,,,,6062876a9cb05fa535867e17,676192165fb32c2e1fb7aee6,67d0df53f296cba0fc348327,2025-03-11_22h12.00.737,Tarea de decisión léxica,2024.2.5,Win32,142.8571429,,,,,,,,,,,,,,,,,,,,,,,,346.7567,347.77,a,1,0.3562,1,347.7701,348.2701,,,,,,177,MAS,WORD,DIS,150,reto,,la,,0.3562,,348.2706,348.271,0.705733157,0.027508012,0,0,0,,0,107,107,176,1,bito,,,,
,,,,,,6062876a9cb05fa535867e17,676192165fb32c2e1fb7aee6,67d0df53f296cba0fc348327,2025-03-11_22h12.00.737,Tarea de decisión léxica,2024.2.5,Win32,142.8571429,,,,,,,,,,,,,,,,,,,,,,,,348.2714,349.3396,a,1,0.4152,1,349.3397,349.8396,,,,,,53,FEM,WORD,DIS,150,boda,,el,,0.4152,,349.8397,349.8397,0.705733157,0.027508012,0,0,0,,0,108,108,52,1,rora,,,,
,,,,,,6062876a9cb05fa535867e17,676192165fb32c2e1fb7aee6,67d0df53f296cba0fc348327,2025-03-11_22h12.00.737,Tarea de decisión léxica,2024.2.5,Win32,142.8571429,,,,,,,,,,,,,,,,,,,,,,,,349.8402,350.7564,a,1,0.2618,1,350.7565,351.2565,,,,,,375,FEM,WORD,AGR,150,salsa,,la,,0.2618,,351.2565,351.2565,0.705733157,0.027508012,0,0,0,,0,109,109,374,1,sasna,,,,
,,,,,,6062876a9cb05fa535867e17,676192165fb32c2e1fb7aee6,67d0df53f296cba0fc348327,2025-03-11_22h12.00.737,Tarea de decisión léxica,2024.2.5,Win32,142.8571429,,,,,,,,,,,,,,,,,,,,,,,,351.257,352.1525,a,1,0.2409,1,352.1525,352.6525,,,,,,437,FEM,WORD,DIS,150,plaza,,el,,0.2409,,352.6525,352.6526,0.705733157,0.027508012,0,0,0,,0,110,110,436,1,glava,,,,
,,,,,,6062876a9cb05fa535867e17,676192165fb32c2e1fb7aee6,67d0df53f296cba0fc348327,2025-03-11_22h12.00.737,Tarea de decisión léxica,2024.2.5,Win32,142.8571429,,,,,,,,,,,,,,,,,,,,,,,,352.6531,353.6595,l,1,0.3489,1,353.6596,354.1596,,,,,,312,MAS,NOWORD,AGR,150,nosor,,el,,0.3489,,354.1597,354.1597,0.705733157,0.027508012,0,0,0,,0,111,111,311,1,honor,,,,
,,,,,,6062876a9cb05fa535867e17,676192165fb32c2e1fb7aee6,67d0df53f296cba0fc348327,2025-03-11_22h12.00.737,Tarea de decisión léxica,2024.2.5,Win32,142.8571429,,,,,,,,,,,,,,,,,,,,,,,,354.1602,355.257,l,1,0.4385,1,355.257,355.757,,,,,,170,MAS,NOWORD,DIS,150,mibo,,la,,0.4385,,355.7576,355.758,0.705733157,0.027508012,0,0,0,,0,112,112,169,1,cubo,,,,
,,,,,,6062876a9cb05fa535867e17,676192165fb32c2e1fb7aee6,67d0df53f296cba0fc348327,2025-03-11_22h12.00.737,Tarea de decisión léxica,2024.2.5,Win32,142.8571429,,,,,,,,,,,,,,,,,,,,,,,,355.7584,356.6529,a,1,0.2417,1,356.653,357.1529,,,,,,263,FEM,WORD,AGR,150,vista,,la,,0.2417,,357.153,357.1531,0.705733157,0.027508012,0,0,0,,0,113,113,262,1,dosta,,,,
,,,,,,6062876a9cb05fa535867e17,676192165fb32c2e1fb7aee6,67d0df53f296cba0fc348327,2025-03-11_22h12.00.737,Tarea de decisión léxica,2024.2.5,Win32,142.8571429,,,,,,,,,,,,,,,,,,,,,,,,357.1536,358.1948,a,1,0.3874,1,358.1948,358.6949,,,,,,47,MAS,WORD,AGR,150,club,,el,,0.3874,,358.6949,358.6949,0.705733157,0.027508012,0,0,0,,0,114,114,46,1,chub,,,,
,,,,,,6062876a9cb05fa535867e17,676192165fb32c2e1fb7aee6,67d0df53f296cba0fc348327,2025-03-11_22h12.00.737,Tarea de decisión léxica,2024.2.5,Win32,142.8571429,,,,,,,,,,,,,,,,,,,,,,,,358.6955,359.6602,l,1,0.3098,1,359.6603,360.1603,,,,,,12,MAS,NOWORD,AGR,150,bapo,,el,,0.3098,,360.1603,360.1604,0.705733157,0.027508012,0,0,0,,0,115,115,11,1,lado,,,,
,,,,,,6062876a9cb05fa535867e17,676192165fb32c2e1fb7aee6,67d0df53f296cba0fc348327,2025-03-11_22h12.00.737,Tarea de decisión léxica,2024.2.5,Win32,142.8571429,,,,,,,,,,,,,,,,,,,,,,,,360.1608,361.2507,l,1,0.4314,1,361.2508,361.7507,,,,,,222,FEM,NOWORD,DIS,150,puca,,el,,0.4314,,361.7507,361.7508,0.705733157,0.027508012,0,0,0,,0,116,116,221,1,mula,,,,
,,,,,,6062876a9cb05fa535867e17,676192165fb32c2e1fb7aee6,67d0df53f296cba0fc348327,2025-03-11_22h12.00.737,Tarea de decisión léxica,2024.2.5,Win32,142.8571429,,,,,,,,,,,,,,,,,,,,,,,,361.7513,362.7647,l,1,0.355,1,362.7647,363.2648,,,,,,50,FEM,NOWORD,DIS,150,ecat,,el,,0.355,,363.2653,363.2656,0.705733157,0.027508012,0,0,0,,0,117,117,49,1,edad,,,,
,,,,,,6062876a9cb05fa535867e17,676192165fb32c2e1fb7aee6,67d0df53f296cba0fc348327,2025-03-11_22h12.00.737,Tarea de decisión léxica,2024.2.5,Win32,142.8571429,,,,,,,,,,,,,,,,,,,,,,,,363.266,364.2024,a,1,0.2828,1,364.2024,364.7024,,,,,,167,FEM,WORD,AGR,150,jefa,,la,,0.2828,,364.7024,364.7025,0.705733157,0.027508012,0,0,0,,0,118,118,166,1,zifa,,,,
,,,,,,6062876a9cb05fa535867e17,676192165fb32c2e1fb7aee6,67d0df53f296cba0fc348327,2025-03-11_22h12.00.737,Tarea de decisión léxica,2024.2.5,Win32,142.8571429,,,,,,,,,,,,,,,,,,,,,,,,364.703,365.8068,l,1,0.4454,1,365.8068,366.3068,,,,,,344,FEM,NOWORD,AGR,150,trada,,la,,0.4454,,366.3068,366.3068,0.705733157,0.027508012,0,0,0,,0,119,119,343,1,plata,,,,
,,,,,,6062876a9cb05fa535867e17,676192165fb32c2e1fb7aee6,67d0df53f296cba0fc348327,2025-03-11_22h12.00.737,Tarea de decisión léxica,2024.2.5,Win32,142.8571429,,,,,,,,,,,,,,,,,,,,,,,,366.3074,367.4181,l,1,0.4534,1,367.4182,367.918,,,,,,172,MAS,NOWORD,AGR,150,niro,,el,,0.4534,,367.9181,367.9181,0.705733157,0.027508012,0,0,0,,0,120,120,171,1,hilo,,,,
,,,,,,6062876a9cb05fa535867e17,676192165fb32c2e1fb7aee6,67d0df53f296cba0fc348327,2025-03-11_22h12.00.737,Tarea de decisión léxica,2024.2.5,Win32,142.8571429,,,,,,,,,,,,,,,,,,,,,,,,367.9186,369.0017,l,1,0.4279,1,369.0017,369.5017,,,,,,434,MAS,NOWORD,DIS,150,durco,,la,,0.4279,,369.5017,369.5017,0.705733157,0.027508012,0,0,0,,0,121,121,433,1,disco,,,,
,,,,,,6062876a9cb05fa535867e17,676192165fb32c2e1fb7aee6,67d0df53f296cba0fc348327,2025-03-11_22h12.00.737,Tarea de decisión léxica,2024.2.5,Win32,142.8571429,,,,,,,,,,,,,,,,,,,,,,,,369.5024,370.6128,a,1,0.4542,1,370.6129,371.1128,,,,,,261,MAS,WORD,DIS,150,sitio,,la,,0.4542,,371.1134,371.1137,0.705733157,0.027508012,0,0,0,,0,122,122,260,1,titio,,,,
,,,,,,6062876a9cb05fa535867e17,676192165fb32c2e1fb7aee6,67d0df53f296cba0fc348327,2025-03-11_22h12.00.737,Tarea de decisión léxica,2024.2.5,Win32,142.8571429,,,,,,,,,,,,,,,,,,,,,,,,371.1141,372.1686,l,0,0.3964,0,372.169,372.6687,,,,,,217,MAS,WORD,DIS,150,luto,,la,,0.3964,,372.6687,372.6687,0.705733157,0.027508012,0,0,0,,0,123,123,216,1,budo,,,,
,,,,,,6062876a9cb05fa535867e17,676192165fb32c2e1fb7aee6,67d0df53f296cba0fc348327,2025-03-11_22h12.00.737,Tarea de decisión léxica,2024.2.5,Win32,142.8571429,,,,,,,,,,,,,,,,,,,,,,,,372.6693,373.7244,a,0,0.4005,0,373.7244,374.2244,,,,,,64,FEM,NOWORD,AGR,150,funa,,la,,0.4005,,374.2245,374.2245,0.705733157,0.027508012,0,0,0,,0,124,124,63,1,luna,,,,
,,,,,,6062876a9cb05fa535867e17,676192165fb32c2e1fb7aee6,67d0df53f296cba0fc348327,2025-03-11_22h12.00.737,Tarea de decisión léxica,2024.2.5,Win32,142.8571429,,,,,,,,,,,,,,,,,,,,,,,,374.2251,375.2592,a,1,0.3778,1,375.2596,375.7592,,,,,,257,FEM,WORD,DIS,150,amiga,,el,,0.3778,,375.7593,375.7593,0.705733157,0.027508012,0,0,0,,0,125,125,256,1,asama,,,,
,,,,,,6062876a9cb05fa535867e17,676192165fb32c2e1fb7aee6,67d0df53f296cba0fc348327,2025-03-11_22h12.00.737,Tarea de decisión léxica,2024.2.5,Win32,142.8571429,,,,,,,,,,,,,,,,,,,,,,,,375.7599,376.8913,l,1,0.4725,1,376.8914,377.3914,,,,,,424,MAS,NOWORD,AGR,150,quigo,,el,,0.4725,,377.3914,377.3914,0.705733157,0.027508012,0,0,0,,0,126,126,423,1,queso,,,,
,,,,,,6062876a9cb05fa535867e17,676192165fb32c2e1fb7aee6,67d0df53f296cba0fc348327,2025-03-11_22h12.00.737,Tarea de decisión léxica,2024.2.5,Win32,142.8571429,,,,,,,,,,,,,,,,,,,,,,,,377.3921,378.5026,a,1,0.4521,1,378.5027,379.0026,,,,,,301,FEM,WORD,DIS,150,banda,,el,,0.4521,,379.0032,379.0036,0.705733157,0.027508012,0,0,0,,0,127,127,300,1,ranga,,,,
,,,,,,6062876a9cb05fa535867e17,676192165fb32c2e1fb7aee6,67d0df53f296cba0fc348327,2025-03-11_22h12.00.737,Tarea de decisión léxica,2024.2.5,Win32,142.8571429,,,,,,,,,,,,,,,,,,,,,,,,379.0039,380.114,a,1,0.4577,1,380.114,380.6139,,,,,,237,MAS,WORD,DIS,150,nudo,,la,,0.4577,,380.614,380.6141,0.705733157,0.027508012,0,0,0,,0,128,128,236,1,huco,,,,
,,,,,,6062876a9cb05fa535867e17,676192165fb32c2e1fb7aee6,67d0df53f296cba0fc348327,2025-03-11_22h12.00.737,Tarea de decisión léxica,2024.2.5,Win32,142.8571429,,,,,,,,,,,,,,,,,,,,,,,,380.6146,381.6558,a,1,0.3824,1,381.6558,382.1559,,,,,,21,MAS,WORD,DIS,150,plan,,la,,0.3824,,382.1559,382.1559,0.705733157,0.027508012,0,0,0,,0,129,129,20,1,blan,,,,
,,,,,,6062876a9cb05fa535867e17,676192165fb32c2e1fb7aee6,67d0df53f296cba0fc348327,2025-03-11_22h12.00.737,Tarea de decisión léxica,2024.2.5,Win32,142.8571429,,,,,,,,,,,,,,,,,,,,,,,,382.1564,383.2462,l,1,0.4357,1,383.2462,383.7462,,,,,,184,FEM,NOWORD,AGR,150,raad,,la,,0.4357,,383.7463,383.7464,0.705733157,0.027508012,0,0,0,,0,130,130,183,1,raya,,,,
,,,,,,6062876a9cb05fa535867e17,676192165fb32c2e1fb7aee6,67d0df53f296cba0fc348327,2025-03-11_22h12.00.737,Tarea de decisión léxica,2024.2.5,Win32,142.8571429,,,,,,,,,,,,,,,,,,,,,,,,383.7468,384.7116,a,1,0.3112,1,384.7117,385.2118,,,,,,171,MAS,WORD,AGR,150,hilo,,el,,0.3112,,385.2123,385.2127,0.705733157,0.027508012,0,0,0,,0,131,131,170,1,niro,,,,
,,,,,,6062876a9cb05fa535867e17,676192165fb32c2e1fb7aee6,67d0df53f296cba0fc348327,2025-03-11_22h12.00.737,Tarea de decisión léxica,2024.2.5,Win32,142.8571429,,,,,,,,,,,,,,,,,,,,,,,,385.213,386.2882,l,1,0.4209,1,386.2883,386.7883,,,,,,246,FEM,NOWORD,DIS,150,pafle,,el,,0.4209,,386.7883,386.7884,0.705733157,0.027508012,0,0,0,,0,132,132,245,1,madre,,,,
,,,,,,6062876a9cb05fa535867e17,676192165fb32c2e1fb7aee6,67d0df53f296cba0fc348327,2025-03-11_22h12.00.737,Tarea de decisión léxica,2024.2.5,Win32,142.8571429,,,,,,,,,,,,,,,,,,,,,,,,386.7889,387.8649,a,1,0.4158,1,387.865,388.3649,,,,,,397,FEM,WORD,DIS,150,tribu,,el,,0.4158,,388.365,388.365,0.705733157,0.027508012,0,0,0,,0,133,133,396,1,trigi,,,,
,,,,,,6062876a9cb05fa535867e17,676192165fb32c2e1fb7aee6,67d0df53f296cba0fc348327,2025-03-11_22h12.00.737,Tarea de decisión léxica,2024.2.5,Win32,142.8571429,,,,,,,,,,,,,,,,,,,,,,,,388.3655,389.3788,a,1,0.3547,1,389.3788,389.8789,,,,,,233,FEM,WORD,DIS,150,lana,,el,,0.3547,,389.8789,389.879,0.705733157,0.027508012,0,0,0,,0,134,134,232,1,fasa,,,,
,,,,,,6062876a9cb05fa535867e17,676192165fb32c2e1fb7aee6,67d0df53f296cba0fc348327,2025-03-11_22h12.00.737,Tarea de decisión léxica,2024.2.5,Win32,142.8571429,,,,,,,,,,,,,,,,,,,,,,,,389.8796,391.011,l,1,0.4774,1,391.011,391.511,,,,,,34,FEM,NOWORD,DIS,150,loda,,el,,0.4774,,391.511,391.5111,0.705733157,0.027508012,0,0,0,,0,135,135,33,1,boca,,,,
,,,,,,6062876a9cb05fa535867e17,676192165fb32c2e1fb7aee6,67d0df53f296cba0fc348327,2025-03-11_22h12.00.737,Tarea de decisión léxica,2024.2.5,Win32,142.8571429,,,,,,,,,,,,,,,,,,,,,,,,391.5116,392.4556,a,1,0.285,1,392.4557,392.9557,,,,,,347,FEM,WORD,AGR,150,pieza,,la,,0.285,,392.9562,392.9565,0.705733157,0.027508012,0,0,0,,0,136,136,346,1,mueza,,,,
,,,,,,6062876a9cb05fa535867e17,676192165fb32c2e1fb7aee6,67d0df53f296cba0fc348327,2025-03-11_22h12.00.737,Tarea de decisión léxica,2024.2.5,Win32,142.8571429,,,,,,,,,,,,,,,,,,,,,,,,392.9568,393.9558,a,1,0.3456,1,393.9558,394.4558,,,,,,75,MAS,WORD,AGR,150,olor,,el,,0.3456,,394.4558,394.4559,0.705733157,0.027508012,0,0,0,,0,137,137,74,1,ocer,,,,
,,,,,,6062876a9cb05fa535867e17,676192165fb32c2e1fb7aee6,67d0df53f296cba0fc348327,2025-03-11_22h12.00.737,Tarea de decisión léxica,2024.2.5,Win32,142.8571429,,,,,,,,,,,,,,,,,,,,,,,,394.4563,395.5328,l,1,0.4237,1,395.5328,396.0325,,,,,,128,MAS,NOWORD,AGR,150,itio,,el,,0.4237,,396.0325,396.0325,0.705733157,0.027508012,0,0,0,,0,138,138,127,1,pico,,,,
,,,,,,6062876a9cb05fa535867e17,676192165fb32c2e1fb7aee6,67d0df53f296cba0fc348327,2025-03-11_22h12.00.737,Tarea de decisión léxica,2024.2.5,Win32,142.8571429,,,,,,,,,,,,,,,,,,,,,,,,396.033,396.9561,a,1,0.2676,1,396.9561,397.4562,,,,,,299,FEM,WORD,AGR,150,bolsa,,la,,0.2676,,397.4562,397.4562,0.705733157,0.027508012,0,0,0,,0,139,139,298,1,bosga,,,,
,,,,,,6062876a9cb05fa535867e17,676192165fb32c2e1fb7aee6,67d0df53f296cba0fc348327,2025-03-11_22h12.00.737,Tarea de decisión léxica,2024.2.5,Win32,142.8571429,,,,,,,,,,,,,,,,,,,,,,,,397.4568,398.5952,l,1,0.4798,1,398.5952,399.0953,,,,,,188,MAS,NOWORD,AGR,150,suto,,el,,0.4798,,399.0953,399.0954,0.705733157,0.027508012,0,0,0,,0,140,140,187,1,mito,,,,
,,,,,,6062876a9cb05fa535867e17,676192165fb32c2e1fb7aee6,67d0df53f296cba0fc348327,2025-03-11_22h12.00.737,Tarea de decisión léxica,2024.2.5,Win32,142.8571429,,,,,,,,,,,,,,,,,,,,,,,,399.096,400.2134,l,1,0.4608,1,400.2135,400.7136,,,,,,464,FEM,NOWORD,AGR,150,matla,,la,,0.4608,,400.7141,400.7145,0.705733157,0.027508012,0,0,0,,0,141,141,463,1,cabra,,,,
,,,,,,6062876a9cb05fa535867e17,676192165fb32c2e1fb7aee6,67d0df53f296cba0fc348327,2025-03-11_22h12.00.737,Tarea de decisión léxica,2024.2.5,Win32,142.8571429,,,,,,,,,,,,,,,,,,,,,,,,400.7148,401.8942,a,0,0.5247,0,401.8946,402.3942,,,,,,354,FEM,NOWORD,DIS,150,cezca,,el,,0.5247,,402.3942,402.3943,0.705733157,0.027508012,0,0,0,,0,142,142,353,1,celda,,,,
,,,,,,6062876a9cb05fa535867e17,676192165fb32c2e1fb7aee6,67d0df53f296cba0fc348327,2025-03-11_22h12.00.737,Tarea de decisión léxica,2024.2.5,Win32,142.8571429,,,,,,,,,,,,,,,,,,,,,,,,402.3949,405.0404,,0,0.5247,-1,405.0407,405.5404,,,,,,212,FEM,NOWORD,AGR,150,joad,,la,,,,405.5404,405.5404,0.705733157,0.027508012,0,0,0,,0,143,143,211,1,joya,,,,
,,,,,,6062876a9cb05fa535867e17,676192165fb32c2e1fb7aee6,67d0df53f296cba0fc348327,2025-03-11_22h12.00.737,Tarea de decisión léxica,2024.2.5,Win32,142.8571429,,,,,,,,,,,,,,,,,,,,,,,,405.541,406.6031,a,1,0.4029,1,406.6034,407.103,,,,,,431,MAS,WORD,AGR,150,motor,,el,,0.4029,,407.1031,407.1031,0.705733157,0.027508012,0,0,0,,0,144,144,430,1,tetor,,,,
,,,,,,6062876a9cb05fa535867e17,676192165fb32c2e1fb7aee6,67d0df53f296cba0fc348327,2025-03-11_22h12.00.737,Tarea de decisión léxica,2024.2.5,Win32,142.8571429,,,,,,,,,,,,,,,,,,,,,,,,407.1036,408.4018,l,1,0.6376,1,408.4019,408.9019,,,,,,92,FEM,NOWORD,AGR,150,sava,,la,,0.6376,,408.9019,408.9019,0.705733157,0.027508012,0,0,0,,0,145,145,91,1,taza,,,,
,,,,,,6062876a9cb05fa535867e17,676192165fb32c2e1fb7aee6,67d0df53f296cba0fc348327,2025-03-11_22h12.00.737,Tarea de decisión léxica,2024.2.5,Win32,142.8571429,,,,,,,,,,,,,,,,,,,,,,,,408.9024,409.9716,l,1,0.4133,1,409.9716,410.4717,,,,,,474,FEM,NOWORD,DIS,150,felia,,el,,0.4133,,410.4724,410.4727,0.705733157,0.027508012,0,0,0,,0,146,146,473,1,feria,,,,
,,,,,,6062876a9cb05fa535867e17,676192165fb32c2e1fb7aee6,67d0df53f296cba0fc348327,2025-03-11_22h12.00.737,Tarea de decisión léxica,2024.2.5,Win32,142.8571429,,,,,,,,,,,,,,,,,,,,,,,,410.4731,411.4994,a,1,0.372,1,411.4995,411.9995,,,,,,187,MAS,WORD,AGR,150,mito,,el,,0.372,,411.9995,411.9996,0.705733157,0.027508012,0,0,0,,0,147,147,186,1,suto,,,,
,,,,,,6062876a9cb05fa535867e17,676192165fb32c2e1fb7aee6,67d0df53f296cba0fc348327,2025-03-11_22h12.00.737,Tarea de decisión léxica,2024.2.5,Win32,142.8571429,,,,,,,,,,,,,,,,,,,,,,,,412.0001,413.0065,l,1,0.3499,1,413.0065,413.5066,,,,,,234,FEM,NOWORD,DIS,150,fasa,,el,,0.3499,,413.5066,413.5067,0.705733157,0.027508012,0,0,0,,0,148,148,233,1,lana,,,,
,,,,,,6062876a9cb05fa535867e17,676192165fb32c2e1fb7aee6,67d0df53f296cba0fc348327,2025-03-11_22h12.00.737,Tarea de decisión léxica,2024.2.5,Win32,142.8571429,,,,,,,,,,,,,,,,,,,,,,,,413.5072,414.5554,l,1,0.3943,1,414.5554,415.0554,,,,,,276,MAS,NOWORD,AGR,150,musto,,el,,0.3943,,415.0554,415.0554,0.705733157,0.027508012,0,0,0,,0,149,149,275,1,punto,,,,
,,,,,,6062876a9cb05fa535867e17,676192165fb32c2e1fb7aee6,67d0df53f296cba0fc348327,2025-03-11_22h12.00.737,Tarea de decisión léxica,2024.2.5,Win32,142.8571429,,,,,,,,,,,,,,,,,,,,,,,,415.056,416.111,l,1,0.3971,1,416.1112,416.6111,,,,,,230,MAS,NOWORD,DIS,150,ador,,la,,0.3971,,416.6112,416.6113,0.705733157,0.027508012,0,0,0,,0,150,150,229,1,amor,,,,
,,,,,,6062876a9cb05fa535867e17,676192165fb32c2e1fb7aee6,67d0df53f296cba0fc348327,2025-03-11_22h12.00.737,Tarea de decisión léxica,2024.2.5,Win32,142.8571429,,,,,,,,,,,,,,,,,,,,,,,,416.6117,417.646,l,1,0.3806,1,417.646,418.146,,,,,,202,FEM,NOWORD,DIS,150,cusa,,el,,0.3806,,418.1465,418.1468,0.705733157,0.027508012,0,0,0,,0,151,151,201,1,cuna,,,,
,,,,,,6062876a9cb05fa535867e17,676192165fb32c2e1fb7aee6,67d0df53f296cba0fc348327,2025-03-11_22h12.00.737,Tarea de decisión léxica,2024.2.5,Win32,142.8571429,,,,,,,,,,,,,,,,,,,,,,,,418.1471,419.7295,a,1,0.9298,1,419.7295,420.2295,,,,,,469,MAS,WORD,DIS,150,patio,,la,,0.9298,,420.2295,420.2296,0.705733157,0.027508012,0,0,0,,0,152,152,468,1,matia,,,,
,,,,,,6062876a9cb05fa535867e17,676192165fb32c2e1fb7aee6,67d0df53f296cba0fc348327,2025-03-11_22h12.00.737,Tarea de decisión léxica,2024.2.5,Win32,142.8571429,,,,,,,,,,,,,,,,,,,,,,,,420.2301,421.2088,a,1,0.3232,1,421.2089,421.7088,,,,,,379,MAS,WORD,AGR,150,turno,,el,,0.3232,,421.7089,421.7089,0.705733157,0.027508012,0,0,0,,0,153,153,378,1,tunso,,,,
,,,,,,6062876a9cb05fa535867e17,676192165fb32c2e1fb7aee6,67d0df53f296cba0fc348327,2025-03-11_22h12.00.737,Tarea de decisión léxica,2024.2.5,Win32,142.8571429,,,,,,,,,,,,,,,,,,,,,,,,421.7095,422.6674,a,1,0.2977,1,422.6674,423.1674,,,,,,427,FEM,WORD,AGR,150,oreja,,la,,0.2977,,423.1674,423.1675,0.705733157,0.027508012,0,0,0,,0,154,154,426,1,oseva,,,,
,,,,,,6062876a9cb05fa535867e17,676192165fb32c2e1fb7aee6,67d0df53f296cba0fc348327,2025-03-11_22h12.00.737,Tarea de decisión léxica,2024.2.5,Win32,142.8571429,,,,,,,,,,,,,,,,,,,,,,,,423.1679,424.0772,a,1,0.2506,1,424.0774,424.5777,,,,,,215,FEM,WORD,AGR,150,raíz,,la,,0.2506,,424.5782,424.5785,0.705733157,0.027508012,0,0,0,,0,155,155,214,1,raua,,,,
,,,,,,6062876a9cb05fa535867e17,676192165fb32c2e1fb7aee6,67d0df53f296cba0fc348327,2025-03-11_22h12.00.737,Tarea de decisión léxica,2024.2.5,Win32,142.8571429,,,,,,,,,,,,,,,,,,,,,,,,424.5788,425.4941,a,1,0.2576,1,425.4942,425.9942,,,,,,349,MAS,WORD,DIS,150,color,,la,,0.2576,,425.9942,425.9943,0.705733157,0.027508012,0,0,0,,0,156,156,348,1,cosir,,,,
,,,,,,6062876a9cb05fa535867e17,676192165fb32c2e1fb7aee6,67d0df53f296cba0fc348327,2025-03-11_22h12.00.737,Tarea de decisión léxica,2024.2.5,Win32,142.8571429,,,,,,,,,,,,,,,,,,,,,,,,425.9948,426.9664,l,1,0.3187,1,426.9665,427.4665,,,,,,28,MAS,NOWORD,AGR,150,ravo,,el,,0.3187,,427.4665,427.4667,0.705733157,0.027508012,0,0,0,,0,157,157,27,1,baño,,,,
,,,,,,6062876a9cb05fa535867e17,676192165fb32c2e1fb7aee6,67d0df53f296cba0fc348327,2025-03-11_22h12.00.737,Tarea de decisión léxica,2024.2.5,Win32,142.8571429,,,,,,,,,,,,,,,,,,,,,,,,427.4671,428.5225,l,1,0.4027,1,428.5226,429.0222,,,,,,366,FEM,NOWORD,DIS,150,gulla,,el,,0.4027,,429.0222,429.0222,0.705733157,0.027508012,0,0,0,,0,158,158,365,1,ducha,,,,
,,,,,,6062876a9cb05fa535867e17,676192165fb32c2e1fb7aee6,67d0df53f296cba0fc348327,2025-03-11_22h12.00.737,Tarea de decisión léxica,2024.2.5,Win32,142.8571429,,,,,,,,,,,,,,,,,,,,,,,,429.0227,430.0644,a,1,0.3888,1,430.0645,430.5641,,,,,,155,FEM,WORD,AGR,150,fuga,,la,,0.3888,,430.5642,430.5642,0.705733157,0.027508012,0,0,0,,0,159,159,154,1,luma,,,,
,,,,,,6062876a9cb05fa535867e17,676192165fb32c2e1fb7aee6,67d0df53f296cba0fc348327,2025-03-11_22h12.00.737,Tarea de decisión léxica,2024.2.5,Win32,142.8571429,,,,,,,,,,,,,,,,,,,,,,,,430.5646,431.6614,l,1,0.4376,1,431.6615,432.1615,,,,,,182,FEM,NOWORD,DIS,150,teda,,el,,0.4376,,432.162,444.3782,0.705733157,0.027508012,0,0,0,space,0,160,160,181,1,seda,12.2085,,,
,,,,,,6062876a9cb05fa535867e17,676192165fb32c2e1fb7aee6,67d0df53f296cba0fc348327,2025-03-11_22h12.00.737,Tarea de decisión léxica,2024.2.5,Win32,142.8571429,,,,,,,,,,,,,,,,,,,,,,,,444.3787,445.4754,l,1,0.4378,1,445.4754,445.9755,,,,,,140,MAS,NOWORD,AGR,150,nila,,el,,0.4378,,445.9755,445.9756,0.705733157,0.027508012,0,0,0,,0,161,161,139,1,mago,,,,
,,,,,,6062876a9cb05fa535867e17,676192165fb32c2e1fb7aee6,67d0df53f296cba0fc348327,2025-03-11_22h12.00.737,Tarea de decisión léxica,2024.2.5,Win32,142.8571429,,,,,,,,,,,,,,,,,,,,,,,,445.9761,447.045,l,1,0.4111,1,447.0451,447.5452,,,,,,334,FEM,NOWORD,DIS,150,dalea,,el,,0.4111,,447.5452,447.5452,0.705733157,0.027508012,0,0,0,,0,162,162,333,1,tarea,,,,
,,,,,,6062876a9cb05fa535867e17,676192165fb32c2e1fb7aee6,67d0df53f296cba0fc348327,2025-03-11_22h12.00.737,Tarea de decisión léxica,2024.2.5,Win32,142.8571429,,,,,,,,,,,,,,,,,,,,,,,,447.5457,448.6426,l,1,0.4378,1,448.6426,449.1425,,,,,,114,FEM,NOWORD,DIS,150,tada,,el,,0.4378,,449.1426,449.1426,0.705733157,0.027508012,0,0,0,,0,163,163,113,1,miel,,,,
,,,,,,6062876a9cb05fa535867e17,676192165fb32c2e1fb7aee6,67d0df53f296cba0fc348327,2025-03-11_22h12.00.737,Tarea de decisión léxica,2024.2.5,Win32,142.8571429,,,,,,,,,,,,,,,,,,,,,,,,449.1431,450.2334,l,1,0.437,1,450.2335,450.7331,,,,,,162,MAS,NOWORD,DIS,150,bopo,,la,,0.437,,450.7332,450.7333,0.705733157,0.027508012,0,0,0,,0,164,164,161,1,coro,,,,
,,,,,,6062876a9cb05fa535867e17,676192165fb32c2e1fb7aee6,67d0df53f296cba0fc348327,2025-03-11_22h12.00.737,Tarea de decisión léxica,2024.2.5,Win32,142.8571429,,,,,,,,,,,,,,,,,,,,,,,,450.7337,451.9762,l,1,0.5841,1,451.9762,452.4762,,,,,,412,MAS,NOWORD,AGR,150,mobro,,el,,0.5841,,452.4767,452.4772,0.705733157,0.027508012,0,0,0,,0,165,165,411,1,pollo,,,,
,,,,,,6062876a9cb05fa535867e17,676192165fb32c2e1fb7aee6,67d0df53f296cba0fc348327,2025-03-11_22h12.00.737,Tarea de decisión léxica,2024.2.5,Win32,142.8571429,,,,,,,,,,,,,,,,,,,,,,,,452.4776,453.6155,l,1,0.4858,1,453.6155,454.1153,,,,,,38,MAS,NOWORD,DIS,150,gaco,,la,,0.4858,,454.1153,454.1154,0.705733157,0.027508012,0,0,0,,0,166,166,37,1,rato,,,,
,,,,,,6062876a9cb05fa535867e17,676192165fb32c2e1fb7aee6,67d0df53f296cba0fc348327,2025-03-11_22h12.00.737,Tarea de decisión léxica,2024.2.5,Win32,142.8571429,,,,,,,,,,,,,,,,,,,,,,,,454.1159,455.2752,l,1,0.5058,1,455.2753,455.7752,,,,,,174,FEM,NOWORD,DIS,150,boma,,el,,0.5058,,455.7752,455.7753,0.705733157,0.027508012,0,0,0,,0,167,167,173,1,rosa,,,,
,,,,,,6062876a9cb05fa535867e17,676192165fb32c2e1fb7aee6,67d0df53f296cba0fc348327,2025-03-11_22h12.00.737,Tarea de decisión léxica,2024.2.5,Win32,142.8571429,,,,,,,,,,,,,,,,,,,,,,,,455.7758,456.7545,a,1,0.3227,1,456.7546,457.2546,,,,,,433,MAS,WORD,DIS,150,disco,,la,,0.3227,,457.2547,457.2547,0.705733157,0.027508012,0,0,0,,0,168,168,432,1,durco,,,,
,,,,,,6062876a9cb05fa535867e17,676192165fb32c2e1fb7aee6,67d0df53f296cba0fc348327,2025-03-11_22h12.00.737,Tarea de decisión léxica,2024.2.5,Win32,142.8571429,,,,,,,,,,,,,,,,,,,,,,,,457.2552,458.4909,a,1,0.5803,1,458.4909,458.9909,,,,,,25,FEM,WORD,DIS,150,cama,,el,,0.5803,,458.9909,458.991,0.705733157,0.027508012,0,0,0,,0,169,169,24,1,paza,,,,
,,,,,,6062876a9cb05fa535867e17,676192165fb32c2e1fb7aee6,67d0df53f296cba0fc348327,2025-03-11_22h12.00.737,Tarea de decisión léxica,2024.2.5,Win32,142.8571429,,,,,,,,,,,,,,,,,,,,,,,,458.9915,460.1304,a,1,0.4795,1,460.1304,460.63,,,,,,319,MAS,WORD,AGR,150,suelo,,el,,0.4795,,460.6305,460.6309,0.705733157,0.027508012,0,0,0,,0,170,170,318,1,tuero,,,,
,,,,,,6062876a9cb05fa535867e17,676192165fb32c2e1fb7aee6,67d0df53f296cba0fc348327,2025-03-11_22h12.00.737,Tarea de decisión léxica,2024.2.5,Win32,142.8571429,,,,,,,,,,,,,,,,,,,,,,,,460.6312,461.5815,a,1,0.2924,1,461.5815,462.0815,,,,,,133,FEM,WORD,DIS,150,vaca,,el,,0.2924,,462.0816,462.0816,0.705733157,0.027508012,0,0,0,,0,171,171,132,1,vesa,,,,
,,,,,,6062876a9cb05fa535867e17,676192165fb32c2e1fb7aee6,67d0df53f296cba0fc348327,2025-03-11_22h12.00.737,Tarea de decisión léxica,2024.2.5,Win32,142.8571429,,,,,,,,,,,,,,,,,,,,,,,,462.0821,463.0399,a,1,0.2989,1,463.0399,463.54,,,,,,403,FEM,WORD,AGR,150,prima,,la,,0.2989,,463.54,463.5401,0.705733157,0.027508012,0,0,0,,0,172,172,402,1,grisa,,,,
,,,,,,6062876a9cb05fa535867e17,676192165fb32c2e1fb7aee6,67d0df53f296cba0fc348327,2025-03-11_22h12.00.737,Tarea de decisión léxica,2024.2.5,Win32,142.8571429,,,,,,,,,,,,,,,,,,,,,,,,463.5405,464.7,l,1,0.5005,1,464.7,465.1999,,,,,,410,MAS,NOWORD,DIS,150,pafro,,la,,0.5005,,465.1999,465.1999,0.705733157,0.027508012,0,0,0,,0,173,173,409,1,carro,,,,
,,,,,,6062876a9cb05fa535867e17,676192165fb32c2e1fb7aee6,67d0df53f296cba0fc348327,2025-03-11_22h12.00.737,Tarea de decisión léxica,2024.2.5,Win32,142.8571429,,,,,,,,,,,,,,,,,,,,,,,,465.2006,466.089,a,1,0.2299,1,466.0891,466.589,,,,,,289,FEM,WORD,DIS,150,bomba,,el,,0.2299,,466.589,466.589,0.705733157,0.027508012,0,0,0,,0,174,174,288,1,bumpa,,,,
,,,,,,6062876a9cb05fa535867e17,676192165fb32c2e1fb7aee6,67d0df53f296cba0fc348327,2025-03-11_22h12.00.737,Tarea de decisión léxica,2024.2.5,Win32,142.8571429,,,,,,,,,,,,,,,,,,,,,,,,466.5895,467.5197,a,1,0.2755,1,467.5197,468.0197,,,,,,49,FEM,WORD,DIS,150,edad,,el,,0.2755,,468.0202,468.0205,0.705733157,0.027508012,0,0,0,,0,175,175,48,1,ecat,,,,
,,,,,,6062876a9cb05fa535867e17,676192165fb32c2e1fb7aee6,67d0df53f296cba0fc348327,2025-03-11_22h12.00.737,Tarea de decisión léxica,2024.2.5,Win32,142.8571429,,,,,,,,,,,,,,,,,,,,,,,,468.0209,468.9851,a,1,0.3056,1,468.9851,469.4852,,,,,,95,FEM,WORD,AGR,151,moda,,la,,0.3056,,469.4852,469.4853,0.705733157,0.027508012,0,0,0,,0,176,176,94,1,neda,,,,
,,,,,,6062876a9cb05fa535867e17,676192165fb32c2e1fb7aee6,67d0df53f296cba0fc348327,2025-03-11_22h12.00.737,Tarea de decisión léxica,2024.2.5,Win32,142.8571429,,,,,,,,,,,,,,,,,,,,,,,,469.4859,470.4297,a,1,0.2874,1,470.4297,470.9297,,,,,,223,FEM,WORD,AGR,150,cera,,la,,0.2874,,470.9298,470.9298,0.705733157,0.027508012,0,0,0,,0,177,177,222,1,cira,,,,
,,,,,,6062876a9cb05fa535867e17,676192165fb32c2e1fb7aee6,67d0df53f296cba0fc348327,2025-03-11_22h12.00.737,Tarea de decisión léxica,2024.2.5,Win32,142.8571429,,,,,,,,,,,,,,,,,,,,,,,,470.9304,471.8327,a,0,0.2463,0,471.833,472.3326,,,,,,180,MAS,NOWORD,AGR,150,sono,,el,,0.2463,,472.3327,472.3327,0.705733157,0.027508012,0,0,0,,0,178,178,179,1,toro,,,,
,,,,,,6062876a9cb05fa535867e17,676192165fb32c2e1fb7aee6,67d0df53f296cba0fc348327,2025-03-11_22h12.00.737,Tarea de decisión léxica,2024.2.5,Win32,142.8571429,,,,,,,,,,,,,,,,,,,,,,,,472.3332,473.7009,l,1,0.712,1,473.7012,474.2009,,,,,,364,FEM,NOWORD,AGR,150,veida,,la,,0.712,,474.2015,474.2018,0.705733157,0.027508012,0,0,0,,0,179,179,363,1,deuda,,,,
,,,,,,6062876a9cb05fa535867e17,676192165fb32c2e1fb7aee6,67d0df53f296cba0fc348327,2025-03-11_22h12.00.737,Tarea de decisión léxica,2024.2.5,Win32,142.8571429,,,,,,,,,,,,,,,,,,,,,,,,474.2021,475.4857,l,1,0.6253,1,475.4858,475.9859,,,,,,450,FEM,NOWORD,DIS,150,crusa,,el,,0.6253,,475.9859,475.9859,0.705733157,0.027508012,0,0,0,,0,180,180,449,1,pluma,,,,
,,,,,,6062876a9cb05fa535867e17,676192165fb32c2e1fb7aee6,67d0df53f296cba0fc348327,2025-03-11_22h12.00.737,Tarea de decisión léxica,2024.2.5,Win32,142.8571429,,,,,,,,,,,,,,,,,,,,,,,,475.9865,477.1392,l,1,0.4998,1,477.1393,477.6388,,,,,,72,FEM,NOWORD,AGR,150,urla,,la,,0.4998,,477.6388,477.6388,0.705733157,0.027508012,0,0,0,,0,181,181,71,1,isla,,,,
,,,,,,6062876a9cb05fa535867e17,676192165fb32c2e1fb7aee6,67d0df53f296cba0fc348327,2025-03-11_22h12.00.737,Tarea de decisión léxica,2024.2.5,Win32,142.8571429,,,,,,,,,,,,,,,,,,,,,,,,477.6395,478.7363,a,1,0.4441,1,478.7364,479.2365,,,,,,185,MAS,WORD,DIS,150,baúl,,la,,0.4441,,479.2365,479.2365,0.705733157,0.027508012,0,0,0,,0,182,182,184,1,raol,,,,
,,,,,,6062876a9cb05fa535867e17,676192165fb32c2e1fb7aee6,67d0df53f296cba0fc348327,2025-03-11_22h12.00.737,Tarea de decisión léxica,2024.2.5,Win32,142.8571429,,,,,,,,,,,,,,,,,,,,,,,,479.2371,480.2572,a,1,0.3617,1,480.2572,480.7572,,,,,,325,FEM,WORD,DIS,150,magia,,el,,0.3617,,480.7572,480.7573,0.705733157,0.027508012,0,0,0,,0,183,183,324,1,mabia,,,,
,,,,,,6062876a9cb05fa535867e17,676192165fb32c2e1fb7aee6,67d0df53f296cba0fc348327,2025-03-11_22h12.00.737,Tarea de decisión léxica,2024.2.5,Win32,142.8571429,,,,,,,,,,,,,,,,,,,,,,,,480.7578,481.7712,a,1,0.3586,1,481.7712,482.2712,,,,,,415,FEM,WORD,AGR,150,jaula,,la,,0.3586,,482.2718,482.2721,0.705733157,0.027508012,0,0,0,,0,184,184,414,1,juira,,,,
,,,,,,6062876a9cb05fa535867e17,676192165fb32c2e1fb7aee6,67d0df53f296cba0fc348327,2025-03-11_22h12.00.737,Tarea de decisión léxica,2024.2.5,Win32,142.8571429,,,,,,,,,,,,,,,,,,,,,,,,482.2724,483.3686,l,1,0.443,1,483.3687,483.8687,,,,,,146,MAS,NOWORD,DIS,150,nobo,,la,,0.443,,483.8688,483.8688,0.705733157,0.027508012,0,0,0,,0,185,185,145,1,león,,,,
,,,,,,6062876a9cb05fa535867e17,676192165fb32c2e1fb7aee6,67d0df53f296cba0fc348327,2025-03-11_22h12.00.737,Tarea de decisión léxica,2024.2.5,Win32,142.8571429,,,,,,,,,,,,,,,,,,,,,,,,483.8693,485.0008,l,1,0.4747,1,485.0008,485.501,,,,,,472,FEM,NOWORD,AGR,150,prana,,la,,0.4747,,485.5011,485.5012,0.705733157,0.027508012,0,0,0,,0,186,186,471,1,grasa,,,,
,,,,,,6062876a9cb05fa535867e17,676192165fb32c2e1fb7aee6,67d0df53f296cba0fc348327,2025-03-11_22h12.00.737,Tarea de decisión léxica,2024.2.5,Win32,142.8571429,,,,,,,,,,,,,,,,,,,,,,,,485.5016,486.7648,l,1,0.6082,1,486.7649,487.2649,,,,,,310,FEM,NOWORD,DIS,150,tirra,,el,,0.6082,,487.2649,487.265,0.705733157,0.027508012,0,0,0,,0,187,187,309,1,silla,,,,
,,,,,,6062876a9cb05fa535867e17,676192165fb32c2e1fb7aee6,67d0df53f296cba0fc348327,2025-03-11_22h12.00.737,Tarea de decisión léxica,2024.2.5,Win32,142.8571429,,,,,,,,,,,,,,,,,,,,,,,,487.2656,488.4039,a,1,0.4856,1,488.404,488.904,,,,,,89,MAS,WORD,DIS,150,humo,,la,,0.4856,,488.904,488.904,0.705733157,0.027508012,0,0,0,,0,188,188,88,1,guso,,,,
,,,,,,6062876a9cb05fa535867e17,676192165fb32c2e1fb7aee6,67d0df53f296cba0fc348327,2025-03-11_22h12.00.737,Tarea de decisión léxica,2024.2.5,Win32,142.8571429,,,,,,,,,,,,,,,,,,,,,,,,488.9045,489.8624,a,0,0.3012,0,489.8629,490.3625,,,,,,360,MAS,NOWORD,AGR,150,cacer,,el,,0.3012,,490.363,490.3634,0.705733157,0.027508012,0,0,0,,0,189,189,359,1,calor,,,,
,,,,,,6062876a9cb05fa535867e17,676192165fb32c2e1fb7aee6,67d0df53f296cba0fc348327,2025-03-11_22h12.00.737,Tarea de decisión léxica,2024.2.5,Win32,142.8571429,,,,,,,,,,,,,,,,,,,,,,,,490.3636,491.7168,l,1,0.6988,1,491.7173,492.2168,,,,,,86,MAS,NOWORD,DIS,150,babo,,la,,0.6988,,492.2168,492.2169,0.705733157,0.027508012,0,0,0,,0,190,190,85,1,lago,,,,
,,,,,,6062876a9cb05fa535867e17,676192165fb32c2e1fb7aee6,67d0df53f296cba0fc348327,2025-03-11_22h12.00.737,Tarea de decisión léxica,2024.2.5,Win32,142.8571429,,,,,,,,,,,,,,,,,,,,,,,,492.2175,493.2101,l,1,0.3339,1,493.2102,493.7101,,,,,,10,MAS,NOWORD,DIS,150,sibo,,la,,0.3339,,493.7101,493.7101,0.705733157,0.027508012,0,0,0,,0,191,191,9,1,tipo,,,,
,,,,,,6062876a9cb05fa535867e17,676192165fb32c2e1fb7aee6,67d0df53f296cba0fc348327,2025-03-11_22h12.00.737,Tarea de decisión léxica,2024.2.5,Win32,142.8571429,,,,,,,,,,,,,,,,,,,,,,,,493.7106,494.7657,a,1,0.4012,1,494.7657,495.2658,,,,,,463,FEM,WORD,AGR,150,cabra,,la,,0.4012,,495.2658,495.2658,0.705733157,0.027508012,0,0,0,,0,192,192,462,1,matla,,,,
,,,,,,6062876a9cb05fa535867e17,676192165fb32c2e1fb7aee6,67d0df53f296cba0fc348327,2025-03-11_22h12.00.737,Tarea de decisión léxica,2024.2.5,Win32,142.8571429,,,,,,,,,,,,,,,,,,,,,,,,495.2663,496.1964,a,1,0.2645,1,496.1965,496.6965,,,,,,205,FEM,WORD,DIS,150,rana,,el,,0.2645,,496.6965,496.6966,0.705733157,0.027508012,0,0,0,,0,193,193,204,1,bara,,,,
,,,,,,6062876a9cb05fa535867e17,676192165fb32c2e1fb7aee6,67d0df53f296cba0fc348327,2025-03-11_22h12.00.737,Tarea de decisión léxica,2024.2.5,Win32,142.8571429,,,,,,,,,,,,,,,,,,,,,,,,496.697,497.78,l,1,0.427,1,497.7801,498.28,,,,,,352,MAS,NOWORD,AGR,150,duepo,,el,,0.427,,498.2806,498.2809,0.705733157,0.027508012,0,0,0,,0,194,194,351,1,vuelo,,,,
,,,,,,6062876a9cb05fa535867e17,676192165fb32c2e1fb7aee6,67d0df53f296cba0fc348327,2025-03-11_22h12.00.737,Tarea de decisión léxica,2024.2.5,Win32,142.8571429,,,,,,,,,,,,,,,,,,,,,,,,498.2812,499.2802,a,1,0.3419,1,499.2802,499.7801,,,,,,81,FEM,WORD,DIS,150,dama,,el,,0.3419,,499.7802,499.7803,0.705733157,0.027508012,0,0,0,,0,195,195,80,1,vasa,,,,
,,,,,,6062876a9cb05fa535867e17,676192165fb32c2e1fb7aee6,67d0df53f296cba0fc348327,2025-03-11_22h12.00.737,Tarea de decisión léxica,2024.2.5,Win32,142.8571429,,,,,,,,,,,,,,,,,,,,,,,,499.7808,500.94,l,1,0.5021,1,500.9401,501.4401,,,,,,216,FEM,NOWORD,AGR,150,raua,,la,,0.5021,,501.4402,501.4402,0.705733157,0.027508012,0,0,0,,0,196,196,215,1,raíz,,,,
,,,,,,6062876a9cb05fa535867e17,676192165fb32c2e1fb7aee6,67d0df53f296cba0fc348327,2025-03-11_22h12.00.737,Tarea de decisión léxica,2024.2.5,Win32,142.8571429,,,,,,,,,,,,,,,,,,,,,,,,501.4407,502.4958,a,1,0.3996,1,502.4958,502.9959,,,,,,255,MAS,WORD,AGR,150,miedo,,el,,0.3996,,502.9959,502.9959,0.705733157,0.027508012,0,0,0,,0,197,197,254,1,mauco,,,,
,,,,,,6062876a9cb05fa535867e17,676192165fb32c2e1fb7aee6,67d0df53f296cba0fc348327,2025-03-11_22h12.00.737,Tarea de decisión léxica,2024.2.5,Win32,142.8571429,,,,,,,,,,,,,,,,,,,,,,,,502.9965,504.135,l,1,0.4796,1,504.135,504.6349,,,,,,66,MAS,NOWORD,DIS,150,nios,,la,,0.4796,,504.6349,504.6349,0.705733157,0.027508012,0,0,0,,0,198,198,65,1,dios,,,,
,,,,,,6062876a9cb05fa535867e17,676192165fb32c2e1fb7aee6,67d0df53f296cba0fc348327,2025-03-11_22h12.00.737,Tarea de decisión léxica,2024.2.5,Win32,142.8571429,,,,,,,,,,,,,,,,,,,,,,,,504.6355,505.6975,a,1,0.4082,1,505.6976,506.1976,,,,,,337,MAS,WORD,DIS,150,huevo,,la,,0.4082,,506.1981,506.1985,0.705733157,0.027508012,0,0,0,,0,199,199,336,1,nuejo,,,,
,,,,,,6062876a9cb05fa535867e17,676192165fb32c2e1fb7aee6,67d0df53f296cba0fc348327,2025-03-11_22h12.00.737,Tarea de decisión léxica,2024.2.5,Win32,142.8571429,,,,,,,,,,,,,,,,,,,,,,,,506.1988,507.2186,a,1,0.3615,1,507.2186,507.7185,,,,,,33,FEM,WORD,DIS,150,boca,,el,,0.3615,,507.7186,507.7187,0.705733157,0.027508012,0,0,0,,0,200,200,32,1,loda,,,,
,,,,,,6062876a9cb05fa535867e17,676192165fb32c2e1fb7aee6,67d0df53f296cba0fc348327,2025-03-11_22h12.00.737,Tarea de decisión léxica,2024.2.5,Win32,142.8571429,,,,,,,,,,,,,,,,,,,,,,,,507.7191,508.7048,a,1,0.3293,1,508.7048,509.2049,,,,,,467,MAS,WORD,AGR,150,piano,,el,,0.3293,,509.205,509.205,0.705733157,0.027508012,0,0,0,,0,201,201,466,1,peiso,,,,
,,,,,,6062876a9cb05fa535867e17,676192165fb32c2e1fb7aee6,67d0df53f296cba0fc348327,2025-03-11_22h12.00.737,Tarea de decisión léxica,2024.2.5,Win32,142.8571429,,,,,,,,,,,,,,,,,,,,,,,,509.2055,510.1426,a,1,0.2782,1,510.1427,510.6425,,,,,,343,FEM,WORD,AGR,150,plata,,la,,0.2782,,510.6425,510.6426,0.705733157,0.027508012,0,0,0,,0,202,202,342,1,trada,,,,
,,,,,,6062876a9cb05fa535867e17,676192165fb32c2e1fb7aee6,67d0df53f296cba0fc348327,2025-03-11_22h12.00.737,Tarea de decisión léxica,2024.2.5,Win32,142.8571429,,,,,,,,,,,,,,,,,,,,,,,,510.6431,511.6079,l,1,0.3053,1,511.6079,512.1082,,,,,,476,FEM,NOWORD,AGR,150,mucta,,la,,0.3053,,512.1087,512.109,0.705733157,0.027508012,0,0,0,,0,203,203,475,1,manta,,,,
,,,,,,6062876a9cb05fa535867e17,676192165fb32c2e1fb7aee6,67d0df53f296cba0fc348327,2025-03-11_22h12.00.737,Tarea de decisión léxica,2024.2.5,Win32,142.8571429,,,,,,,,,,,,,,,,,,,,,,,,512.1093,513.1359,a,1,0.3699,1,513.1359,513.6359,,,,,,295,MAS,WORD,AGR,150,dolor,,el,,0.3699,,513.636,513.636,0.705733157,0.027508012,0,0,0,,0,204,204,294,1,goler,,,,
,,,,,,6062876a9cb05fa535867e17,676192165fb32c2e1fb7aee6,67d0df53f296cba0fc348327,2025-03-11_22h12.00.737,Tarea de decisión léxica,2024.2.5,Win32,142.8571429,,,,,,,,,,,,,,,,,,,,,,,,513.6365,514.5603,l,1,0.2709,1,514.5603,515.0597,,,,,,62,FEM,NOWORD,DIS,150,efla,,el,,0.2709,,515.0597,515.0597,0.705733157,0.027508012,0,0,0,,0,205,205,61,1,obra,,,,
,,,,,,6062876a9cb05fa535867e17,676192165fb32c2e1fb7aee6,67d0df53f296cba0fc348327,2025-03-11_22h12.00.737,Tarea de decisión léxica,2024.2.5,Win32,142.8571429,,,,,,,,,,,,,,,,,,,,,,,,515.0603,516.2821,l,1,0.5685,1,516.2821,516.7822,,,,,,430,FEM,NOWORD,DIS,150,tenta,,el,,0.5685,,516.7822,516.7822,0.705733157,0.027508012,0,0,0,,0,206,206,429,1,tarta,,,,
,,,,,,6062876a9cb05fa535867e17,676192165fb32c2e1fb7aee6,67d0df53f296cba0fc348327,2025-03-11_22h12.00.737,Tarea de decisión léxica,2024.2.5,Win32,142.8571429,,,,,,,,,,,,,,,,,,,,,,,,516.7828,517.8447,a,1,0.4061,1,517.8448,518.3447,,,,,,191,FEM,WORD,AGR,150,pila,,la,,0.4061,,518.3448,518.3448,0.705733157,0.027508012,0,0,0,,0,207,207,190,1,bila,,,,
,,,,,,6062876a9cb05fa535867e17,676192165fb32c2e1fb7aee6,67d0df53f296cba0fc348327,2025-03-11_22h12.00.737,Tarea de decisión léxica,2024.2.5,Win32,142.8571429,,,,,,,,,,,,,,,,,,,,,,,,518.3453,519.4213,a,1,0.4225,1,519.4213,519.9214,,,,,,45,FEM,WORD,DIS,150,mesa,,el,,0.4225,,519.9219,519.9222,0.705733157,0.027508012,0,0,0,,0,208,208,44,1,pema,,,,
,,,,,,6062876a9cb05fa535867e17,676192165fb32c2e1fb7aee6,67d0df53f296cba0fc348327,2025-03-11_22h12.00.737,Tarea de decisión léxica,2024.2.5,Win32,142.8571429,,,,,,,,,,,,,,,,,,,,,,,,519.9226,520.9006,l,1,0.3207,1,520.9007,521.4007,,,,,,136,MAS,NOWORD,AGR,150,geso,,el,,0.3207,,521.4007,521.4008,0.705733157,0.027508012,0,0,0,,0,209,209,135,1,tubo,,,,
,,,,,,6062876a9cb05fa535867e17,676192165fb32c2e1fb7aee6,67d0df53f296cba0fc348327,2025-03-11_22h12.00.737,Tarea de decisión léxica,2024.2.5,Win32,142.8571429,,,,,,,,,,,,,,,,,,,,,,,,521.4012,522.5605,a,1,0.5036,1,522.5606,523.0606,,,,,,67,FEM,WORD,AGR,150,nena,,la,,0.5036,,523.0606,523.0607,0.705733157,0.027508012,0,0,0,,0,210,210,66,1,gesa,,,,
,,,,,,6062876a9cb05fa535867e17,676192165fb32c2e1fb7aee6,67d0df53f296cba0fc348327,2025-03-11_22h12.00.737,Tarea de decisión léxica,2024.2.5,Win32,142.8571429,,,,,,,,,,,,,,,,,,,,,,,,523.0613,524.033,a,1,0.313,1,524.0331,524.533,,,,,,373,FEM,WORD,DIS,150,pizza,,el,,0.313,,524.533,524.5331,0.705733157,0.027508012,0,0,0,,0,211,211,372,1,pogza,,,,
,,,,,,6062876a9cb05fa535867e17,676192165fb32c2e1fb7aee6,67d0df53f296cba0fc348327,2025-03-11_22h12.00.737,Tarea de decisión léxica,2024.2.5,Win32,142.8571429,,,,,,,,,,,,,,,,,,,,,,,,524.5337,525.6234,l,1,0.4346,1,525.6235,526.1234,,,,,,26,FEM,NOWORD,DIS,150,paza,,el,,0.4346,,526.1234,526.1235,0.705733157,0.027508012,0,0,0,,0,212,212,25,1,cama,,,,
,,,,,,6062876a9cb05fa535867e17,676192165fb32c2e1fb7aee6,67d0df53f296cba0fc348327,2025-03-11_22h12.00.737,Tarea de decisión léxica,2024.2.5,Win32,142.8571429,,,,,,,,,,,,,,,,,,,,,,,,526.124,527.1931,a,1,0.4162,1,527.1932,527.693,,,,,,429,FEM,WORD,DIS,150,tarta,,el,,0.4162,,527.6936,527.694,0.705733157,0.027508012,0,0,0,,0,213,213,428,1,tenta,,,,
,,,,,,6062876a9cb05fa535867e17,676192165fb32c2e1fb7aee6,67d0df53f296cba0fc348327,2025-03-11_22h12.00.737,Tarea de decisión léxica,2024.2.5,Win32,142.8571429,,,,,,,,,,,,,,,,,,,,,,,,527.6943,528.6585,a,1,0.31,1,528.6585,529.1585,,,,,,247,FEM,WORD,AGR,150,chica,,la,,0.31,,529.1586,529.1586,0.705733157,0.027508012,0,0,0,,0,214,214,246,1,trida,,,,
,,,,,,6062876a9cb05fa535867e17,676192165fb32c2e1fb7aee6,67d0df53f296cba0fc348327,2025-03-11_22h12.00.737,Tarea de decisión léxica,2024.2.5,Win32,142.8571429,,,,,,,,,,,,,,,,,,,,,,,,529.1591,530.1447,a,1,0.3281,1,530.1448,530.6448,,,,,,55,MAS,WORD,AGR,150,gato,,el,,0.3281,,530.6448,530.6448,0.705733157,0.027508012,0,0,0,,0,215,215,54,1,jado,,,,
,,,,,,6062876a9cb05fa535867e17,676192165fb32c2e1fb7aee6,67d0df53f296cba0fc348327,2025-03-11_22h12.00.737,Tarea de decisión léxica,2024.2.5,Win32,142.8571429,,,,,,,,,,,,,,,,,,,,,,,,530.6454,531.7144,l,1,0.4146,1,531.7144,532.2145,,,,,,88,MAS,NOWORD,AGR,150,damo,,el,,0.4146,,532.2145,532.2145,0.705733157,0.027508012,0,0,0,,0,216,216,87,1,vaso,,,,
,,,,,,6062876a9cb05fa535867e17,676192165fb32c2e1fb7aee6,67d0df53f296cba0fc348327,2025-03-11_22h12.00.737,Tarea de decisión léxica,2024.2.5,Win32,142.8571429,,,,,,,,,,,,,,,,,,,,,,,,532.2151,533.3257,l,1,0.4523,1,533.3257,533.8256,,,,,,428,FEM,NOWORD,AGR,150,oseva,,la,,0.4523,,533.8257,533.8257,0.705733157,0.027508012,0,0,0,,0,217,217,427,1,oreja,,,,
,,,,,,6062876a9cb05fa535867e17,676192165fb32c2e1fb7aee6,67d0df53f296cba0fc348327,2025-03-11_22h12.00.737,Tarea de decisión léxica,2024.2.5,Win32,142.8571429,,,,,,,,,,,,,,,,,,,,,,,,533.8262,534.7912,a,1,0.31,1,534.7912,535.2911,,,,,,77,MAS,WORD,DIS,150,loco,,la,,0.31,,535.2917,535.292,0.705733157,0.027508012,0,0,0,,0,218,218,76,1,fodo,,,,
,,,,,,6062876a9cb05fa535867e17,676192165fb32c2e1fb7aee6,67d0df53f296cba0fc348327,2025-03-11_22h12.00.737,Tarea de decisión léxica,2024.2.5,Win32,142.8571429,,,,,,,,,,,,,,,,,,,,,,,,535.2923,536.2357,a,1,0.2877,1,536.2358,536.7358,,,,,,471,FEM,WORD,AGR,150,grasa,,la,,0.2877,,536.7358,536.7358,0.705733157,0.027508012,0,0,0,,0,219,219,470,1,prana,,,,
,,,,,,6062876a9cb05fa535867e17,676192165fb32c2e1fb7aee6,67d0df53f296cba0fc348327,2025-03-11_22h12.00.737,Tarea de decisión léxica,2024.2.5,Win32,142.8571429,,,,,,,,,,,,,,,,,,,,,,,,536.7363,537.7637,l,1,0.3684,1,537.7637,538.2638,,,,,,330,MAS,NOWORD,DIS,150,nueno,,la,,0.3684,,538.2638,538.2638,0.705733157,0.027508012,0,0,0,,0,220,220,329,1,hueso,,,,
,,,,,,6062876a9cb05fa535867e17,676192165fb32c2e1fb7aee6,67d0df53f296cba0fc348327,2025-03-11_22h12.00.737,Tarea de decisión léxica,2024.2.5,Win32,142.8571429,,,,,,,,,,,,,,,,,,,,,,,,538.2644,539.1666,a,1,0.2467,1,539.1667,539.6678,,,,,,7,MAS,WORD,AGR,150,hijo,,el,,0.2467,,539.6678,539.6679,0.705733157,0.027508012,0,0,0,,0,221,221,6,1,nivo,,,,
,,,,,,6062876a9cb05fa535867e17,676192165fb32c2e1fb7aee6,67d0df53f296cba0fc348327,2025-03-11_22h12.00.737,Tarea de decisión léxica,2024.2.5,Win32,142.8571429,,,,,,,,,,,,,,,,,,,,,,,,539.6684,540.6806,a,1,0.3549,1,540.6807,541.1807,,,,,,253,MAS,WORD,DIS,150,chico,,la,,0.3549,,541.1807,541.1808,0.705733157,0.027508012,0,0,0,,0,222,222,252,1,trido,,,,
,,,,,,6062876a9cb05fa535867e17,676192165fb32c2e1fb7aee6,67d0df53f296cba0fc348327,2025-03-11_22h12.00.737,Tarea de decisión léxica,2024.2.5,Win32,142.8571429,,,,,,,,,,,,,,,,,,,,,,,,541.1813,542.2504,l,1,0.4136,1,542.2505,542.7504,,,,,,192,FEM,NOWORD,AGR,150,bila,,la,,0.4136,,542.7509,542.7513,0.705733157,0.027508012,0,0,0,,0,223,223,191,1,pila,,,,
,,,,,,6062876a9cb05fa535867e17,676192165fb32c2e1fb7aee6,67d0df53f296cba0fc348327,2025-03-11_22h12.00.737,Tarea de decisión léxica,2024.2.5,Win32,142.8571429,,,,,,,,,,,,,,,,,,,,,,,,542.7516,543.799,a,1,0.3861,1,543.7991,544.2993,,,,,,309,FEM,WORD,DIS,150,silla,,el,,0.3861,,544.2993,544.2994,0.705733157,0.027508012,0,0,0,,0,224,224,308,1,tirra,,,,
,,,,,,6062876a9cb05fa535867e17,676192165fb32c2e1fb7aee6,67d0df53f296cba0fc348327,2025-03-11_22h12.00.737,Tarea de decisión léxica,2024.2.5,Win32,142.8571429,,,,,,,,,,,,,,,,,,,,,,,,544.2999,545.3828,l,1,0.4261,1,545.3829,545.8826,,,,,,160,MAS,NOWORD,AGR,150,bilo,,el,,0.4261,,545.8826,545.8826,0.705733157,0.027508012,0,0,0,,0,225,225,159,1,giro,,,,
,,,,,,6062876a9cb05fa535867e17,676192165fb32c2e1fb7aee6,67d0df53f296cba0fc348327,2025-03-11_22h12.00.737,Tarea de decisión léxica,2024.2.5,Win32,142.8571429,,,,,,,,,,,,,,,,,,,,,,,,545.8832,546.8693,a,1,0.3332,1,546.8694,547.369,,,,,,445,MAS,WORD,DIS,150,actor,,la,,0.3332,,547.369,547.369,0.705733157,0.027508012,0,0,0,,0,226,226,444,1,ascor,,,,
,,,,,,6062876a9cb05fa535867e17,676192165fb32c2e1fb7aee6,67d0df53f296cba0fc348327,2025-03-11_22h12.00.737,Tarea de decisión léxica,2024.2.5,Win32,142.8571429,,,,,,,,,,,,,,,,,,,,,,,,547.3696,548.3066,a,1,0.2799,1,548.3066,548.8065,,,,,,69,FEM,WORD,DIS,150,zona,,el,,0.2799,,548.807,548.8075,0.705733157,0.027508012,0,0,0,,0,227,227,68,1,ñola,,,,
,,,,,,6062876a9cb05fa535867e17,676192165fb32c2e1fb7aee6,67d0df53f296cba0fc348327,2025-03-11_22h12.00.737,Tarea de decisión léxica,2024.2.5,Win32,142.8571429,,,,,,,,,,,,,,,,,,,,,,,,548.8078,549.7998,a,1,0.3347,1,549.7999,550.2998,,,,,,109,MAS,WORD,DIS,150,rayo,,la,,0.3347,,550.2998,550.2998,0.705733157,0.027508012,0,0,0,,0,228,228,108,1,suno,,,,
,,,,,,6062876a9cb05fa535867e17,676192165fb32c2e1fb7aee6,67d0df53f296cba0fc348327,2025-03-11_22h12.00.737,Tarea de decisión léxica,2024.2.5,Win32,142.8571429,,,,,,,,,,,,,,,,,,,,,,,,550.3003,551.3901,l,1,0.4341,1,551.3902,551.8902,,,,,,152,MAS,NOWORD,AGR,150,sogo,,el,,0.4341,,551.8902,551.8902,0.705733157,0.027508012,0,0,0,,0,229,229,151,1,tomo,,,,
,,,,,,6062876a9cb05fa535867e17,676192165fb32c2e1fb7aee6,67d0df53f296cba0fc348327,2025-03-11_22h12.00.737,Tarea de decisión léxica,2024.2.5,Win32,142.8571429,,,,,,,,,,,,,,,,,,,,,,,,551.8908,552.8348,a,1,0.2868,1,552.8349,553.3348,,,,,,79,FEM,WORD,AGR,150,piel,,la,,0.2868,,553.3348,553.3349,0.705733157,0.027508012,0,0,0,,0,230,230,78,1,ciel,,,,
,,,,,,6062876a9cb05fa535867e17,676192165fb32c2e1fb7aee6,67d0df53f296cba0fc348327,2025-03-11_22h12.00.737,Tarea de decisión léxica,2024.2.5,Win32,142.8571429,,,,,,,,,,,,,,,,,,,,,,,,553.3354,554.4183,l,1,0.4241,1,554.4183,554.9184,,,,,,214,FEM,NOWORD,DIS,150,bana,,el,,0.4241,,554.9184,554.9184,0.705733157,0.027508012,0,0,0,,0,231,231,213,1,rama,,,,
,,,,,,6062876a9cb05fa535867e17,676192165fb32c2e1fb7aee6,67d0df53f296cba0fc348327,2025-03-11_22h12.00.737,Tarea de decisión léxica,2024.2.5,Win32,142.8571429,,,,,,,,,,,,,,,,,,,,,,,,554.919,555.8977,a,1,0.3201,1,555.8977,556.3977,,,,,,97,MAS,WORD,DIS,150,mono,,la,,0.3201,,556.3983,556.3986,0.705733157,0.027508012,0,0,0,,0,232,232,96,1,fopo,,,,
,,,,,,6062876a9cb05fa535867e17,676192165fb32c2e1fb7aee6,67d0df53f296cba0fc348327,2025-03-11_22h12.00.737,Tarea de decisión léxica,2024.2.5,Win32,142.8571429,,,,,,,,,,,,,,,,,,,,,,,,556.3989,557.4603,l,1,0.4063,1,557.4604,557.9604,,,,,,388,FEM,NOWORD,AGR,150,bresa,,la,,0.4063,,557.9605,557.9605,0.705733157,0.027508012,0,0,0,,0,233,233,387,1,crema,,,,
,,,,,,6062876a9cb05fa535867e17,676192165fb32c2e1fb7aee6,67d0df53f296cba0fc348327,2025-03-11_22h12.00.737,Tarea de decisión léxica,2024.2.5,Win32,142.8571429,,,,,,,,,,,,,,,,,,,,,,,,557.961,559.016,a,1,0.4001,1,559.0161,559.5161,,,,,,457,MAS,WORD,DIS,150,plato,,la,,0.4001,,559.5161,559.5161,0.705733157,0.027508012,0,0,0,,0,234,234,456,1,glaco,,,,
,,,,,,6062876a9cb05fa535867e17,676192165fb32c2e1fb7aee6,67d0df53f296cba0fc348327,2025-03-11_22h12.00.737,Tarea de decisión léxica,2024.2.5,Win32,142.8571429,,,,,,,,,,,,,,,,,,,,,,,,559.5168,560.5441,l,1,0.3746,1,560.5442,561.0441,,,,,,448,MAS,NOWORD,AGR,150,buaso,,el,,0.3746,,561.0442,561.0442,0.705733157,0.027508012,0,0,0,,0,235,235,447,1,bolso,,,,
,,,,,,6062876a9cb05fa535867e17,676192165fb32c2e1fb7aee6,67d0df53f296cba0fc348327,2025-03-11_22h12.00.737,Tarea de decisión léxica,2024.2.5,Win32,142.8571429,,,,,,,,,,,,,,,,,,,,,,,,561.0447,562.1969,l,1,0.4982,1,562.197,562.6969,,,,,,346,FEM,NOWORD,DIS,150,anera,,el,,0.4982,,562.6969,562.697,0.705733157,0.027508012,0,0,0,,0,236,236,345,1,arena,,,,
,,,,,,6062876a9cb05fa535867e17,676192165fb32c2e1fb7aee6,67d0df53f296cba0fc348327,2025-03-11_22h12.00.737,Tarea de decisión léxica,2024.2.5,Win32,142.8571429,,,,,,,,,,,,,,,,,,,,,,,,562.6975,563.7249,a,1,0.369,1,563.725,564.225,,,,,,123,FEM,WORD,AGR,150,flor,,la,,0.369,,564.2255,564.2259,0.705733157,0.027508012,0,0,0,,0,237,237,122,1,maba,,,,
,,,,,,6062876a9cb05fa535867e17,676192165fb32c2e1fb7aee6,67d0df53f296cba0fc348327,2025-03-11_22h12.00.737,Tarea de decisión léxica,2024.2.5,Win32,142.8571429,,,,,,,,,,,,,,,,,,,,,,,,564.2262,565.3223,l,1,0.4393,1,565.3224,565.8226,,,,,,394,FEM,NOWORD,DIS,150,ashea,,el,,0.4393,,565.8226,565.8227,0.705733157,0.027508012,0,0,0,,0,238,238,393,1,aldea,,,,
,,,,,,6062876a9cb05fa535867e17,676192165fb32c2e1fb7aee6,67d0df53f296cba0fc348327,2025-03-11_22h12.00.737,Tarea de decisión léxica,2024.2.5,Win32,142.8571429,,,,,,,,,,,,,,,,,,,,,,,,565.8231,566.746,a,1,0.265,1,566.7461,567.2461,,,,,,443,MAS,WORD,AGR,150,salón,,el,,0.265,,567.2462,567.2462,0.705733157,0.027508012,0,0,0,,0,239,239,442,1,taron,,,,
,,,,,,6062876a9cb05fa535867e17,676192165fb32c2e1fb7aee6,67d0df53f296cba0fc348327,2025-03-11_22h12.00.737,Tarea de decisión léxica,2024.2.5,Win32,142.8571429,,,,,,,,,,,,,,,,,,,,,,,,567.2467,568.295,l,1,0.3935,1,568.295,568.795,,,,,,358,FEM,NOWORD,DIS,150,gruba,,el,,0.3935,,568.795,568.795,0.705733157,0.027508012,0,0,0,,0,240,240,357,1,bruja,,,,
,,,,,,6062876a9cb05fa535867e17,676192165fb32c2e1fb7aee6,67d0df53f296cba0fc348327,2025-03-11_22h12.00.737,Tarea de decisión léxica,2024.2.5,Win32,142.8571429,,,,,,,,,,,,,,,,,,,,,,,,568.7955,569.7256,a,1,0.2721,1,569.7256,570.2256,,,,,,389,MAS,WORD,DIS,150,cerdo,,la,,0.2721,,570.2257,570.2258,0.705733157,0.027508012,0,0,0,,0,241,241,388,1,cenco,,,,
,,,,,,6062876a9cb05fa535867e17,676192165fb32c2e1fb7aee6,67d0df53f296cba0fc348327,2025-03-11_22h12.00.737,Tarea de decisión léxica,2024.2.5,Win32,142.8571429,,,,,,,,,,,,,,,,,,,,,,,,570.2262,571.3369,l,0,0.4568,0,571.3372,571.8369,,,,,,225,MAS,WORD,DIS,150,lodo,,la,,0.4568,,571.8374,571.8378,0.705733157,0.027508012,0,0,0,,0,242,242,224,1,boco,,,,
,,,,,,6062876a9cb05fa535867e17,676192165fb32c2e1fb7aee6,67d0df53f296cba0fc348327,2025-03-11_22h12.00.737,Tarea de decisión léxica,2024.2.5,Win32,142.8571429,,,,,,,,,,,,,,,,,,,,,,,,571.8381,573.2121,a,1,0.7115,1,573.2126,573.7122,,,,,,369,MAS,WORD,DIS,150,ruido,,la,,0.7115,,573.7122,573.7122,0.705733157,0.027508012,0,0,0,,0,243,243,368,1,rioco,,,,
,,,,,,6062876a9cb05fa535867e17,676192165fb32c2e1fb7aee6,67d0df53f296cba0fc348327,2025-03-11_22h12.00.737,Tarea de decisión léxica,2024.2.5,Win32,142.8571429,,,,,,,,,,,,,,,,,,,,,,,,573.7128,575.0387,l,1,0.6713,1,575.0387,575.5388,,,,,,392,MAS,NOWORD,AGR,150,dievo,,el,,0.6713,,575.5388,575.5389,0.705733157,0.027508012,0,0,0,,0,244,244,391,1,dueño,,,,
,,,,,,6062876a9cb05fa535867e17,676192165fb32c2e1fb7aee6,67d0df53f296cba0fc348327,2025-03-11_22h12.00.737,Tarea de decisión léxica,2024.2.5,Win32,142.8571429,,,,,,,,,,,,,,,,,,,,,,,,575.5394,576.5389,a,1,0.3423,1,576.539,577.0388,,,,,,413,FEM,WORD,DIS,150,rueda,,el,,0.3423,,577.0388,577.0389,0.705733157,0.027508012,0,0,0,,0,245,245,412,1,bieda,,,,
,,,,,,6062876a9cb05fa535867e17,676192165fb32c2e1fb7aee6,67d0df53f296cba0fc348327,2025-03-11_22h12.00.737,Tarea de decisión léxica,2024.2.5,Win32,142.8571429,,,,,,,,,,,,,,,,,,,,,,,,577.0395,578.2825,l,1,0.5898,1,578.2825,578.7822,,,,,,316,FEM,NOWORD,AGR,150,riosa,,la,,0.5898,,578.7823,578.7823,0.705733157,0.027508012,0,0,0,,0,246,246,315,1,reina,,,,
,,,,,,6062876a9cb05fa535867e17,676192165fb32c2e1fb7aee6,67d0df53f296cba0fc348327,2025-03-11_22h12.00.737,Tarea de decisión léxica,2024.2.5,Win32,142.8571429,,,,,,,,,,,,,,,,,,,,,,,,578.7828,580.3102,l,1,0.8742,1,580.3102,580.8101,,,,,,106,FEM,NOWORD,DIS,150,vina,,el,,0.8742,,580.8106,580.811,0.705733157,0.027508012,0,0,0,,0,247,247,105,1,sopa,,,,
,,,,,,6062876a9cb05fa535867e17,676192165fb32c2e1fb7aee6,67d0df53f296cba0fc348327,2025-03-11_22h12.00.737,Tarea de decisión léxica,2024.2.5,Win32,142.8571429,,,,,,,,,,,,,,,,,,,,,,,,580.8113,581.8799,a,1,0.4164,1,581.8799,582.3798,,,,,,91,FEM,WORD,AGR,150,taza,,la,,0.4164,,582.3799,582.38,0.705733157,0.027508012,0,0,0,,0,248,248,90,1,sava,,,,
,,,,,,6062876a9cb05fa535867e17,676192165fb32c2e1fb7aee6,67d0df53f296cba0fc348327,2025-03-11_22h12.00.737,Tarea de decisión léxica,2024.2.5,Win32,142.8571429,,,,,,,,,,,,,,,,,,,,,,,,582.3804,583.38,a,1,0.3415,1,583.38,583.8802,,,,,,447,MAS,WORD,AGR,150,bolso,,el,,0.3415,,583.8802,583.8803,0.705733157,0.027508012,0,0,0,,0,249,249,446,1,buaso,,,,
,,,,,,6062876a9cb05fa535867e17,676192165fb32c2e1fb7aee6,67d0df53f296cba0fc348327,2025-03-11_22h12.00.737,Tarea de decisión léxica,2024.2.5,Win32,142.8571429,,,,,,,,,,,,,,,,,,,,,,,,583.8809,585.4149,a,0,0.8788,0,585.4153,585.9149,,,,,,418,FEM,NOWORD,DIS,150,banja,,el,,0.8788,,585.9149,585.915,0.705733157,0.027508012,0,0,0,,0,250,250,417,1,barba,,,,
,,,,,,6062876a9cb05fa535867e17,676192165fb32c2e1fb7aee6,67d0df53f296cba0fc348327,2025-03-11_22h12.00.737,Tarea de decisión léxica,2024.2.5,Win32,142.8571429,,,,,,,,,,,,,,,,,,,,,,,,585.9155,587.1582,l,1,0.5845,1,587.1586,587.6583,,,,,,264,FEM,NOWORD,AGR,150,dosta,,la,,0.5845,,587.6589,587.6592,0.705733157,0.027508012,0,0,0,,0,251,251,263,1,vista,,,,
,,,,,,6062876a9cb05fa535867e17,676192165fb32c2e1fb7aee6,67d0df53f296cba0fc348327,2025-03-11_22h12.00.737,Tarea de decisión léxica,2024.2.5,Win32,142.8571429,,,,,,,,,,,,,,,,,,,,,,,,587.6595,588.6791,a,1,0.355,1,588.6792,589.1793,,,,,,377,MAS,WORD,DIS,150,hielo,,la,,0.355,,589.1793,589.1794,0.705733157,0.027508012,0,0,0,,0,252,252,376,1,gaulo,,,,
,,,,,,6062876a9cb05fa535867e17,676192165fb32c2e1fb7aee6,67d0df53f296cba0fc348327,2025-03-11_22h12.00.737,Tarea de decisión léxica,2024.2.5,Win32,142.8571429,,,,,,,,,,,,,,,,,,,,,,,,589.1798,590.3738,l,1,0.5361,1,590.3739,590.8738,,,,,,260,MAS,NOWORD,AGR,150,jaumo,,el,,0.5361,,590.8738,590.8739,0.705733157,0.027508012,0,0,0,,0,253,253,259,1,juego,,,,
,,,,,,6062876a9cb05fa535867e17,676192165fb32c2e1fb7aee6,67d0df53f296cba0fc348327,2025-03-11_22h12.00.737,Tarea de decisión léxica,2024.2.5,Win32,142.8571429,,,,,,,,,,,,,,,,,,,,,,,,590.8743,592.0266,l,1,0.4937,1,592.0267,592.5268,,,,,,60,FEM,NOWORD,AGR,150,tafa,,la,,0.4937,,592.5268,592.5268,0.705733157,0.027508012,0,0,0,,0,254,254,59,1,sala,,,,
,,,,,,6062876a9cb05fa535867e17,676192165fb32c2e1fb7aee6,67d0df53f296cba0fc348327,2025-03-11_22h12.00.737,Tarea de decisión léxica,2024.2.5,Win32,142.8571429,,,,,,,,,,,,,,,,,,,,,,,,592.5273,593.52,a,1,0.3359,1,593.5201,594.02,,,,,,73,MAS,WORD,DIS,150,odio,,la,,0.3359,,594.0201,594.0201,0.705733157,0.027508012,0,0,0,,0,255,255,72,1,omio,,,,
,,,,,,6062876a9cb05fa535867e17,676192165fb32c2e1fb7aee6,67d0df53f296cba0fc348327,2025-03-11_22h12.00.737,Tarea de decisión léxica,2024.2.5,Win32,142.8571429,,,,,,,,,,,,,,,,,,,,,,,,594.0206,595.1243,l,1,0.4393,1,595.1244,595.6243,,,,,,116,FEM,NOWORD,AGR,150,haca,,la,,0.4393,,595.6248,595.6253,0.705733157,0.027508012,0,0,0,,0,256,256,115,1,pata,,,,
,,,,,,6062876a9cb05fa535867e17,676192165fb32c2e1fb7aee6,67d0df53f296cba0fc348327,2025-03-11_22h12.00.737,Tarea de decisión léxica,2024.2.5,Win32,142.8571429,,,,,,,,,,,,,,,,,,,,,,,,595.6255,596.8884,a,1,0.608,1,596.8886,597.3884,,,,,,393,FEM,WORD,DIS,150,aldea,,el,,0.608,,597.3884,597.3884,0.705733157,0.027508012,0,0,0,,0,257,257,392,1,ashea,,,,
,,,,,,6062876a9cb05fa535867e17,676192165fb32c2e1fb7aee6,67d0df53f296cba0fc348327,2025-03-11_22h12.00.737,Tarea de decisión léxica,2024.2.5,Win32,142.8571429,,,,,,,,,,,,,,,,,,,,,,,,597.389,598.5206,l,1,0.4762,1,598.5207,599.0206,,,,,,370,MAS,NOWORD,DIS,150,rioco,,la,,0.4762,,599.0206,599.0206,0.705733157,0.027508012,0,0,0,,0,258,258,369,1,ruido,,,,
,,,,,,6062876a9cb05fa535867e17,676192165fb32c2e1fb7aee6,67d0df53f296cba0fc348327,2025-03-11_22h12.00.737,Tarea de decisión léxica,2024.2.5,Win32,142.8571429,,,,,,,,,,,,,,,,,,,,,,,,599.0211,600.0901,a,1,0.4136,1,600.0902,600.5902,,,,,,221,FEM,WORD,DIS,150,mula,,el,,0.4136,,600.5902,600.5903,0.705733157,0.027508012,0,0,0,,0,259,259,220,1,puca,,,,
,,,,,,6062876a9cb05fa535867e17,676192165fb32c2e1fb7aee6,67d0df53f296cba0fc348327,2025-03-11_22h12.00.737,Tarea de decisión léxica,2024.2.5,Win32,142.8571429,,,,,,,,,,,,,,,,,,,,,,,,600.5908,601.6181,a,1,0.3689,1,601.6181,602.1181,,,,,,453,FEM,WORD,DIS,150,mafia,,el,,0.3689,,602.1181,602.1181,0.705733157,0.027508012,0,0,0,,0,260,260,452,1,pafia,,,,
,,,,,,6062876a9cb05fa535867e17,676192165fb32c2e1fb7aee6,67d0df53f296cba0fc348327,2025-03-11_22h12.00.737,Tarea de decisión léxica,2024.2.5,Win32,142.8571429,,,,,,,,,,,,,,,,,,,,,,,,602.1187,603.1877,l,1,0.4146,1,603.1877,603.6877,,,,,,284,MAS,NOWORD,AGR,150,tuevo,,el,,0.4146,,603.6882,603.6887,0.705733157,0.027508012,0,0,0,,0,261,261,283,1,sueño,,,,
,,,,,,6062876a9cb05fa535867e17,676192165fb32c2e1fb7aee6,67d0df53f296cba0fc348327,2025-03-11_22h12.00.737,Tarea de decisión léxica,2024.2.5,Win32,142.8571429,,,,,,,,,,,,,,,,,,,,,,,,603.689,604.8614,l,1,0.5107,1,604.8615,605.3617,,,,,,440,FEM,NOWORD,AGR,150,prema,,la,,0.5107,,605.3617,605.3617,0.705733157,0.027508012,0,0,0,,0,262,262,439,1,presa,,,,
,,,,,,6062876a9cb05fa535867e17,676192165fb32c2e1fb7aee6,67d0df53f296cba0fc348327,2025-03-11_22h12.00.737,Tarea de decisión léxica,2024.2.5,Win32,142.8571429,,,,,,,,,,,,,,,,,,,,,,,,605.3622,606.32,a,1,0.2931,1,606.32,606.8201,,,,,,273,FEM,WORD,DIS,150,broma,,el,,0.2931,,606.8201,606.8202,0.705733157,0.027508012,0,0,0,,0,263,263,272,1,frosa,,,,
