counterbalancing_condition,consent_prescreening.block_1/declare_consent,consent_prescreening.block_1/age_years,consent_prescreening.block_1/gender,consent_prescreening.block_1/language_disorder,consent_prescreening.block_1/first_language,PROLIFIC_PID,STUDY_ID,SESSION_ID,date,expName,psychopyVersion,OS,frameRate,check_prescreening_answers.started,check_prescreening_answers.stopped,Instructions.started,Instructions.stopped,instr_done_keyboard.keys,instr_done_keyboard.rt,instr_done_keyboard.duration,instr_done_touch.x,instr_done_touch.y,instr_done_touch.leftButton,instr_done_touch.midButton,instr_done_touch.rightButton,instruction_pages.thisRepN,instruction_pages.thisTrialN,instruction_pages.thisN,instruction_pages.thisIndex,instruction_pages.ran,pageN,phase,instruct_text,has_image,instruct_image,presentTrial.started,presentTrial.stopped,response.keys,response.corr,response.rt,response.duration,rt,corr,feedback.started,feedback.stopped,practice_trials.thisRepN,practice_trials.thisTrialN,practice_trials.thisN,practice_trials.thisIndex,practice_trials.ran,TrialID,Gender,StimulusType,Condition,PrimeDuration,Prime,len,Flanker,corrAns,Break.started,Break.stopped,break_done_touch.x,break_done_touch.y,break_done_touch.leftButton,break_done_touch.midButton,break_done_touch.rightButton,break_done_keyboard.keys,experiment_trials.thisRepN,experiment_trials.thisTrialN,experiment_trials.thisN,experiment_trials.thisIndex,experiment_trials.ran,PairedWith,break_done_keyboard.rt,break_done_keyboard.duration,End.started,End.stopped
0,"[""over_18"",""comfortable"",""read_info"",""consent_given""]",22,M,"[""none""]","[""spanish""]",606f6be3361bd05af7ab3952,676192165fb32c2e1fb7aee6,67d19405ed4a70fc61932974,2025-03-12_11h03.19.479,Tarea de decisión léxica,2024.2.5,Win32,142.8571429,,,,,,,,,,,,,,,,,,,,,,,,,,,,,,,,,,,,,,,,,,,,,,,,,,,,,,,,,,,,,,,,
,,,,,,606f6be3361bd05af7ab3952,676192165fb32c2e1fb7aee6,67d19405ed4a70fc61932974,2025-03-12_11h03.19.479,Tarea de decisión léxica,2024.2.5,Win32,142.8571429,47.9274,47.9274,,,,,,,,,,,,,,,,,,,,,,,,,,,,,,,,,,,,,,,,,,,,,,,,,,,,,,,,,,,,,,
,,,,,,606f6be3361bd05af7ab3952,676192165fb32c2e1fb7aee6,67d19405ed4a70fc61932974,2025-03-12_11h03.19.479,Tarea de decisión léxica,2024.2.5,Win32,142.8571429,,,47.9357,59.5234,space,11.5674,,0.628703704,-0.208333333,0,0,0,0,0,0,0,1,1,instructions,"INSTRUCCIONES
Va a realizar una prueba de decisión léxica. Desde el comienzo de la prueba mire siempre al centro de la pantalla. Se presentará una serie de cadenas de letras, una a la vez, en la pantalla. Su tarea consiste en determinar si cada cadena de letras constituye una palabra real en español o una no-palabra (una secuencia de letras que no constituye una palabra real). 

Pulse la tecla ESPACIO para continuar.",0,keyboardresponseNW.png,,,,,,,,,,,,,,,,,,,,,,,,,,,,,,,,,,,,,,,,,,
,,,,,,606f6be3361bd05af7ab3952,676192165fb32c2e1fb7aee6,67d19405ed4a70fc61932974,2025-03-12_11h03.19.479,Tarea de decisión léxica,2024.2.5,Win32,142.8571429,,,59.5246,70.1359,space,10.6045,,0.62962963,-0.207407407,0,0,0,0,1,1,1,1,2,instructions,"El procedimiento es el siguiente: Aparecerán dos barras verticales posicionadas en el centro de la pantalla, separadas por un pequeño espacio.Por favor, enfoque su atención en el espacio entre las barras. Esto preparará sus ojos para la siguiente cadena de letras, que aparecerá entre las dos barras durante un instante.

Pulse la tecla ESPACIO para continuar.",0,keyboardresponseNW.png,,,,,,,,,,,,,,,,,,,,,,,,,,,,,,,,,,,,,,,,,,
,,,,,,606f6be3361bd05af7ab3952,676192165fb32c2e1fb7aee6,67d19405ed4a70fc61932974,2025-03-12_11h03.19.479,Tarea de decisión léxica,2024.2.5,Win32,142.8571429,,,70.1368,86.7358,space,16.5706,,0.62962963,-0.207407407,0,0,0,0,2,2,2,1,3,instructions,"En el teclado de su dispositivo, pulse la tecla ""L"" si la cadena de letras es una palabra real en español (por ejemplo: ""mano"") y la tecla ""A"" si la cadena de letras es una no-palabra (por ejemplo: ""minu"").
Pulse la tecla ESPACIO para continuar.",1,keyboardresponseNW.png,,,,,,,,,,,,,,,,,,,,,,,,,,,,,,,,,,,,,,,,,,
,,,,,,606f6be3361bd05af7ab3952,676192165fb32c2e1fb7aee6,67d19405ed4a70fc61932974,2025-03-12_11h03.19.479,Tarea de decisión léxica,2024.2.5,Win32,142.8571429,,,86.7372,96.8693,space,10.1195,,0.62962963,-0.207407407,0,0,0,0,3,3,3,1,4,instructions,"Es muy importante que responda con la mayor rapidez y precisión posibles. Si no responde dentro de 2 segundos, aparecerá el mensaje ""Muy lento"" y el experimento pasará a la siguiente palabra. Inmediatamente después de su respuesta se indicará si fue correcta o no. Los primeros 15 intentos serán de práctica y habrá dos descansos durante la prueba.

Pulse la tecla ESPACIO  para iniciar la parte de práctica.",0,keyboardresponseNW.png,,,,,,,,,,,,,,,,,,,,,,,,,,,,,,,,,,,,,,,,,,
,,,,,,606f6be3361bd05af7ab3952,676192165fb32c2e1fb7aee6,67d19405ed4a70fc61932974,2025-03-12_11h03.19.479,Tarea de decisión léxica,2024.2.5,Win32,142.8571429,,,,,,,,,,,,,,,,,,,,,,,96.8759,98.3905,a,1,0.8544,,0.8544,1,98.3907,98.8905,0,0,0,3,1,1004,FEM,NOWORD,AGR,150,bireo,5,la,a,,,,,,,,,,,,,,,,,,
,,,,,,606f6be3361bd05af7ab3952,676192165fb32c2e1fb7aee6,67d19405ed4a70fc61932974,2025-03-12_11h03.19.479,Tarea de decisión léxica,2024.2.5,Win32,142.8571429,,,,,,,,,,,,,,,,,,,,,,,98.8912,100.0295,a,1,0.4835,,0.4835,1,100.0296,100.5297,0,1,1,1,1,1002,FEM,NOWORD,DIS,150,mabo,4,el,a,,,,,,,,,,,,,,,,,,
,,,,,,606f6be3361bd05af7ab3952,676192165fb32c2e1fb7aee6,67d19405ed4a70fc61932974,2025-03-12_11h03.19.479,Tarea de decisión léxica,2024.2.5,Win32,142.8571429,,,,,,,,,,,,,,,,,,,,,,,100.5304,101.8562,l,1,0.6694,,0.6694,1,101.8563,102.3563,0,2,2,9,1,1010,MAS,WORD,DIS,150,video,5,la,l,,,,,,,,,,,,,,,,,,
,,,,,,606f6be3361bd05af7ab3952,676192165fb32c2e1fb7aee6,67d19405ed4a70fc61932974,2025-03-12_11h03.19.479,Tarea de decisión léxica,2024.2.5,Win32,142.8571429,,,,,,,,,,,,,,,,,,,,,,,102.357,103.44,l,1,0.4236,,0.4236,1,103.44,103.94,0,3,3,6,1,1007,MAS,WORD,DIS,150,masa,4,la,l,,,,,,,,,,,,,,,,,,
,,,,,,606f6be3361bd05af7ab3952,676192165fb32c2e1fb7aee6,67d19405ed4a70fc61932974,2025-03-12_11h03.19.479,Tarea de decisión léxica,2024.2.5,Win32,142.8571429,,,,,,,,,,,,,,,,,,,,,,,103.9408,105.1346,l,1,0.5348,,0.5348,1,105.1347,105.6347,0,4,4,7,1,1008,MAS,WORD,DIS,150,frío,4,la,l,,,,,,,,,,,,,,,,,,
,,,,,,606f6be3361bd05af7ab3952,676192165fb32c2e1fb7aee6,67d19405ed4a70fc61932974,2025-03-12_11h03.19.479,Tarea de decisión léxica,2024.2.5,Win32,142.8571429,,,,,,,,,,,,,,,,,,,,,,,105.6354,106.857,a,1,0.5663,,0.5663,1,106.8571,107.3571,0,5,5,0,1,1001,FEM,NOWORD,AGR,150,croz,4,la,a,,,,,,,,,,,,,,,,,,
,,,,,,606f6be3361bd05af7ab3952,676192165fb32c2e1fb7aee6,67d19405ed4a70fc61932974,2025-03-12_11h03.19.479,Tarea de decisión léxica,2024.2.5,Win32,142.8571429,,,,,,,,,,,,,,,,,,,,,,,107.3577,108.3642,a,0,0.3508,,0.3508,0,108.3648,108.8643,0,6,6,8,1,1009,FEM,WORD,AGR,150,viejo,5,la,l,,,,,,,,,,,,,,,,,,
,,,,,,606f6be3361bd05af7ab3952,676192165fb32c2e1fb7aee6,67d19405ed4a70fc61932974,2025-03-12_11h03.19.479,Tarea de decisión léxica,2024.2.5,Win32,142.8571429,,,,,,,,,,,,,,,,,,,,,,,108.8648,110.0034,a,1,0.4793,,0.4793,1,110.0037,110.5035,0,7,7,4,1,1005,MAS,NOWORD,DIS,150,nobad,5,la,a,,,,,,,,,,,,,,,,,,
,,,,,,606f6be3361bd05af7ab3952,676192165fb32c2e1fb7aee6,67d19405ed4a70fc61932974,2025-03-12_11h03.19.479,Tarea de decisión léxica,2024.2.5,Win32,142.8571429,,,,,,,,,,,,,,,,,,,,,,,110.5039,111.7258,l,1,0.563,,0.563,1,111.7258,112.2259,0,8,8,5,1,1006,FEM,WORD,AGR,150,cara,4,la,l,,,,,,,,,,,,,,,,,,
,,,,,,606f6be3361bd05af7ab3952,676192165fb32c2e1fb7aee6,67d19405ed4a70fc61932974,2025-03-12_11h03.19.479,Tarea de decisión léxica,2024.2.5,Win32,142.8571429,,,,,,,,,,,,,,,,,,,,,,,112.2266,113.2818,a,1,0.3993,,0.3993,1,113.2818,113.7819,0,9,9,2,1,1003,FEM,NOWORD,DIS,150,muvor,5,el,a,,,,,,,,,,,,,,,,,,
,,,,,,606f6be3361bd05af7ab3952,676192165fb32c2e1fb7aee6,67d19405ed4a70fc61932974,2025-03-12_11h03.19.479,Tarea de decisión léxica,2024.2.5,Win32,142.8571429,,,120.395,129.2567,space,8.854,,0.62962963,-0.207407407,0,0,0,,,,,,,,,,,129.2735,130.6456,a,1,0.7093,,0.7093,1,130.6457,131.1457,,,,,,304,MAS,NOWORD,AGR,150,lanco,,el,,131.1458,131.1473,0.62962963,-0.207407407,0,0,0,,0,0,0,303,1,barco,,,,
,,,,,,606f6be3361bd05af7ab3952,676192165fb32c2e1fb7aee6,67d19405ed4a70fc61932974,2025-03-12_11h03.19.479,Tarea de decisión léxica,2024.2.5,Win32,142.8571429,,,,,,,,,,,,,,,,,,,,,,,131.1477,132.3471,l,1,0.542,,0.542,1,132.3472,132.8473,,,,,,199,MAS,WORD,DIS,150,lazo,,la,,132.8473,132.8474,0.62962963,-0.207407407,0,0,0,,0,1,1,198,1,fano,,,,
,,,,,,606f6be3361bd05af7ab3952,676192165fb32c2e1fb7aee6,67d19405ed4a70fc61932974,2025-03-12_11h03.19.479,Tarea de decisión léxica,2024.2.5,Win32,142.8571429,,,,,,,,,,,,,,,,,,,,,,,132.8478,134.2989,a,1,0.7918,,0.7918,1,134.299,134.799,,,,,,460,MAS,NOWORD,AGR,150,fraco,,el,,134.7994,134.7998,0.62962963,-0.207407407,0,0,0,,0,2,2,459,1,grado,,,,
,,,,,,606f6be3361bd05af7ab3952,676192165fb32c2e1fb7aee6,67d19405ed4a70fc61932974,2025-03-12_11h03.19.479,Tarea de decisión léxica,2024.2.5,Win32,142.8571429,,,,,,,,,,,,,,,,,,,,,,,134.8002,135.7298,l,1,0.2731,,0.2731,1,135.7298,136.2299,,,,,,259,MAS,WORD,DIS,150,juego,,la,,136.2299,136.2299,0.62962963,-0.207407407,0,0,0,,0,3,3,258,1,jaumo,,,,
,,,,,,606f6be3361bd05af7ab3952,676192165fb32c2e1fb7aee6,67d19405ed4a70fc61932974,2025-03-12_11h03.19.479,Tarea de decisión léxica,2024.2.5,Win32,142.8571429,,,,,,,,,,,,,,,,,,,,,,,136.2304,137.2301,a,1,0.3424,,0.3424,1,137.2301,137.7301,,,,,,290,FEM,NOWORD,DIS,150,bumpa,,el,,137.7301,137.7302,0.62962963,-0.207407407,0,0,0,,0,4,4,289,1,bomba,,,,
,,,,,,606f6be3361bd05af7ab3952,676192165fb32c2e1fb7aee6,67d19405ed4a70fc61932974,2025-03-12_11h03.19.479,Tarea de decisión léxica,2024.2.5,Win32,142.8571429,,,,,,,,,,,,,,,,,,,,,,,137.7306,138.876,a,1,0.4863,,0.4863,1,138.8761,139.3761,,,,,,316,FEM,NOWORD,AGR,150,riosa,,la,,139.3761,139.3761,0.62962963,-0.207407407,0,0,0,,0,5,5,315,1,reina,,,,
,,,,,,606f6be3361bd05af7ab3952,676192165fb32c2e1fb7aee6,67d19405ed4a70fc61932974,2025-03-12_11h03.19.479,Tarea de decisión léxica,2024.2.5,Win32,142.8571429,,,,,,,,,,,,,,,,,,,,,,,139.3769,140.3971,l,1,0.3613,,0.3613,1,140.3971,140.8972,,,,,,451,FEM,WORD,AGR,150,fruta,,la,,140.8972,140.8973,0.62962963,-0.207407407,0,0,0,,0,6,6,450,1,clita,,,,
,,,,,,606f6be3361bd05af7ab3952,676192165fb32c2e1fb7aee6,67d19405ed4a70fc61932974,2025-03-12_11h03.19.479,Tarea de decisión léxica,2024.2.5,Win32,142.8571429,,,,,,,,,,,,,,,,,,,,,,,140.8977,142.0501,a,1,0.4935,,0.4935,1,142.0502,142.5502,,,,,,62,FEM,NOWORD,DIS,150,efla,,el,,142.5507,142.551,0.62962963,-0.207407407,0,0,0,,0,7,7,61,1,obra,,,,
,,,,,,606f6be3361bd05af7ab3952,676192165fb32c2e1fb7aee6,67d19405ed4a70fc61932974,2025-03-12_11h03.19.479,Tarea de decisión léxica,2024.2.5,Win32,142.8571429,,,,,,,,,,,,,,,,,,,,,,,142.5513,143.6616,a,1,0.4551,,0.4551,1,143.6617,144.1617,,,,,,354,FEM,NOWORD,DIS,150,cezca,,el,,144.1618,144.1618,0.62962963,-0.207407407,0,0,0,,0,8,8,353,1,celda,,,,
,,,,,,606f6be3361bd05af7ab3952,676192165fb32c2e1fb7aee6,67d19405ed4a70fc61932974,2025-03-12_11h03.19.479,Tarea de decisión léxica,2024.2.5,Win32,142.8571429,,,,,,,,,,,,,,,,,,,,,,,144.1624,145.3077,a,1,0.4863,,0.4863,1,145.3077,145.8079,,,,,,120,MAS,NOWORD,AGR,150,hooy,,el,,145.8079,145.8079,0.62962963,-0.207407407,0,0,0,,0,9,9,119,1,pozo,,,,
,,,,,,606f6be3361bd05af7ab3952,676192165fb32c2e1fb7aee6,67d19405ed4a70fc61932974,2025-03-12_11h03.19.479,Tarea de decisión léxica,2024.2.5,Win32,142.8571429,,,,,,,,,,,,,,,,,,,,,,,145.8084,146.8843,a,1,0.4199,,0.4199,1,146.8843,147.3845,,,,,,28,MAS,NOWORD,AGR,150,ravo,,el,,147.3845,147.3845,0.62962963,-0.207407407,0,0,0,,0,10,10,27,1,baño,,,,
,,,,,,606f6be3361bd05af7ab3952,676192165fb32c2e1fb7aee6,67d19405ed4a70fc61932974,2025-03-12_11h03.19.479,Tarea de decisión léxica,2024.2.5,Win32,142.8571429,,,,,,,,,,,,,,,,,,,,,,,147.3849,148.5026,a,1,0.4583,,0.4583,1,148.5027,149.0026,,,,,,444,MAS,NOWORD,AGR,150,taron,,el,,149.0031,149.0035,0.62962963,-0.207407407,0,0,0,,0,11,11,443,1,salón,,,,
,,,,,,606f6be3361bd05af7ab3952,676192165fb32c2e1fb7aee6,67d19405ed4a70fc61932974,2025-03-12_11h03.19.479,Tarea de decisión léxica,2024.2.5,Win32,142.8571429,,,,,,,,,,,,,,,,,,,,,,,149.0038,150.1696,a,1,0.5101,,0.5101,1,150.1696,150.6697,,,,,,236,FEM,NOWORD,AGR,150,tria,,la,,150.6697,150.6697,0.62962963,-0.207407407,0,0,0,,0,12,12,235,1,grúa,,,,
,,,,,,606f6be3361bd05af7ab3952,676192165fb32c2e1fb7aee6,67d19405ed4a70fc61932974,2025-03-12_11h03.19.479,Tarea de decisión léxica,2024.2.5,Win32,142.8571429,,,,,,,,,,,,,,,,,,,,,,,150.6702,151.6004,a,1,0.2751,,0.2751,1,151.6004,152.1004,,,,,,124,FEM,NOWORD,AGR,150,maba,,la,,152.1005,152.1006,0.62962963,-0.207407407,0,0,0,,0,13,13,123,1,flor,,,,
,,,,,,606f6be3361bd05af7ab3952,676192165fb32c2e1fb7aee6,67d19405ed4a70fc61932974,2025-03-12_11h03.19.479,Tarea de decisión léxica,2024.2.5,Win32,142.8571429,,,,,,,,,,,,,,,,,,,,,,,152.101,152.9617,a,1,0.2041,,0.2041,1,152.9617,153.4618,,,,,,356,FEM,NOWORD,AGR,150,bepla,,la,,153.4618,153.4618,0.62962963,-0.207407407,0,0,0,,0,14,14,355,1,regla,,,,
,,,,,,606f6be3361bd05af7ab3952,676192165fb32c2e1fb7aee6,67d19405ed4a70fc61932974,2025-03-12_11h03.19.479,Tarea de decisión léxica,2024.2.5,Win32,142.8571429,,,,,,,,,,,,,,,,,,,,,,,153.4623,154.316,a,0,0.1991,,0.1991,0,154.3164,154.8161,,,,,,447,MAS,WORD,AGR,150,bolso,,el,,154.8161,154.8161,0.62962963,-0.207407407,0,0,0,,0,15,15,446,1,buaso,,,,
,,,,,,606f6be3361bd05af7ab3952,676192165fb32c2e1fb7aee6,67d19405ed4a70fc61932974,2025-03-12_11h03.19.479,Tarea de decisión léxica,2024.2.5,Win32,142.8571429,,,,,,,,,,,,,,,,,,,,,,,154.8166,155.9414,l,1,0.4659,,0.4659,1,155.9418,156.4414,,,,,,471,FEM,WORD,DIS,150,grasa,,el,,156.4419,156.4423,0.62962963,-0.207407407,0,0,0,,0,16,16,470,1,prana,,,,
,,,,,,606f6be3361bd05af7ab3952,676192165fb32c2e1fb7aee6,67d19405ed4a70fc61932974,2025-03-12_11h03.19.479,Tarea de decisión léxica,2024.2.5,Win32,142.8571429,,,,,,,,,,,,,,,,,,,,,,,156.4425,157.3998,a,0,0.2984,,0.2984,0,157.4002,157.9,,,,,,397,FEM,WORD,AGR,150,tribu,,la,,157.9001,157.9001,0.62962963,-0.207407407,0,0,0,,0,17,17,396,1,trigi,,,,
,,,,,,606f6be3361bd05af7ab3952,676192165fb32c2e1fb7aee6,67d19405ed4a70fc61932974,2025-03-12_11h03.19.479,Tarea de decisión léxica,2024.2.5,Win32,142.8571429,,,,,,,,,,,,,,,,,,,,,,,157.9005,158.9417,a,1,0.382,,0.382,1,158.9421,159.4418,,,,,,396,FEM,NOWORD,AGR,150,paeda,,la,,159.4418,159.4418,0.62962963,-0.207407407,0,0,0,,0,18,18,395,1,caída,,,,
,,,,,,606f6be3361bd05af7ab3952,676192165fb32c2e1fb7aee6,67d19405ed4a70fc61932974,2025-03-12_11h03.19.479,Tarea de decisión léxica,2024.2.5,Win32,142.8571429,,,,,,,,,,,,,,,,,,,,,,,159.4424,160.5739,l,0,0.4717,,0.4717,0,160.5743,161.074,,,,,,64,FEM,NOWORD,AGR,150,funa,,la,,161.074,161.074,0.62962963,-0.207407407,0,0,0,,0,19,19,63,1,luna,,,,
,,,,,,606f6be3361bd05af7ab3952,676192165fb32c2e1fb7aee6,67d19405ed4a70fc61932974,2025-03-12_11h03.19.479,Tarea de decisión léxica,2024.2.5,Win32,142.8571429,,,,,,,,,,,,,,,,,,,,,,,161.0744,162.1921,a,1,0.462,,0.462,1,162.1925,162.6923,,,,,,476,FEM,NOWORD,AGR,150,mucta,,la,,162.6924,162.6924,0.62962963,-0.207407407,0,0,0,,0,20,20,475,1,manta,,,,
,,,,,,606f6be3361bd05af7ab3952,676192165fb32c2e1fb7aee6,67d19405ed4a70fc61932974,2025-03-12_11h03.19.479,Tarea de decisión léxica,2024.2.5,Win32,142.8571429,,,,,,,,,,,,,,,,,,,,,,,162.6928,163.9703,l,1,0.6182,,0.6182,1,163.9704,164.4704,,,,,,469,MAS,WORD,DIS,150,patio,,la,,164.4708,164.4712,0.62962963,-0.207407407,0,0,0,,0,21,21,468,1,matia,,,,
,,,,,,606f6be3361bd05af7ab3952,676192165fb32c2e1fb7aee6,67d19405ed4a70fc61932974,2025-03-12_11h03.19.479,Tarea de decisión léxica,2024.2.5,Win32,142.8571429,,,,,,,,,,,,,,,,,,,,,,,164.4715,165.5957,a,1,0.4652,,0.4652,1,165.5957,166.0958,,,,,,388,FEM,NOWORD,AGR,150,bresa,,la,,166.0958,166.0958,0.62962963,-0.207407407,0,0,0,,0,22,22,387,1,crema,,,,
,,,,,,606f6be3361bd05af7ab3952,676192165fb32c2e1fb7aee6,67d19405ed4a70fc61932974,2025-03-12_11h03.19.479,Tarea de decisión léxica,2024.2.5,Win32,142.8571429,,,,,,,,,,,,,,,,,,,,,,,166.0963,167.0471,l,1,0.2917,,0.2917,1,167.0472,167.5472,,,,,,455,MAS,WORD,DIS,150,reino,,la,,167.5473,167.5473,0.62962963,-0.207407407,0,0,0,,0,23,23,454,1,riaso,,,,
,,,,,,606f6be3361bd05af7ab3952,676192165fb32c2e1fb7aee6,67d19405ed4a70fc61932974,2025-03-12_11h03.19.479,Tarea de decisión léxica,2024.2.5,Win32,142.8571429,,,,,,,,,,,,,,,,,,,,,,,167.5477,168.6031,l,1,0.3999,,0.3999,1,168.6031,169.1031,,,,,,291,FEM,WORD,DIS,150,pista,,el,,169.1032,169.1032,0.62962963,-0.207407407,0,0,0,,0,24,24,290,1,mesta,,,,
,,,,,,606f6be3361bd05af7ab3952,676192165fb32c2e1fb7aee6,67d19405ed4a70fc61932974,2025-03-12_11h03.19.479,Tarea de decisión léxica,2024.2.5,Win32,142.8571429,,,,,,,,,,,,,,,,,,,,,,,169.1037,170.1658,a,1,0.4028,,0.4028,1,170.166,170.6658,,,,,,256,MAS,NOWORD,AGR,150,mauco,,el,,170.6659,170.6659,0.62962963,-0.207407407,0,0,0,,0,25,25,255,1,miedo,,,,
,,,,,,606f6be3361bd05af7ab3952,676192165fb32c2e1fb7aee6,67d19405ed4a70fc61932974,2025-03-12_11h03.19.479,Tarea de decisión léxica,2024.2.5,Win32,142.8571429,,,,,,,,,,,,,,,,,,,,,,,170.6663,171.6312,l,1,0.3087,,0.3087,1,171.6313,172.1313,,,,,,119,MAS,WORD,DIS,150,pozo,,la,,172.1319,172.1323,0.62962963,-0.207407407,0,0,0,,0,26,26,118,1,hooy,,,,
,,,,,,606f6be3361bd05af7ab3952,676192165fb32c2e1fb7aee6,67d19405ed4a70fc61932974,2025-03-12_11h03.19.479,Tarea de decisión léxica,2024.2.5,Win32,142.8571429,,,,,,,,,,,,,,,,,,,,,,,172.1327,173.1662,l,1,0.375,,0.375,1,173.1663,173.6662,,,,,,411,MAS,WORD,DIS,150,pollo,,la,,173.6662,173.6663,0.62962963,-0.207407407,0,0,0,,0,27,27,410,1,mobro,,,,
,,,,,,606f6be3361bd05af7ab3952,676192165fb32c2e1fb7aee6,67d19405ed4a70fc61932974,2025-03-12_11h03.19.479,Tarea de decisión léxica,2024.2.5,Win32,142.8571429,,,,,,,,,,,,,,,,,,,,,,,173.6667,174.7706,a,1,0.4481,,0.4481,1,174.7706,175.2707,,,,,,416,FEM,NOWORD,AGR,150,juira,,la,,175.2708,175.2708,0.62962963,-0.207407407,0,0,0,,0,28,28,415,1,jaula,,,,
,,,,,,606f6be3361bd05af7ab3952,676192165fb32c2e1fb7aee6,67d19405ed4a70fc61932974,2025-03-12_11h03.19.479,Tarea de decisión léxica,2024.2.5,Win32,142.8571429,,,,,,,,,,,,,,,,,,,,,,,175.2712,176.389,l,0,0.4583,,0.4583,0,176.3893,176.889,,,,,,206,FEM,NOWORD,DIS,150,bara,,el,,176.889,176.8891,0.62962963,-0.207407407,0,0,0,,0,29,29,205,1,rana,,,,
,,,,,,606f6be3361bd05af7ab3952,676192165fb32c2e1fb7aee6,67d19405ed4a70fc61932974,2025-03-12_11h03.19.479,Tarea de decisión léxica,2024.2.5,Win32,142.8571429,,,,,,,,,,,,,,,,,,,,,,,176.8896,177.9864,a,1,0.4394,,0.4394,1,177.9868,178.4865,,,,,,278,MAS,NOWORD,DIS,150,vuemo,,la,,178.4865,178.4866,0.62962963,-0.207407407,0,0,0,,0,30,30,277,1,fuego,,,,
,,,,,,606f6be3361bd05af7ab3952,676192165fb32c2e1fb7aee6,67d19405ed4a70fc61932974,2025-03-12_11h03.19.479,Tarea de decisión léxica,2024.2.5,Win32,142.8571429,,,,,,,,,,,,,,,,,,,,,,,178.487,179.6605,a,1,0.5159,,0.5159,1,179.6605,180.1603,,,,,,54,FEM,NOWORD,DIS,150,rora,,el,,180.161,180.1613,0.62962963,-0.207407407,0,0,0,,0,31,31,53,1,boda,,,,
,,,,,,606f6be3361bd05af7ab3952,676192165fb32c2e1fb7aee6,67d19405ed4a70fc61932974,2025-03-12_11h03.19.479,Tarea de decisión léxica,2024.2.5,Win32,142.8571429,,,,,,,,,,,,,,,,,,,,,,,180.1615,181.4036,a,1,0.5852,,0.5852,1,181.4036,181.9037,,,,,,298,MAS,NOWORD,DIS,150,brubo,,la,,181.9037,181.9037,0.62962963,-0.207407407,0,0,0,,0,32,32,297,1,grupo,,,,
,,,,,,606f6be3361bd05af7ab3952,676192165fb32c2e1fb7aee6,67d19405ed4a70fc61932974,2025-03-12_11h03.19.479,Tarea de decisión léxica,2024.2.5,Win32,142.8571429,,,,,,,,,,,,,,,,,,,,,,,181.9041,182.8065,a,1,0.2458,,0.2458,1,182.8067,183.3067,,,,,,336,FEM,NOWORD,AGR,150,pesta,,la,,183.3067,183.3068,0.62962963,-0.207407407,0,0,0,,0,33,33,335,1,costa,,,,
,,,,,,606f6be3361bd05af7ab3952,676192165fb32c2e1fb7aee6,67d19405ed4a70fc61932974,2025-03-12_11h03.19.479,Tarea de decisión léxica,2024.2.5,Win32,142.8571429,,,,,,,,,,,,,,,,,,,,,,,183.3073,184.2652,l,1,0.2987,,0.2987,1,184.2652,184.7652,,,,,,235,FEM,WORD,DIS,150,grúa,,el,,184.7652,184.7653,0.62962963,-0.207407407,0,0,0,,0,34,34,234,1,tria,,,,
,,,,,,606f6be3361bd05af7ab3952,676192165fb32c2e1fb7aee6,67d19405ed4a70fc61932974,2025-03-12_11h03.19.479,Tarea de decisión léxica,2024.2.5,Win32,142.8571429,,,,,,,,,,,,,,,,,,,,,,,184.7657,185.8349,l,1,0.4137,,0.4137,1,185.8349,186.335,,,,,,137,MAS,WORD,DIS,150,nene,,la,,186.3355,186.3359,0.62962963,-0.207407407,0,0,0,,0,35,35,136,1,pamo,,,,
,,,,,,606f6be3361bd05af7ab3952,676192165fb32c2e1fb7aee6,67d19405ed4a70fc61932974,2025-03-12_11h03.19.479,Tarea de decisión léxica,2024.2.5,Win32,142.8571429,,,,,,,,,,,,,,,,,,,,,,,186.3362,187.3909,l,1,0.3959,,0.3959,1,187.3909,187.8909,,,,,,273,FEM,WORD,DIS,150,broma,,el,,187.8909,187.8909,0.62962963,-0.207407407,0,0,0,,0,36,36,272,1,frosa,,,,
,,,,,,606f6be3361bd05af7ab3952,676192165fb32c2e1fb7aee6,67d19405ed4a70fc61932974,2025-03-12_11h03.19.479,Tarea de decisión léxica,2024.2.5,Win32,142.8571429,,,,,,,,,,,,,,,,,,,,,,,187.8913,188.8702,l,1,0.3196,,0.3196,1,188.8702,189.3704,,,,,,215,FEM,WORD,DIS,150,raíz,,el,,189.3704,189.3704,0.62962963,-0.207407407,0,0,0,,0,37,37,214,1,raua,,,,
,,,,,,606f6be3361bd05af7ab3952,676192165fb32c2e1fb7aee6,67d19405ed4a70fc61932974,2025-03-12_11h03.19.479,Tarea de decisión léxica,2024.2.5,Win32,142.8571429,,,,,,,,,,,,,,,,,,,,,,,189.3708,190.5231,a,1,0.4955,,0.4955,1,190.5231,191.0232,,,,,,432,MAS,NOWORD,AGR,150,tetor,,el,,191.0232,191.0232,0.62962963,-0.207407407,0,0,0,,0,38,38,431,1,motor,,,,
,,,,,,606f6be3361bd05af7ab3952,676192165fb32c2e1fb7aee6,67d19405ed4a70fc61932974,2025-03-12_11h03.19.479,Tarea de decisión léxica,2024.2.5,Win32,142.8571429,,,,,,,,,,,,,,,,,,,,,,,191.0238,192.0303,a,1,0.3474,,0.3474,1,192.0304,192.5306,,,,,,192,FEM,NOWORD,AGR,150,bila,,la,,192.5306,192.5306,0.62962963,-0.207407407,0,0,0,,0,39,39,191,1,pila,,,,
,,,,,,606f6be3361bd05af7ab3952,676192165fb32c2e1fb7aee6,67d19405ed4a70fc61932974,2025-03-12_11h03.19.479,Tarea de decisión léxica,2024.2.5,Win32,142.8571429,,,,,,,,,,,,,,,,,,,,,,,192.5311,193.5307,l,1,0.3442,,0.3442,1,193.5308,194.0308,,,,,,161,MAS,WORD,AGR,150,coro,,el,,194.0313,194.0315,0.62962963,-0.207407407,0,0,0,,0,40,40,160,1,bopo,,,,
,,,,,,606f6be3361bd05af7ab3952,676192165fb32c2e1fb7aee6,67d19405ed4a70fc61932974,2025-03-12_11h03.19.479,Tarea de decisión léxica,2024.2.5,Win32,142.8571429,,,,,,,,,,,,,,,,,,,,,,,194.0318,195.0309,l,1,0.3444,,0.3444,1,195.0309,195.5309,,,,,,269,MAS,WORD,AGR,150,perro,,el,,195.5309,195.5309,0.62962963,-0.207407407,0,0,0,,0,41,41,268,1,mello,,,,
,,,,,,606f6be3361bd05af7ab3952,676192165fb32c2e1fb7aee6,67d19405ed4a70fc61932974,2025-03-12_11h03.19.479,Tarea de decisión léxica,2024.2.5,Win32,142.8571429,,,,,,,,,,,,,,,,,,,,,,,195.5314,196.677,l,1,0.4868,,0.4868,1,196.6771,197.177,,,,,,243,MAS,WORD,DIS,150,amigo,,la,,197.177,197.177,0.62962963,-0.207407407,0,0,0,,0,42,42,242,1,asamo,,,,
,,,,,,606f6be3361bd05af7ab3952,676192165fb32c2e1fb7aee6,67d19405ed4a70fc61932974,2025-03-12_11h03.19.479,Tarea de decisión léxica,2024.2.5,Win32,142.8571429,,,,,,,,,,,,,,,,,,,,,,,197.1775,198.1216,l,1,0.2849,,0.2849,1,198.1217,198.6216,,,,,,233,FEM,WORD,AGR,150,lana,,la,,198.6216,198.6217,0.62962963,-0.207407407,0,0,0,,0,43,43,232,1,fasa,,,,
,,,,,,606f6be3361bd05af7ab3952,676192165fb32c2e1fb7aee6,67d19405ed4a70fc61932974,2025-03-12_11h03.19.479,Tarea de decisión léxica,2024.2.5,Win32,142.8571429,,,,,,,,,,,,,,,,,,,,,,,198.6222,199.6081,l,0,0.3275,,0.3275,0,199.6085,200.1081,,,,,,380,MAS,NOWORD,AGR,150,tunso,,el,,200.1081,200.1082,0.62962963,-0.207407407,0,0,0,,0,44,44,379,1,turno,,,,
,,,,,,606f6be3361bd05af7ab3952,676192165fb32c2e1fb7aee6,67d19405ed4a70fc61932974,2025-03-12_11h03.19.479,Tarea de decisión léxica,2024.2.5,Win32,142.8571429,,,,,,,,,,,,,,,,,,,,,,,200.1086,201.0526,l,1,0.2884,,0.2884,1,201.0529,201.5527,,,,,,439,FEM,WORD,DIS,150,presa,,el,,201.5532,201.5535,0.62962963,-0.207407407,0,0,0,,0,45,45,438,1,prema,,,,
,,,,,,606f6be3361bd05af7ab3952,676192165fb32c2e1fb7aee6,67d19405ed4a70fc61932974,2025-03-12_11h03.19.479,Tarea de decisión léxica,2024.2.5,Win32,142.8571429,,,,,,,,,,,,,,,,,,,,,,,201.5538,202.7475,a,1,0.5354,,0.5354,1,202.7475,203.2476,,,,,,148,FEM,NOWORD,AGR,150,pama,,la,,203.2476,203.2476,0.62962963,-0.207407407,0,0,0,,0,46,46,147,1,hoja,,,,
,,,,,,606f6be3361bd05af7ab3952,676192165fb32c2e1fb7aee6,67d19405ed4a70fc61932974,2025-03-12_11h03.19.479,Tarea de decisión léxica,2024.2.5,Win32,142.8571429,,,,,,,,,,,,,,,,,,,,,,,203.2481,204.2406,a,1,0.3366,,0.3366,1,204.2406,204.7408,,,,,,24,FEM,NOWORD,AGR,150,giva,,la,,204.7408,204.7409,0.62962963,-0.207407407,0,0,0,,0,47,47,23,1,hija,,,,
,,,,,,606f6be3361bd05af7ab3952,676192165fb32c2e1fb7aee6,67d19405ed4a70fc61932974,2025-03-12_11h03.19.479,Tarea de decisión léxica,2024.2.5,Win32,142.8571429,,,,,,,,,,,,,,,,,,,,,,,204.7414,205.734,l,1,0.3335,,0.3335,1,205.7341,206.234,,,,,,95,FEM,WORD,DIS,151,moda,,el,,206.2342,206.2342,0.62962963,-0.207407407,0,0,0,,0,48,48,94,1,neda,,,,
,,,,,,606f6be3361bd05af7ab3952,676192165fb32c2e1fb7aee6,67d19405ed4a70fc61932974,2025-03-12_11h03.19.479,Tarea de decisión léxica,2024.2.5,Win32,142.8571429,,,,,,,,,,,,,,,,,,,,,,,206.2346,207.4982,a,1,0.6087,,0.6087,1,207.4982,207.9981,,,,,,306,MAS,NOWORD,DIS,150,adiol,,la,,207.9981,207.9981,0.62962963,-0.207407407,0,0,0,,0,49,49,305,1,avión,,,,
,,,,,,606f6be3361bd05af7ab3952,676192165fb32c2e1fb7aee6,67d19405ed4a70fc61932974,2025-03-12_11h03.19.479,Tarea de decisión léxica,2024.2.5,Win32,142.8571429,,,,,,,,,,,,,,,,,,,,,,,207.9985,208.9358,l,1,0.2782,,0.2782,1,208.9359,209.4359,,,,,,247,FEM,WORD,DIS,150,chica,,el,,209.4364,209.4367,0.62962963,-0.207407407,0,0,0,,0,50,50,246,1,trida,,,,
,,,,,,606f6be3361bd05af7ab3952,676192165fb32c2e1fb7aee6,67d19405ed4a70fc61932974,2025-03-12_11h03.19.479,Tarea de decisión léxica,2024.2.5,Win32,142.8571429,,,,,,,,,,,,,,,,,,,,,,,209.437,210.4292,l,1,0.3354,,0.3354,1,210.4292,210.9293,,,,,,337,MAS,WORD,DIS,150,huevo,,la,,210.9293,210.9293,0.62962963,-0.207407407,0,0,0,,0,51,51,336,1,nuejo,,,,
,,,,,,606f6be3361bd05af7ab3952,676192165fb32c2e1fb7aee6,67d19405ed4a70fc61932974,2025-03-12_11h03.19.479,Tarea de decisión léxica,2024.2.5,Win32,142.8571429,,,,,,,,,,,,,,,,,,,,,,,210.9297,212.1237,l,0,0.5376,,0.5376,0,212.1241,212.6239,,,,,,408,FEM,NOWORD,AGR,150,cauba,,la,,212.6239,212.624,0.62962963,-0.207407407,0,0,0,,0,52,52,407,1,cueva,,,,
,,,,,,606f6be3361bd05af7ab3952,676192165fb32c2e1fb7aee6,67d19405ed4a70fc61932974,2025-03-12_11h03.19.479,Tarea de decisión léxica,2024.2.5,Win32,142.8571429,,,,,,,,,,,,,,,,,,,,,,,212.6244,213.7631,a,1,0.4826,,0.4826,1,213.7633,214.2631,,,,,,462,FEM,NOWORD,DIS,150,pagra,,el,,214.2631,214.2632,0.62962963,-0.207407407,0,0,0,,0,53,53,461,1,tabla,,,,
,,,,,,606f6be3361bd05af7ab3952,676192165fb32c2e1fb7aee6,67d19405ed4a70fc61932974,2025-03-12_11h03.19.479,Tarea de decisión léxica,2024.2.5,Win32,142.8571429,,,,,,,,,,,,,,,,,,,,,,,214.2636,215.3257,l,1,0.403,,0.403,1,215.3258,215.8258,,,,,,339,MAS,WORD,AGR,150,brazo,,el,,215.8258,215.8258,0.62962963,-0.207407407,0,0,0,,0,54,54,338,1,plajo,,,,
,,,,,,606f6be3361bd05af7ab3952,676192165fb32c2e1fb7aee6,67d19405ed4a70fc61932974,2025-03-12_11h03.19.479,Tarea de decisión léxica,2024.2.5,Win32,142.8571429,,,,,,,,,,,,,,,,,,,,,,,215.8262,216.8954,l,1,0.4095,,0.4095,1,216.8954,217.3954,,,,,,409,MAS,WORD,AGR,150,carro,,el,,217.3959,217.3963,0.62962963,-0.207407407,0,0,0,,0,55,55,408,1,pafro,,,,
,,,,,,606f6be3361bd05af7ab3952,676192165fb32c2e1fb7aee6,67d19405ed4a70fc61932974,2025-03-12_11h03.19.479,Tarea de decisión léxica,2024.2.5,Win32,142.8571429,,,,,,,,,,,,,,,,,,,,,,,217.3966,218.5137,l,1,0.4593,,0.4593,1,218.5137,219.0138,,,,,,195,FEM,WORD,DIS,150,tela,,el,,219.0138,219.0138,0.62962963,-0.207407407,0,0,0,,0,56,56,194,1,sira,,,,
,,,,,,606f6be3361bd05af7ab3952,676192165fb32c2e1fb7aee6,67d19405ed4a70fc61932974,2025-03-12_11h03.19.479,Tarea de decisión léxica,2024.2.5,Win32,142.8571429,,,,,,,,,,,,,,,,,,,,,,,219.0143,220.021,l,1,0.3475,,0.3475,1,220.021,220.521,,,,,,463,FEM,WORD,DIS,150,cabra,,el,,220.5211,220.5211,0.62962963,-0.207407407,0,0,0,,0,57,57,462,1,matla,,,,
,,,,,,606f6be3361bd05af7ab3952,676192165fb32c2e1fb7aee6,67d19405ed4a70fc61932974,2025-03-12_11h03.19.479,Tarea de decisión léxica,2024.2.5,Win32,142.8571429,,,,,,,,,,,,,,,,,,,,,,,220.5215,221.4865,a,1,0.306,,0.306,1,221.4866,221.9865,,,,,,294,MAS,NOWORD,DIS,150,cacso,,la,,221.9865,221.9865,0.62962963,-0.207407407,0,0,0,,0,58,58,293,1,campo,,,,
,,,,,,606f6be3361bd05af7ab3952,676192165fb32c2e1fb7aee6,67d19405ed4a70fc61932974,2025-03-12_11h03.19.479,Tarea de decisión léxica,2024.2.5,Win32,142.8571429,,,,,,,,,,,,,,,,,,,,,,,221.987,222.931,l,1,0.2875,,0.2875,1,222.931,223.4312,,,,,,425,FEM,WORD,DIS,150,viuda,,el,,223.4316,223.432,0.62962963,-0.207407407,0,0,0,,0,59,59,424,1,virca,,,,
,,,,,,606f6be3361bd05af7ab3952,676192165fb32c2e1fb7aee6,67d19405ed4a70fc61932974,2025-03-12_11h03.19.479,Tarea de decisión léxica,2024.2.5,Win32,142.8571429,,,,,,,,,,,,,,,,,,,,,,,223.4322,224.5009,l,1,0.4137,,0.4137,1,224.501,225.0009,,,,,,459,MAS,WORD,DIS,150,grado,,la,,225.001,225.001,0.62962963,-0.207407407,0,0,0,,0,60,60,458,1,fraco,,,,
,,,,,,606f6be3361bd05af7ab3952,676192165fb32c2e1fb7aee6,67d19405ed4a70fc61932974,2025-03-12_11h03.19.479,Tarea de decisión léxica,2024.2.5,Win32,142.8571429,,,,,,,,,,,,,,,,,,,,,,,225.0015,226.2373,a,1,0.58,,0.58,1,226.2373,226.7372,,,,,,58,MAS,NOWORD,DIS,150,heco,,la,,226.7372,226.7372,0.62962963,-0.207407407,0,0,0,,0,61,61,57,1,dedo,,,,
,,,,,,606f6be3361bd05af7ab3952,676192165fb32c2e1fb7aee6,67d19405ed4a70fc61932974,2025-03-12_11h03.19.479,Tarea de decisión léxica,2024.2.5,Win32,142.8571429,,,,,,,,,,,,,,,,,,,,,,,226.7376,227.7721,l,1,0.3779,,0.3779,1,227.7721,228.2722,,,,,,325,FEM,WORD,AGR,150,magia,,la,,228.2722,228.2723,0.62962963,-0.207407407,0,0,0,,0,62,62,324,1,mabia,,,,
,,,,,,606f6be3361bd05af7ab3952,676192165fb32c2e1fb7aee6,67d19405ed4a70fc61932974,2025-03-12_11h03.19.479,Tarea de decisión léxica,2024.2.5,Win32,142.8571429,,,,,,,,,,,,,,,,,,,,,,,228.2728,229.3002,a,1,0.371,,0.371,1,229.3003,229.8004,,,,,,44,FEM,NOWORD,AGR,150,meda,,la,,229.8004,229.8004,0.62962963,-0.207407407,0,0,0,,0,63,63,43,1,pena,,,,
,,,,,,606f6be3361bd05af7ab3952,676192165fb32c2e1fb7aee6,67d19405ed4a70fc61932974,2025-03-12_11h03.19.479,Tarea de decisión léxica,2024.2.5,Win32,142.8571429,,,,,,,,,,,,,,,,,,,,,,,229.8008,230.7101,l,1,0.2503,,0.2503,1,230.7102,231.2102,,,,,,87,MAS,WORD,AGR,150,vaso,,el,,231.2105,231.2109,0.62962963,-0.207407407,0,0,0,,0,64,64,86,1,damo,,,,
,,,,,,606f6be3361bd05af7ab3952,676192165fb32c2e1fb7aee6,67d19405ed4a70fc61932974,2025-03-12_11h03.19.479,Tarea de decisión léxica,2024.2.5,Win32,142.8571429,,,,,,,,,,,,,,,,,,,,,,,231.2111,232.1339,a,1,0.265,,0.265,1,232.1339,232.634,,,,,,466,FEM,NOWORD,DIS,150,asuba,,el,,232.6341,232.6341,0.62962963,-0.207407407,0,0,0,,0,65,65,465,1,aguja,,,,
,,,,,,606f6be3361bd05af7ab3952,676192165fb32c2e1fb7aee6,67d19405ed4a70fc61932974,2025-03-12_11h03.19.479,Tarea de decisión léxica,2024.2.5,Win32,142.8571429,,,,,,,,,,,,,,,,,,,,,,,232.6345,233.6134,l,1,0.3196,,0.3196,1,233.6134,234.1134,,,,,,303,MAS,WORD,DIS,150,barco,,la,,234.1134,234.1134,0.62962963,-0.207407407,0,0,0,,0,66,66,302,1,lanco,,,,
,,,,,,606f6be3361bd05af7ab3952,676192165fb32c2e1fb7aee6,67d19405ed4a70fc61932974,2025-03-12_11h03.19.479,Tarea de decisión léxica,2024.2.5,Win32,142.8571429,,,,,,,,,,,,,,,,,,,,,,,234.114,235.0996,l,1,0.3269,,0.3269,1,235.0996,235.5997,,,,,,357,FEM,WORD,AGR,150,bruja,,la,,235.5998,235.5998,0.62962963,-0.207407407,0,0,0,,0,67,67,356,1,gruba,,,,
,,,,,,606f6be3361bd05af7ab3952,676192165fb32c2e1fb7aee6,67d19405ed4a70fc61932974,2025-03-12_11h03.19.479,Tarea de decisión léxica,2024.2.5,Win32,142.8571429,,,,,,,,,,,,,,,,,,,,,,,235.6002,236.6139,l,1,0.3551,,0.3551,1,236.614,237.114,,,,,,153,MAS,WORD,DIS,150,pato,,la,,237.1141,237.1141,0.62962963,-0.207407407,0,0,0,,0,68,68,152,1,tado,,,,
,,,,,,606f6be3361bd05af7ab3952,676192165fb32c2e1fb7aee6,67d19405ed4a70fc61932974,2025-03-12_11h03.19.479,Tarea de decisión léxica,2024.2.5,Win32,142.8571429,,,,,,,,,,,,,,,,,,,,,,,237.1144,238.1559,a,1,0.3856,,0.3856,1,238.1559,238.656,,,,,,246,FEM,NOWORD,DIS,150,pafle,,el,,238.6564,238.6566,0.62962963,-0.207407407,0,0,0,,0,69,69,245,1,madre,,,,
,,,,,,606f6be3361bd05af7ab3952,676192165fb32c2e1fb7aee6,67d19405ed4a70fc61932974,2025-03-12_11h03.19.479,Tarea de decisión léxica,2024.2.5,Win32,142.8571429,,,,,,,,,,,,,,,,,,,,,,,238.657,239.7534,a,1,0.4394,,0.4394,1,239.7534,240.2535,,,,,,248,FEM,NOWORD,AGR,150,trida,,la,,240.2535,240.2535,0.62962963,-0.207407407,0,0,0,,0,70,70,247,1,chica,,,,
,,,,,,606f6be3361bd05af7ab3952,676192165fb32c2e1fb7aee6,67d19405ed4a70fc61932974,2025-03-12_11h03.19.479,Tarea de decisión léxica,2024.2.5,Win32,142.8571429,,,,,,,,,,,,,,,,,,,,,,,240.2539,241.2953,a,1,0.3812,,0.3812,1,241.2953,241.7951,,,,,,274,FEM,NOWORD,DIS,150,frosa,,el,,241.7951,241.7952,0.62962963,-0.207407407,0,0,0,,0,71,71,273,1,broma,,,,
,,,,,,606f6be3361bd05af7ab3952,676192165fb32c2e1fb7aee6,67d19405ed4a70fc61932974,2025-03-12_11h03.19.479,Tarea de decisión léxica,2024.2.5,Win32,142.8571429,,,,,,,,,,,,,,,,,,,,,,,241.7956,242.7884,a,1,0.3337,,0.3337,1,242.7885,243.2886,,,,,,204,FEM,NOWORD,AGR,150,beja,,la,,243.2886,243.2886,0.62962963,-0.207407407,0,0,0,,0,72,72,203,1,leña,,,,
,,,,,,606f6be3361bd05af7ab3952,676192165fb32c2e1fb7aee6,67d19405ed4a70fc61932974,2025-03-12_11h03.19.479,Tarea de decisión léxica,2024.2.5,Win32,142.8571429,,,,,,,,,,,,,,,,,,,,,,,243.289,244.2609,a,1,0.3171,,0.3171,1,244.2609,244.7611,,,,,,340,MAS,NOWORD,AGR,150,plajo,,el,,244.7611,244.7612,0.62962963,-0.207407407,0,0,0,,0,73,73,339,1,brazo,,,,
,,,,,,606f6be3361bd05af7ab3952,676192165fb32c2e1fb7aee6,67d19405ed4a70fc61932974,2025-03-12_11h03.19.479,Tarea de decisión léxica,2024.2.5,Win32,142.8571429,,,,,,,,,,,,,,,,,,,,,,,244.7617,245.8444,l,1,0.4238,,0.4238,1,245.8444,246.3445,,,,,,205,FEM,WORD,AGR,150,rana,,la,,246.3449,246.3452,0.62962963,-0.207407407,0,0,0,,0,74,74,204,1,bara,,,,
,,,,,,606f6be3361bd05af7ab3952,676192165fb32c2e1fb7aee6,67d19405ed4a70fc61932974,2025-03-12_11h03.19.479,Tarea de decisión léxica,2024.2.5,Win32,142.8571429,,,,,,,,,,,,,,,,,,,,,,,246.3455,247.428,l,1,0.426,,0.426,1,247.428,247.9281,,,,,,219,FEM,WORD,AGR,150,pipa,,la,,247.9281,247.9281,0.62962963,-0.207407407,0,0,0,,0,75,75,218,1,miva,,,,
,,,,,,606f6be3361bd05af7ab3952,676192165fb32c2e1fb7aee6,67d19405ed4a70fc61932974,2025-03-12_11h03.19.479,Tarea de decisión léxica,2024.2.5,Win32,142.8571429,,,,,,,,,,,,,,,,,,,,,,,247.9286,249.0118,a,1,0.4235,,0.4235,1,249.0118,249.5118,,,,,,286,MAS,NOWORD,DIS,150,echor,,la,,249.5118,249.5118,0.62962963,-0.207407407,0,0,0,,0,76,76,285,1,error,,,,
,,,,,,606f6be3361bd05af7ab3952,676192165fb32c2e1fb7aee6,67d19405ed4a70fc61932974,2025-03-12_11h03.19.479,Tarea de decisión léxica,2024.2.5,Win32,142.8571429,,,,,,,,,,,,,,,,,,,,,,,249.5123,250.512,a,1,0.3432,,0.3432,1,250.512,251.012,,,,,,86,MAS,NOWORD,DIS,150,babo,,la,,251.012,251.0121,0.62962963,-0.207407407,0,0,0,,0,77,77,85,1,lago,,,,
,,,,,,606f6be3361bd05af7ab3952,676192165fb32c2e1fb7aee6,67d19405ed4a70fc61932974,2025-03-12_11h03.19.479,Tarea de decisión léxica,2024.2.5,Win32,142.8571429,,,,,,,,,,,,,,,,,,,,,,,251.0125,252.0259,l,1,0.3542,,0.3542,1,252.026,252.526,,,,,,37,MAS,WORD,AGR,150,rato,,el,,252.5261,252.5261,0.62962963,-0.207407407,0,0,0,,0,78,78,36,1,gaco,,,,
,,,,,,606f6be3361bd05af7ab3952,676192165fb32c2e1fb7aee6,67d19405ed4a70fc61932974,2025-03-12_11h03.19.479,Tarea de decisión léxica,2024.2.5,Win32,142.8571429,,,,,,,,,,,,,,,,,,,,,,,252.5266,253.4917,a,0,0.3076,,0.3076,0,253.4919,253.9917,,,,,,379,MAS,WORD,AGR,150,turno,,el,,253.9921,253.9926,0.62962963,-0.207407407,0,0,0,,0,79,79,378,1,tunso,,,,
,,,,,,606f6be3361bd05af7ab3952,676192165fb32c2e1fb7aee6,67d19405ed4a70fc61932974,2025-03-12_11h03.19.479,Tarea de decisión léxica,2024.2.5,Win32,142.8571429,,,,,,,,,,,,,,,,,,,,,,,253.9928,255.0751,l,1,0.4274,,0.4274,1,255.0755,255.5753,,,,,,475,FEM,WORD,DIS,150,manta,,el,,255.5753,255.5753,0.62962963,-0.207407407,0,0,0,,0,80,80,474,1,mucta,,,,
,,,,,,606f6be3361bd05af7ab3952,676192165fb32c2e1fb7aee6,67d19405ed4a70fc61932974,2025-03-12_11h03.19.479,Tarea de decisión léxica,2024.2.5,Win32,142.8571429,,,,,,,,,,,,,,,,,,,,,,,255.5757,256.5477,l,1,0.3138,,0.3138,1,256.5477,257.0478,,,,,,407,FEM,WORD,DIS,150,cueva,,el,,257.0478,257.0478,0.62962963,-0.207407407,0,0,0,,0,81,81,406,1,cauba,,,,
,,,,,,606f6be3361bd05af7ab3952,676192165fb32c2e1fb7aee6,67d19405ed4a70fc61932974,2025-03-12_11h03.19.479,Tarea de decisión léxica,2024.2.5,Win32,142.8571429,,,,,,,,,,,,,,,,,,,,,,,257.0483,258.0757,l,1,0.3672,,0.3672,1,258.0757,258.5756,,,,,,73,MAS,WORD,AGR,150,odio,,el,,258.5757,258.5757,0.62962963,-0.207407407,0,0,0,,0,82,82,72,1,omio,,,,
,,,,,,606f6be3361bd05af7ab3952,676192165fb32c2e1fb7aee6,67d19405ed4a70fc61932974,2025-03-12_11h03.19.479,Tarea de decisión léxica,2024.2.5,Win32,142.8571429,,,,,,,,,,,,,,,,,,,,,,,258.5763,259.6244,l,1,0.3891,,0.3891,1,259.6244,260.1244,,,,,,19,MAS,WORD,DIS,150,niño,,la,,260.1249,260.1252,0.62962963,-0.207407407,0,0,0,,0,83,83,18,1,himo,,,,
,,,,,,606f6be3361bd05af7ab3952,676192165fb32c2e1fb7aee6,67d19405ed4a70fc61932974,2025-03-12_11h03.19.479,Tarea de decisión léxica,2024.2.5,Win32,142.8571429,,,,,,,,,,,,,,,,,,,,,,,260.1254,261.0135,l,1,0.2325,,0.2325,1,261.0136,261.5136,,,,,,361,FEM,WORD,DIS,150,torre,,el,,261.5136,261.5136,0.62962963,-0.207407407,0,0,0,,0,84,84,360,1,solle,,,,
,,,,,,606f6be3361bd05af7ab3952,676192165fb32c2e1fb7aee6,67d19405ed4a70fc61932974,2025-03-12_11h03.19.479,Tarea de decisión léxica,2024.2.5,Win32,142.8571429,,,,,,,,,,,,,,,,,,,,,,,261.514,262.5415,a,1,0.3726,,0.3726,1,262.5416,263.0416,,,,,,288,FEM,NOWORD,AGR,150,fosta,,la,,263.0416,263.0417,0.62962963,-0.207407407,0,0,0,,0,85,85,287,1,lista,,,,
,,,,,,606f6be3361bd05af7ab3952,676192165fb32c2e1fb7aee6,67d19405ed4a70fc61932974,2025-03-12_11h03.19.479,Tarea de decisión léxica,2024.2.5,Win32,142.8571429,,,,,,,,,,,,,,,,,,,,,,,263.0422,264.0209,a,1,0.3234,,0.3234,1,264.021,264.521,,,,,,74,MAS,NOWORD,DIS,150,omio,,la,,264.521,264.5211,0.62962963,-0.207407407,0,0,0,,0,86,86,73,1,odio,,,,
,,,,,,606f6be3361bd05af7ab3952,676192165fb32c2e1fb7aee6,67d19405ed4a70fc61932974,2025-03-12_11h03.19.479,Tarea de decisión léxica,2024.2.5,Win32,142.8571429,,,,,,,,,,,,,,,,,,,,,,,264.5215,265.6046,a,1,0.424,,0.424,1,265.6046,266.1046,,,,,,178,MAS,NOWORD,DIS,150,bito,,la,,266.1046,266.1046,0.62962963,-0.207407407,0,0,0,,0,87,87,177,1,reto,,,,
,,,,,,606f6be3361bd05af7ab3952,676192165fb32c2e1fb7aee6,67d19405ed4a70fc61932974,2025-03-12_11h03.19.479,Tarea de decisión léxica,2024.2.5,Win32,142.8571429,,,,,,,,,,,,,,,,,,,,,,,266.105,267.0701,a,1,0.3061,,0.3061,1,267.0701,267.5701,,,,,,168,FEM,NOWORD,AGR,150,zifa,,la,,267.5705,267.5708,0.62962963,-0.207407407,0,0,0,,0,88,88,167,1,jefa,,,,
,,,,,,606f6be3361bd05af7ab3952,676192165fb32c2e1fb7aee6,67d19405ed4a70fc61932974,2025-03-12_11h03.19.479,Tarea de decisión léxica,2024.2.5,Win32,142.8571429,,,,,,,,,,,,,,,,,,,,,,,267.571,268.4801,a,1,0.2534,,0.2534,1,268.4801,268.9801,,,,,,52,FEM,NOWORD,AGR,150,mava,,la,,268.9801,268.9802,0.62962963,-0.207407407,0,0,0,,0,89,89,51,1,caja,,,,
,,,,,,606f6be3361bd05af7ab3952,676192165fb32c2e1fb7aee6,67d19405ed4a70fc61932974,2025-03-12_11h03.19.479,Tarea de decisión léxica,2024.2.5,Win32,142.8571429,,,,,,,,,,,,,,,,,,,,,,,268.9806,269.9248,a,0,0.2872,,0.2872,0,269.9251,270.4249,,,,,,123,FEM,WORD,AGR,150,flor,,la,,270.4249,270.4249,0.62962963,-0.207407407,0,0,0,,0,90,90,122,1,maba,,,,
,,,,,,606f6be3361bd05af7ab3952,676192165fb32c2e1fb7aee6,67d19405ed4a70fc61932974,2025-03-12_11h03.19.479,Tarea de decisión léxica,2024.2.5,Win32,142.8571429,,,,,,,,,,,,,,,,,,,,,,,270.4255,271.4388,l,1,0.3568,,0.3568,1,271.4391,271.9389,,,,,,245,FEM,WORD,AGR,150,madre,,la,,271.9389,271.939,0.62962963,-0.207407407,0,0,0,,0,91,91,244,1,pafle,,,,
,,,,,,606f6be3361bd05af7ab3952,676192165fb32c2e1fb7aee6,67d19405ed4a70fc61932974,2025-03-12_11h03.19.479,Tarea de decisión léxica,2024.2.5,Win32,142.8571429,,,,,,,,,,,,,,,,,,,,,,,271.9394,272.8626,l,1,0.2667,,0.2667,1,272.8626,273.3627,,,,,,457,MAS,WORD,AGR,150,plato,,el,,273.3628,273.3629,0.62962963,-0.207407407,0,0,0,,0,92,92,456,1,glaco,,,,
,,,,,,606f6be3361bd05af7ab3952,676192165fb32c2e1fb7aee6,67d19405ed4a70fc61932974,2025-03-12_11h03.19.479,Tarea de decisión léxica,2024.2.5,Win32,142.8571429,,,,,,,,,,,,,,,,,,,,,,,273.3634,274.4115,l,1,0.3884,,0.3884,1,274.4116,274.9116,,,,,,285,MAS,WORD,DIS,150,error,,la,,274.9121,274.9123,0.62962963,-0.207407407,0,0,0,,0,93,93,284,1,echor,,,,
,,,,,,606f6be3361bd05af7ab3952,676192165fb32c2e1fb7aee6,67d19405ed4a70fc61932974,2025-03-12_11h03.19.479,Tarea de decisión léxica,2024.2.5,Win32,142.8571429,,,,,,,,,,,,,,,,,,,,,,,274.9127,275.7729,l,1,0.1986,,0.1986,1,275.773,276.273,,,,,,279,FEM,WORD,AGR,150,prisa,,la,,276.273,276.2732,0.62962963,-0.207407407,0,0,0,,0,94,94,278,1,grina,,,,
,,,,,,606f6be3361bd05af7ab3952,676192165fb32c2e1fb7aee6,67d19405ed4a70fc61932974,2025-03-12_11h03.19.479,Tarea de decisión léxica,2024.2.5,Win32,142.8571429,,,,,,,,,,,,,,,,,,,,,,,276.2737,277.3772,a,1,0.4445,,0.4445,1,277.3772,277.8775,,,,,,160,MAS,NOWORD,AGR,150,bilo,,el,,277.8775,277.8775,0.62962963,-0.207407407,0,0,0,,0,95,95,159,1,giro,,,,
,,,,,,606f6be3361bd05af7ab3952,676192165fb32c2e1fb7aee6,67d19405ed4a70fc61932974,2025-03-12_11h03.19.479,Tarea de decisión léxica,2024.2.5,Win32,142.8571429,,,,,,,,,,,,,,,,,,,,,,,277.878,278.9262,a,1,0.3901,,0.3901,1,278.9263,279.4263,,,,,,232,FEM,NOWORD,AGR,150,heta,,la,,279.4263,279.4263,0.62962963,-0.207407407,0,0,0,,0,96,96,231,1,bota,,,,
,,,,,,606f6be3361bd05af7ab3952,676192165fb32c2e1fb7aee6,67d19405ed4a70fc61932974,2025-03-12_11h03.19.479,Tarea de decisión léxica,2024.2.5,Win32,142.8571429,,,,,,,,,,,,,,,,,,,,,,,279.4271,280.3711,a,1,0.2889,,0.2889,1,280.3711,280.8709,,,,,,4,FEM,NOWORD,AGR,150,dica,,la,,280.8709,280.8709,0.62962963,-0.207407407,0,0,0,,0,97,97,3,1,vida,,,,
,,,,,,606f6be3361bd05af7ab3952,676192165fb32c2e1fb7aee6,67d19405ed4a70fc61932974,2025-03-12_11h03.19.479,Tarea de decisión léxica,2024.2.5,Win32,142.8571429,,,,,,,,,,,,,,,,,,,,,,,280.8714,281.8988,a,1,0.368,,0.368,1,281.8988,282.399,,,,,,422,MAS,NOWORD,DIS,150,griso,,la,,282.3995,282.3998,0.62962963,-0.207407407,0,0,0,,0,98,98,421,1,primo,,,,
,,,,,,606f6be3361bd05af7ab3952,676192165fb32c2e1fb7aee6,67d19405ed4a70fc61932974,2025-03-12_11h03.19.479,Tarea de decisión léxica,2024.2.5,Win32,142.8571429,,,,,,,,,,,,,,,,,,,,,,,282.4,283.4269,l,1,0.3697,,0.3697,1,283.4269,283.927,,,,,,81,FEM,WORD,DIS,150,dama,,el,,283.927,283.9271,0.62962963,-0.207407407,0,0,0,,0,99,99,80,1,vasa,,,,
,,,,,,606f6be3361bd05af7ab3952,676192165fb32c2e1fb7aee6,67d19405ed4a70fc61932974,2025-03-12_11h03.19.479,Tarea de decisión léxica,2024.2.5,Win32,142.8571429,,,,,,,,,,,,,,,,,,,,,,,283.9276,285.0104,a,1,0.4258,,0.4258,1,285.0104,285.5106,,,,,,424,MAS,NOWORD,AGR,150,quigo,,el,,285.5106,285.5107,0.62962963,-0.207407407,0,0,0,,0,100,100,423,1,queso,,,,
,,,,,,606f6be3361bd05af7ab3952,676192165fb32c2e1fb7aee6,67d19405ed4a70fc61932974,2025-03-12_11h03.19.479,Tarea de decisión léxica,2024.2.5,Win32,142.8571429,,,,,,,,,,,,,,,,,,,,,,,285.5112,286.7399,l,1,0.5722,,0.5722,1,286.74,287.24,,,,,,473,FEM,WORD,AGR,150,feria,,la,,287.2401,287.2401,0.62962963,-0.207407407,0,0,0,,0,101,101,472,1,felia,,,,
,,,,,,606f6be3361bd05af7ab3952,676192165fb32c2e1fb7aee6,67d19405ed4a70fc61932974,2025-03-12_11h03.19.479,Tarea de decisión léxica,2024.2.5,Win32,142.8571429,,,,,,,,,,,,,,,,,,,,,,,287.2404,288.2053,l,1,0.3091,,0.3091,1,288.2054,288.7055,,,,,,63,FEM,WORD,AGR,150,luna,,la,,288.7055,288.7055,0.62962963,-0.207407407,0,0,0,,0,102,102,62,1,funa,,,,
,,,,,,606f6be3361bd05af7ab3952,676192165fb32c2e1fb7aee6,67d19405ed4a70fc61932974,2025-03-12_11h03.19.479,Tarea de decisión léxica,2024.2.5,Win32,142.8571429,,,,,,,,,,,,,,,,,,,,,,,288.7059,289.6224,l,1,0.2571,,0.2571,1,289.6224,290.1224,,,,,,213,FEM,WORD,AGR,150,rama,,la,,290.123,290.1232,0.62962963,-0.207407407,0,0,0,,0,103,103,212,1,bana,,,,
,,,,,,606f6be3361bd05af7ab3952,676192165fb32c2e1fb7aee6,67d19405ed4a70fc61932974,2025-03-12_11h03.19.479,Tarea de decisión léxica,2024.2.5,Win32,142.8571429,,,,,,,,,,,,,,,,,,,,,,,290.1235,291.0669,l,1,0.286,,0.286,1,291.0669,291.5672,,,,,,431,MAS,WORD,DIS,150,motor,,la,,291.5672,291.5672,0.62962963,-0.207407407,0,0,0,,0,104,104,430,1,tetor,,,,
,,,,,,606f6be3361bd05af7ab3952,676192165fb32c2e1fb7aee6,67d19405ed4a70fc61932974,2025-03-12_11h03.19.479,Tarea de decisión léxica,2024.2.5,Win32,142.8571429,,,,,,,,,,,,,,,,,,,,,,,291.5677,292.6993,a,1,0.475,,0.475,1,292.6994,293.1994,,,,,,30,MAS,NOWORD,DIS,150,pono,,la,,293.1994,293.1994,0.62962963,-0.207407407,0,0,0,,0,105,105,29,1,modo,,,,
,,,,,,606f6be3361bd05af7ab3952,676192165fb32c2e1fb7aee6,67d19405ed4a70fc61932974,2025-03-12_11h03.19.479,Tarea de decisión léxica,2024.2.5,Win32,142.8571429,,,,,,,,,,,,,,,,,,,,,,,293.1998,294.1924,a,1,0.338,,0.338,1,294.1924,294.6925,,,,,,254,MAS,NOWORD,DIS,150,trido,,la,,294.6926,294.6926,0.62962963,-0.207407407,0,0,0,,0,106,106,253,1,chico,,,,
,,,,,,606f6be3361bd05af7ab3952,676192165fb32c2e1fb7aee6,67d19405ed4a70fc61932974,2025-03-12_11h03.19.479,Tarea de decisión léxica,2024.2.5,Win32,142.8571429,,,,,,,,,,,,,,,,,,,,,,,294.693,295.7484,a,1,0.396,,0.396,1,295.7484,296.2484,,,,,,202,FEM,NOWORD,DIS,150,cusa,,el,,296.2489,296.2493,0.62962963,-0.207407407,0,0,0,,0,107,107,201,1,cuna,,,,
,,,,,,606f6be3361bd05af7ab3952,676192165fb32c2e1fb7aee6,67d19405ed4a70fc61932974,2025-03-12_11h03.19.479,Tarea de decisión léxica,2024.2.5,Win32,142.8571429,,,,,,,,,,,,,,,,,,,,,,,296.2496,297.3249,a,1,0.4169,,0.4169,1,297.3249,297.825,,,,,,164,FEM,NOWORD,AGR,150,laga,,la,,297.825,297.825,0.62962963,-0.207407407,0,0,0,,0,108,108,163,1,fama,,,,
,,,,,,606f6be3361bd05af7ab3952,676192165fb32c2e1fb7aee6,67d19405ed4a70fc61932974,2025-03-12_11h03.19.479,Tarea de decisión léxica,2024.2.5,Win32,142.8571429,,,,,,,,,,,,,,,,,,,,,,,297.8254,298.7556,a,1,0.2741,,0.2741,1,298.7557,299.2557,,,,,,166,FEM,NOWORD,DIS,150,dera,,el,,299.2558,299.2558,0.62962963,-0.207407407,0,0,0,,0,109,109,165,1,vela,,,,
,,,,,,606f6be3361bd05af7ab3952,676192165fb32c2e1fb7aee6,67d19405ed4a70fc61932974,2025-03-12_11h03.19.479,Tarea de decisión léxica,2024.2.5,Win32,142.8571429,,,,,,,,,,,,,,,,,,,,,,,299.2563,300.2977,l,1,0.3813,,0.3813,1,300.2977,300.7977,,,,,,121,MAS,WORD,AGR,150,hoyo,,el,,300.7978,300.7979,0.62962963,-0.207407407,0,0,0,,0,110,110,120,1,bomo,,,,
,,,,,,606f6be3361bd05af7ab3952,676192165fb32c2e1fb7aee6,67d19405ed4a70fc61932974,2025-03-12_11h03.19.479,Tarea de decisión léxica,2024.2.5,Win32,142.8571429,,,,,,,,,,,,,,,,,,,,,,,300.7983,301.77,a,1,0.3129,,0.3129,1,301.77,302.2701,,,,,,38,MAS,NOWORD,DIS,150,gaco,,la,,302.2702,302.2702,0.62962963,-0.207407407,0,0,0,,0,111,111,37,1,rato,,,,
,,,,,,606f6be3361bd05af7ab3952,676192165fb32c2e1fb7aee6,67d19405ed4a70fc61932974,2025-03-12_11h03.19.479,Tarea de decisión léxica,2024.2.5,Win32,142.8571429,,,,,,,,,,,,,,,,,,,,,,,302.2706,303.2633,a,1,0.3336,,0.3336,1,303.2633,303.7636,,,,,,376,FEM,NOWORD,AGR,150,sasna,,la,,303.764,303.7642,0.62962963,-0.207407407,0,0,0,,0,112,112,375,1,salsa,,,,
,,,,,,606f6be3361bd05af7ab3952,676192165fb32c2e1fb7aee6,67d19405ed4a70fc61932974,2025-03-12_11h03.19.479,Tarea de decisión léxica,2024.2.5,Win32,142.8571429,,,,,,,,,,,,,,,,,,,,,,,303.7646,304.7496,a,1,0.3267,,0.3267,1,304.7497,305.2497,,,,,,284,MAS,NOWORD,AGR,150,tuevo,,el,,305.2497,305.2497,0.62962963,-0.207407407,0,0,0,,0,113,113,283,1,sueño,,,,
,,,,,,606f6be3361bd05af7ab3952,676192165fb32c2e1fb7aee6,67d19405ed4a70fc61932974,2025-03-12_11h03.19.479,Tarea de decisión léxica,2024.2.5,Win32,142.8571429,,,,,,,,,,,,,,,,,,,,,,,305.2502,306.2221,a,1,0.3128,,0.3128,1,306.2222,306.7223,,,,,,16,FEM,NOWORD,AGR,150,odea,,la,,306.7224,306.7224,0.62962963,-0.207407407,0,0,0,,0,114,114,15,1,idea,,,,
,,,,,,606f6be3361bd05af7ab3952,676192165fb32c2e1fb7aee6,67d19405ed4a70fc61932974,2025-03-12_11h03.19.479,Tarea de decisión léxica,2024.2.5,Win32,142.8571429,,,,,,,,,,,,,,,,,,,,,,,306.7228,307.7224,l,1,0.3405,,0.3405,1,307.7225,308.2226,,,,,,89,MAS,WORD,DIS,150,humo,,la,,308.2226,308.2226,0.62962963,-0.207407407,0,0,0,,0,115,115,88,1,guso,,,,
,,,,,,606f6be3361bd05af7ab3952,676192165fb32c2e1fb7aee6,67d19405ed4a70fc61932974,2025-03-12_11h03.19.479,Tarea de decisión léxica,2024.2.5,Win32,142.8571429,,,,,,,,,,,,,,,,,,,,,,,308.2232,309.2296,l,1,0.3473,,0.3473,1,309.2296,309.7296,,,,,,207,MAS,WORD,AGR,150,kilo,,el,,309.7296,309.7297,0.62962963,-0.207407407,0,0,0,,0,116,116,206,1,kedo,,,,
,,,,,,606f6be3361bd05af7ab3952,676192165fb32c2e1fb7aee6,67d19405ed4a70fc61932974,2025-03-12_11h03.19.479,Tarea de decisión léxica,2024.2.5,Win32,142.8571429,,,,,,,,,,,,,,,,,,,,,,,309.7302,310.7714,a,1,0.3849,,0.3849,1,310.7714,311.2716,,,,,,260,MAS,NOWORD,AGR,150,jaumo,,el,,311.2721,311.2725,0.62962963,-0.207407407,0,0,0,,0,117,117,259,1,juego,,,,
,,,,,,606f6be3361bd05af7ab3952,676192165fb32c2e1fb7aee6,67d19405ed4a70fc61932974,2025-03-12_11h03.19.479,Tarea de decisión léxica,2024.2.5,Win32,142.8571429,,,,,,,,,,,,,,,,,,,,,,,311.2728,312.2719,l,1,0.3409,,0.3409,1,312.2719,312.7719,,,,,,321,MAS,WORD,DIS,150,banco,,la,,312.7719,312.772,0.62962963,-0.207407407,0,0,0,,0,118,118,320,1,rarco,,,,
,,,,,,606f6be3361bd05af7ab3952,676192165fb32c2e1fb7aee6,67d19405ed4a70fc61932974,2025-03-12_11h03.19.479,Tarea de decisión léxica,2024.2.5,Win32,142.8571429,,,,,,,,,,,,,,,,,,,,,,,312.7724,313.8067,l,1,0.3751,,0.3751,1,313.8067,314.3067,,,,,,307,MAS,WORD,DIS,150,hotel,,la,,314.3067,314.3068,0.62962963,-0.207407407,0,0,0,,0,119,119,306,1,holol,,,,
,,,,,,606f6be3361bd05af7ab3952,676192165fb32c2e1fb7aee6,67d19405ed4a70fc61932974,2025-03-12_11h03.19.479,Tarea de decisión léxica,2024.2.5,Win32,142.8571429,,,,,,,,,,,,,,,,,,,,,,,314.3072,315.2236,l,1,0.2571,,0.2571,1,315.2236,315.7236,,,,,,85,MAS,WORD,DIS,150,lago,,la,,315.7236,315.7237,0.62962963,-0.207407407,0,0,0,,0,120,120,84,1,babo,,,,
,,,,,,606f6be3361bd05af7ab3952,676192165fb32c2e1fb7aee6,67d19405ed4a70fc61932974,2025-03-12_11h03.19.479,Tarea de decisión léxica,2024.2.5,Win32,142.8571429,,,,,,,,,,,,,,,,,,,,,,,315.724,316.9737,a,1,0.5902,,0.5902,1,316.9739,317.4741,,,,,,110,MAS,NOWORD,DIS,150,suno,,la,,317.4741,317.4742,0.62962963,-0.207407407,0,0,0,,0,121,121,109,1,rayo,,,,
,,,,,,606f6be3361bd05af7ab3952,676192165fb32c2e1fb7aee6,67d19405ed4a70fc61932974,2025-03-12_11h03.19.479,Tarea de decisión léxica,2024.2.5,Win32,142.8571429,,,,,,,,,,,,,,,,,,,,,,,317.4746,318.6826,a,1,0.5485,,0.5485,1,318.6827,319.1825,,,,,,104,FEM,NOWORD,AGR,150,rova,,la,,319.183,319.1832,0.62962963,-0.207407407,0,0,0,,0,122,122,103,1,ruta,,,,
,,,,,,606f6be3361bd05af7ab3952,676192165fb32c2e1fb7aee6,67d19405ed4a70fc61932974,2025-03-12_11h03.19.479,Tarea de decisión léxica,2024.2.5,Win32,142.8571429,,,,,,,,,,,,,,,,,,,,,,,319.1835,320.3424,a,1,0.5023,,0.5023,1,320.3424,320.8425,,,,,,242,MAS,NOWORD,DIS,150,mirdo,,la,,320.8425,320.8425,0.62962963,-0.207407407,0,0,0,,0,123,123,241,1,mundo,,,,
,,,,,,606f6be3361bd05af7ab3952,676192165fb32c2e1fb7aee6,67d19405ed4a70fc61932974,2025-03-12_11h03.19.479,Tarea de decisión léxica,2024.2.5,Win32,142.8571429,,,,,,,,,,,,,,,,,,,,,,,320.8431,321.8359,a,1,0.3346,,0.3346,1,321.8359,322.3359,,,,,,324,FEM,NOWORD,AGR,150,certa,,la,,322.336,322.336,0.62962963,-0.207407407,0,0,0,,0,124,124,323,1,cinta,,,,
,,,,,,606f6be3361bd05af7ab3952,676192165fb32c2e1fb7aee6,67d19405ed4a70fc61932974,2025-03-12_11h03.19.479,Tarea de decisión léxica,2024.2.5,Win32,142.8571429,,,,,,,,,,,,,,,,,,,,,,,322.3363,323.2525,a,0,0.2601,,0.2601,0,323.2529,323.7527,,,,,,265,FEM,WORD,DIS,150,mitad,,el,,323.7527,323.7528,0.62962963,-0.207407407,0,0,0,,0,125,125,264,1,pitat,,,,
,,,,,,606f6be3361bd05af7ab3952,676192165fb32c2e1fb7aee6,67d19405ed4a70fc61932974,2025-03-12_11h03.19.479,Tarea de decisión léxica,2024.2.5,Win32,142.8571429,,,,,,,,,,,,,,,,,,,,,,,323.7532,324.8294,a,1,0.4195,,0.4195,1,324.8297,325.3295,,,,,,46,FEM,NOWORD,DIS,150,pema,,el,,325.3295,325.3295,0.62962963,-0.207407407,0,0,0,,0,126,126,45,1,mesa,,,,
,,,,,,606f6be3361bd05af7ab3952,676192165fb32c2e1fb7aee6,67d19405ed4a70fc61932974,2025-03-12_11h03.19.479,Tarea de decisión léxica,2024.2.5,Win32,142.8571429,,,,,,,,,,,,,,,,,,,,,,,325.33,326.274,a,1,0.2859,,0.2859,1,326.2741,326.7742,,,,,,330,MAS,NOWORD,DIS,150,nueno,,la,,326.7745,326.7748,0.62962963,-0.207407407,0,0,0,,0,127,127,329,1,hueso,,,,
,,,,,,606f6be3361bd05af7ab3952,676192165fb32c2e1fb7aee6,67d19405ed4a70fc61932974,2025-03-12_11h03.19.479,Tarea de decisión léxica,2024.2.5,Win32,142.8571429,,,,,,,,,,,,,,,,,,,,,,,326.7751,327.7118,a,0,0.2774,,0.2774,0,327.7122,328.2118,,,,,,327,MAS,WORD,AGR,150,fondo,,el,,328.2118,328.2118,0.62962963,-0.207407407,0,0,0,,0,128,128,326,1,lendo,,,,
,,,,,,606f6be3361bd05af7ab3952,676192165fb32c2e1fb7aee6,67d19405ed4a70fc61932974,2025-03-12_11h03.19.479,Tarea de decisión léxica,2024.2.5,Win32,142.8571429,,,,,,,,,,,,,,,,,,,,,,,328.2123,329.4619,a,1,0.5902,,0.5902,1,329.4624,329.962,,,,,,194,FEM,NOWORD,DIS,150,foda,,el,,329.962,329.962,0.62962963,-0.207407407,0,0,0,,0,129,129,193,1,loca,,,,
,,,,,,606f6be3361bd05af7ab3952,676192165fb32c2e1fb7aee6,67d19405ed4a70fc61932974,2025-03-12_11h03.19.479,Tarea de decisión léxica,2024.2.5,Win32,142.8571429,,,,,,,,,,,,,,,,,,,,,,,329.9624,331.2887,a,1,0.6704,,0.6704,1,331.2888,331.7887,,,,,,320,MAS,NOWORD,AGR,150,tuero,,el,,331.7887,331.7887,0.62962963,-0.207407407,0,0,0,,0,130,130,319,1,suelo,,,,
,,,,,,606f6be3361bd05af7ab3952,676192165fb32c2e1fb7aee6,67d19405ed4a70fc61932974,2025-03-12_11h03.19.479,Tarea de decisión léxica,2024.2.5,Win32,142.8571429,,,,,,,,,,,,,,,,,,,,,,,331.7892,332.8444,l,1,0.3976,,0.3976,1,332.8444,333.3445,,,,,,175,FEM,WORD,AGR,150,goma,,la,,333.3449,333.3452,0.62962963,-0.207407407,0,0,0,,0,131,131,174,1,hosa,,,,
,,,,,,606f6be3361bd05af7ab3952,676192165fb32c2e1fb7aee6,67d19405ed4a70fc61932974,2025-03-12_11h03.19.479,Tarea de decisión léxica,2024.2.5,Win32,142.8571429,,,,,,,,,,,,,,,,,,,,,,,333.3455,334.2893,a,1,0.2858,,0.2858,1,334.2893,334.7894,,,,,,50,FEM,NOWORD,DIS,150,ecat,,el,,334.7894,334.7894,0.62962963,-0.207407407,0,0,0,,0,132,132,49,1,edad,,,,
,,,,,,606f6be3361bd05af7ab3952,676192165fb32c2e1fb7aee6,67d19405ed4a70fc61932974,2025-03-12_11h03.19.479,Tarea de decisión léxica,2024.2.5,Win32,142.8571429,,,,,,,,,,,,,,,,,,,,,,,334.7897,335.8311,a,1,0.3849,,0.3849,1,335.8312,336.3313,,,,,,22,MAS,NOWORD,DIS,150,blan,,la,,336.3313,336.3313,0.62962963,-0.207407407,0,0,0,,0,133,133,21,1,plan,,,,
,,,,,,606f6be3361bd05af7ab3952,676192165fb32c2e1fb7aee6,67d19405ed4a70fc61932974,2025-03-12_11h03.19.479,Tarea de decisión léxica,2024.2.5,Win32,142.8571429,,,,,,,,,,,,,,,,,,,,,,,336.3317,337.4078,a,1,0.4178,,0.4178,1,337.4078,337.9079,,,,,,60,FEM,NOWORD,AGR,150,tafa,,la,,337.9079,337.9079,0.62962963,-0.207407407,0,0,0,,0,134,134,59,1,sala,,,,
,,,,,,606f6be3361bd05af7ab3952,676192165fb32c2e1fb7aee6,67d19405ed4a70fc61932974,2025-03-12_11h03.19.479,Tarea de decisión léxica,2024.2.5,Win32,142.8571429,,,,,,,,,,,,,,,,,,,,,,,337.9084,338.8663,a,1,0.2988,,0.2988,1,338.8664,339.3664,,,,,,80,FEM,NOWORD,AGR,150,ciel,,la,,339.3665,339.3665,0.62962963,-0.207407407,0,0,0,,0,135,135,79,1,piel,,,,
,,,,,,606f6be3361bd05af7ab3952,676192165fb32c2e1fb7aee6,67d19405ed4a70fc61932974,2025-03-12_11h03.19.479,Tarea de decisión léxica,2024.2.5,Win32,142.8571429,,,,,,,,,,,,,,,,,,,,,,,339.3669,340.3595,a,1,0.3341,,0.3341,1,340.3595,340.8596,,,,,,426,FEM,NOWORD,DIS,150,virca,,el,,340.8601,340.8604,0.62962963,-0.207407407,0,0,0,,0,136,136,425,1,viuda,,,,
,,,,,,606f6be3361bd05af7ab3952,676192165fb32c2e1fb7aee6,67d19405ed4a70fc61932974,2025-03-12_11h03.19.479,Tarea de decisión léxica,2024.2.5,Win32,142.8571429,,,,,,,,,,,,,,,,,,,,,,,340.8607,341.8529,l,1,0.3351,,0.3351,1,341.853,342.3529,,,,,,293,MAS,WORD,AGR,150,campo,,el,,342.3529,342.3529,0.62962963,-0.207407407,0,0,0,,0,137,137,292,1,cacso,,,,
,,,,,,606f6be3361bd05af7ab3952,676192165fb32c2e1fb7aee6,67d19405ed4a70fc61932974,2025-03-12_11h03.19.479,Tarea de decisión léxica,2024.2.5,Win32,142.8571429,,,,,,,,,,,,,,,,,,,,,,,342.3534,343.2558,a,1,0.2432,,0.2432,1,343.2558,343.7559,,,,,,344,FEM,NOWORD,AGR,150,trada,,la,,343.7559,343.7559,0.62962963,-0.207407407,0,0,0,,0,138,138,343,1,plata,,,,
,,,,,,606f6be3361bd05af7ab3952,676192165fb32c2e1fb7aee6,67d19405ed4a70fc61932974,2025-03-12_11h03.19.479,Tarea de decisión léxica,2024.2.5,Win32,142.8571429,,,,,,,,,,,,,,,,,,,,,,,343.7564,344.6587,a,1,0.2432,,0.2432,1,344.6589,345.1589,,,,,,114,FEM,NOWORD,DIS,150,tada,,el,,345.1589,345.1589,0.62962963,-0.207407407,0,0,0,,0,139,139,113,1,miel,,,,
,,,,,,606f6be3361bd05af7ab3952,676192165fb32c2e1fb7aee6,67d19405ed4a70fc61932974,2025-03-12_11h03.19.479,Tarea de decisión léxica,2024.2.5,Win32,142.8571429,,,,,,,,,,,,,,,,,,,,,,,345.1594,346.1314,l,1,0.3137,,0.3137,1,346.1315,346.6315,,,,,,109,MAS,WORD,AGR,150,rayo,,el,,346.6315,346.6315,0.62962963,-0.207407407,0,0,0,,0,140,140,108,1,suno,,,,
,,,,,,606f6be3361bd05af7ab3952,676192165fb32c2e1fb7aee6,67d19405ed4a70fc61932974,2025-03-12_11h03.19.479,Tarea de decisión léxica,2024.2.5,Win32,142.8571429,,,,,,,,,,,,,,,,,,,,,,,346.6319,347.6941,a,1,0.4065,,0.4065,1,347.6941,348.194,,,,,,20,MAS,NOWORD,AGR,150,himo,,el,,348.1945,348.1949,0.62962963,-0.207407407,0,0,0,,0,141,141,19,1,niño,,,,
,,,,,,606f6be3361bd05af7ab3952,676192165fb32c2e1fb7aee6,67d19405ed4a70fc61932974,2025-03-12_11h03.19.479,Tarea de decisión léxica,2024.2.5,Win32,142.8571429,,,,,,,,,,,,,,,,,,,,,,,348.1951,349.1873,l,1,0.3376,,0.3376,1,349.1873,349.6873,,,,,,71,FEM,WORD,DIS,150,isla,,el,,349.6873,349.6874,0.62962963,-0.207407407,0,0,0,,0,142,142,70,1,urla,,,,
,,,,,,606f6be3361bd05af7ab3952,676192165fb32c2e1fb7aee6,67d19405ed4a70fc61932974,2025-03-12_11h03.19.479,Tarea de decisión léxica,2024.2.5,Win32,142.8571429,,,,,,,,,,,,,,,,,,,,,,,349.6878,350.5696,a,1,0.2254,,0.2254,1,350.5696,351.0697,,,,,,190,MAS,NOWORD,DIS,150,muvo,,la,,351.0697,351.0698,0.62962963,-0.207407407,0,0,0,,0,143,143,189,1,puño,,,,
,,,,,,606f6be3361bd05af7ab3952,676192165fb32c2e1fb7aee6,67d19405ed4a70fc61932974,2025-03-12_11h03.19.479,Tarea de decisión léxica,2024.2.5,Win32,142.8571429,,,,,,,,,,,,,,,,,,,,,,,351.0702,351.9794,l,1,0.2532,,0.2532,1,351.9794,352.4795,,,,,,423,MAS,WORD,AGR,150,queso,,el,,352.4796,352.4796,0.62962963,-0.207407407,0,0,0,,0,144,144,422,1,quigo,,,,
,,,,,,606f6be3361bd05af7ab3952,676192165fb32c2e1fb7aee6,67d19405ed4a70fc61932974,2025-03-12_11h03.19.479,Tarea de decisión léxica,2024.2.5,Win32,142.8571429,,,,,,,,,,,,,,,,,,,,,,,352.48,353.431,l,1,0.292,,0.292,1,353.431,353.9312,,,,,,257,FEM,WORD,DIS,150,amiga,,el,,353.9312,353.9313,0.62962963,-0.207407407,0,0,0,,0,145,145,256,1,asama,,,,
,,,,,,606f6be3361bd05af7ab3952,676192165fb32c2e1fb7aee6,67d19405ed4a70fc61932974,2025-03-12_11h03.19.479,Tarea de decisión léxica,2024.2.5,Win32,142.8571429,,,,,,,,,,,,,,,,,,,,,,,353.9318,354.841,l,0,0.2518,,0.2518,0,354.8414,355.3411,,,,,,88,MAS,NOWORD,AGR,150,damo,,el,,355.3415,355.3419,0.62962963,-0.207407407,0,0,0,,0,146,146,87,1,vaso,,,,
,,,,,,606f6be3361bd05af7ab3952,676192165fb32c2e1fb7aee6,67d19405ed4a70fc61932974,2025-03-12_11h03.19.479,Tarea de decisión léxica,2024.2.5,Win32,142.8571429,,,,,,,,,,,,,,,,,,,,,,,355.3421,356.3551,a,1,0.3538,,0.3538,1,356.3554,356.8552,,,,,,442,FEM,NOWORD,DIS,150,telza,,el,,356.8552,356.8552,0.62962963,-0.207407407,0,0,0,,0,147,147,441,1,selva,,,,
,,,,,,606f6be3361bd05af7ab3952,676192165fb32c2e1fb7aee6,67d19405ed4a70fc61932974,2025-03-12_11h03.19.479,Tarea de decisión léxica,2024.2.5,Win32,142.8571429,,,,,,,,,,,,,,,,,,,,,,,356.8557,357.8207,a,1,0.3057,,0.3057,1,357.8208,358.3208,,,,,,18,FEM,NOWORD,DIS,150,paba,,el,,358.3208,358.3209,0.62962963,-0.207407407,0,0,0,,0,148,148,17,1,mamá,,,,
,,,,,,606f6be3361bd05af7ab3952,676192165fb32c2e1fb7aee6,67d19405ed4a70fc61932974,2025-03-12_11h03.19.479,Tarea de decisión léxica,2024.2.5,Win32,142.8571429,,,,,,,,,,,,,,,,,,,,,,,358.3214,359.2862,a,1,0.3056,,0.3056,1,359.2863,359.7863,,,,,,42,FEM,NOWORD,DIS,150,haje,,el,,359.7863,359.7863,0.62962963,-0.207407407,0,0,0,,0,149,149,41,1,nave,,,,
,,,,,,606f6be3361bd05af7ab3952,676192165fb32c2e1fb7aee6,67d19405ed4a70fc61932974,2025-03-12_11h03.19.479,Tarea de decisión léxica,2024.2.5,Win32,142.8571429,,,,,,,,,,,,,,,,,,,,,,,359.7869,360.9393,a,0,0.4931,,0.4931,0,360.9397,361.4394,,,,,,275,MAS,WORD,DIS,150,punto,,la,,361.4394,361.4394,0.62962963,-0.207407407,0,0,0,,0,150,150,274,1,musto,,,,
,,,,,,606f6be3361bd05af7ab3952,676192165fb32c2e1fb7aee6,67d19405ed4a70fc61932974,2025-03-12_11h03.19.479,Tarea de decisión léxica,2024.2.5,Win32,142.8571429,,,,,,,,,,,,,,,,,,,,,,,361.4398,362.502,l,1,0.4035,,0.4035,1,362.5023,363.002,,,,,,389,MAS,WORD,AGR,150,cerdo,,el,,363.0023,363.0026,0.62962963,-0.207407407,0,0,0,,0,151,151,388,1,cenco,,,,
,,,,,,606f6be3361bd05af7ab3952,676192165fb32c2e1fb7aee6,67d19405ed4a70fc61932974,2025-03-12_11h03.19.479,Tarea de decisión léxica,2024.2.5,Win32,142.8571429,,,,,,,,,,,,,,,,,,,,,,,363.0029,364.016,a,1,0.354,,0.354,1,364.0161,364.5163,,,,,,188,MAS,NOWORD,AGR,150,suto,,el,,364.5163,364.5163,0.62962963,-0.207407407,0,0,0,,0,152,152,187,1,mito,,,,
,,,,,,606f6be3361bd05af7ab3952,676192165fb32c2e1fb7aee6,67d19405ed4a70fc61932974,2025-03-12_11h03.19.479,Tarea de decisión léxica,2024.2.5,Win32,142.8571429,,,,,,,,,,,,,,,,,,,,,,,364.5167,365.5234,l,1,0.3477,,0.3477,1,365.5234,366.0235,,,,,,251,MAS,WORD,AGR,150,señor,,el,,366.0235,366.0235,0.62962963,-0.207407407,0,0,0,,0,153,153,250,1,refor,,,,
,,,,,,606f6be3361bd05af7ab3952,676192165fb32c2e1fb7aee6,67d19405ed4a70fc61932974,2025-03-12_11h03.19.479,Tarea de decisión léxica,2024.2.5,Win32,142.8571429,,,,,,,,,,,,,,,,,,,,,,,366.0239,367.0095,l,1,0.3302,,0.3302,1,367.0095,367.5097,,,,,,167,FEM,WORD,AGR,150,jefa,,la,,367.5097,367.5097,0.62962963,-0.207407407,0,0,0,,0,154,154,166,1,zifa,,,,
,,,,,,606f6be3361bd05af7ab3952,676192165fb32c2e1fb7aee6,67d19405ed4a70fc61932974,2025-03-12_11h03.19.479,Tarea de decisión léxica,2024.2.5,Win32,142.8571429,,,,,,,,,,,,,,,,,,,,,,,367.5101,368.7112,l,1,0.5427,,0.5427,1,368.7113,369.2113,,,,,,61,FEM,WORD,DIS,150,obra,,el,,369.2117,369.2121,0.62962963,-0.207407407,0,0,0,,0,155,155,60,1,efla,,,,
,,,,,,606f6be3361bd05af7ab3952,676192165fb32c2e1fb7aee6,67d19405ed4a70fc61932974,2025-03-12_11h03.19.479,Tarea de decisión léxica,2024.2.5,Win32,142.8571429,,,,,,,,,,,,,,,,,,,,,,,369.2124,370.1282,l,1,0.2611,,0.2611,1,370.1282,370.6282,,,,,,413,FEM,WORD,AGR,150,rueda,,la,,370.6282,370.6283,0.62962963,-0.207407407,0,0,0,,0,156,156,412,1,bieda,,,,
,,,,,,606f6be3361bd05af7ab3952,676192165fb32c2e1fb7aee6,67d19405ed4a70fc61932974,2025-03-12_11h03.19.479,Tarea de decisión léxica,2024.2.5,Win32,142.8571429,,,,,,,,,,,,,,,,,,,,,,,370.6287,371.677,a,1,0.3892,,0.3892,1,371.677,372.177,,,,,,244,MAS,NOWORD,AGR,150,asamo,,el,,372.1771,372.1771,0.62962963,-0.207407407,0,0,0,,0,157,157,243,1,amigo,,,,
,,,,,,606f6be3361bd05af7ab3952,676192165fb32c2e1fb7aee6,67d19405ed4a70fc61932974,2025-03-12_11h03.19.479,Tarea de decisión léxica,2024.2.5,Win32,142.8571429,,,,,,,,,,,,,,,,,,,,,,,372.1775,373.5246,l,1,0.6885,,0.6885,1,373.5247,374.0247,,,,,,221,FEM,WORD,DIS,150,mula,,el,,374.0247,374.0247,0.62962963,-0.207407407,0,0,0,,0,158,158,220,1,puca,,,,
,,,,,,606f6be3361bd05af7ab3952,676192165fb32c2e1fb7aee6,67d19405ed4a70fc61932974,2025-03-12_11h03.19.479,Tarea de decisión léxica,2024.2.5,Win32,142.8571429,,,,,,,,,,,,,,,,,,,,,,,374.0251,375.1013,l,1,0.4168,,0.4168,1,375.1013,375.6014,,,,,,201,FEM,WORD,AGR,150,cuna,,la,,375.6014,375.6015,0.62962963,-0.207407407,0,0,0,,0,159,159,200,1,cusa,,,,
,,,,,,606f6be3361bd05af7ab3952,676192165fb32c2e1fb7aee6,67d19405ed4a70fc61932974,2025-03-12_11h03.19.479,Tarea de decisión léxica,2024.2.5,Win32,142.8571429,,,,,,,,,,,,,,,,,,,,,,,375.6018,376.6291,l,1,0.3703,,0.3703,1,376.6292,377.1292,,,,,,193,FEM,WORD,AGR,150,loca,,la,,377.1296,389.4369,0.62962963,-0.207407407,0,0,0,space,0,160,160,192,1,foda,12.2957,,,
,,,,,,606f6be3361bd05af7ab3952,676192165fb32c2e1fb7aee6,67d19405ed4a70fc61932974,2025-03-12_11h03.19.479,Tarea de decisión léxica,2024.2.5,Win32,142.8571429,,,,,,,,,,,,,,,,,,,,,,,389.4373,390.548,a,1,0.4515,,0.4515,1,390.548,391.048,,,,,,112,MAS,NOWORD,AGR,150,siro,,el,,391.0481,391.0482,0.62962963,-0.207407407,0,0,0,,0,161,161,111,1,muro,,,,
,,,,,,606f6be3361bd05af7ab3952,676192165fb32c2e1fb7aee6,67d19405ed4a70fc61932974,2025-03-12_11h03.19.479,Tarea de decisión léxica,2024.2.5,Win32,142.8571429,,,,,,,,,,,,,,,,,,,,,,,391.0486,392.1317,l,1,0.425,,0.425,1,392.1318,392.6318,,,,,,429,FEM,WORD,DIS,150,tarta,,el,,392.6318,392.6319,0.62962963,-0.207407407,0,0,0,,0,162,162,428,1,tenta,,,,
,,,,,,606f6be3361bd05af7ab3952,676192165fb32c2e1fb7aee6,67d19405ed4a70fc61932974,2025-03-12_11h03.19.479,Tarea de decisión léxica,2024.2.5,Win32,142.8571429,,,,,,,,,,,,,,,,,,,,,,,392.6323,393.7292,a,1,0.4378,,0.4378,1,393.7293,394.2293,,,,,,90,MAS,NOWORD,DIS,150,guso,,la,,394.2293,394.2293,0.62962963,-0.207407407,0,0,0,,0,163,163,89,1,humo,,,,
,,,,,,606f6be3361bd05af7ab3952,676192165fb32c2e1fb7aee6,67d19405ed4a70fc61932974,2025-03-12_11h03.19.479,Tarea de decisión léxica,2024.2.5,Win32,142.8571429,,,,,,,,,,,,,,,,,,,,,,,394.2297,395.264,l,1,0.3774,,0.3774,1,395.2641,395.7641,,,,,,255,MAS,WORD,AGR,150,miedo,,el,,395.7642,395.7642,0.62962963,-0.207407407,0,0,0,,0,164,164,254,1,mauco,,,,
,,,,,,606f6be3361bd05af7ab3952,676192165fb32c2e1fb7aee6,67d19405ed4a70fc61932974,2025-03-12_11h03.19.479,Tarea de decisión léxica,2024.2.5,Win32,142.8571429,,,,,,,,,,,,,,,,,,,,,,,395.7645,396.7157,a,1,0.2963,,0.2963,1,396.7157,397.2159,,,,,,270,MAS,NOWORD,DIS,150,mello,,la,,397.2164,397.2168,0.62962963,-0.207407407,0,0,0,,0,165,165,269,1,perro,,,,
,,,,,,606f6be3361bd05af7ab3952,676192165fb32c2e1fb7aee6,67d19405ed4a70fc61932974,2025-03-12_11h03.19.479,Tarea de decisión léxica,2024.2.5,Win32,142.8571429,,,,,,,,,,,,,,,,,,,,,,,397.2171,398.2091,a,1,0.3357,,0.3357,1,398.2091,398.7092,,,,,,150,MAS,NOWORD,DIS,150,pafo,,la,,398.7092,398.7093,0.62962963,-0.207407407,0,0,0,,0,166,166,149,1,cabo,,,,
,,,,,,606f6be3361bd05af7ab3952,676192165fb32c2e1fb7aee6,67d19405ed4a70fc61932974,2025-03-12_11h03.19.479,Tarea de decisión léxica,2024.2.5,Win32,142.8571429,,,,,,,,,,,,,,,,,,,,,,,398.7097,399.7647,a,1,0.3958,,0.3958,1,399.7648,400.2649,,,,,,430,FEM,NOWORD,DIS,150,tenta,,el,,400.2649,400.2649,0.62962963,-0.207407407,0,0,0,,0,167,167,429,1,tarta,,,,
,,,,,,606f6be3361bd05af7ab3952,676192165fb32c2e1fb7aee6,67d19405ed4a70fc61932974,2025-03-12_11h03.19.479,Tarea de decisión léxica,2024.2.5,Win32,142.8571429,,,,,,,,,,,,,,,,,,,,,,,400.2653,401.2998,a,1,0.3753,,0.3753,1,401.2998,401.7998,,,,,,472,FEM,NOWORD,AGR,150,prana,,la,,401.7998,401.7999,0.62962963,-0.207407407,0,0,0,,0,168,168,471,1,grasa,,,,
,,,,,,606f6be3361bd05af7ab3952,676192165fb32c2e1fb7aee6,67d19405ed4a70fc61932974,2025-03-12_11h03.19.479,Tarea de decisión léxica,2024.2.5,Win32,142.8571429,,,,,,,,,,,,,,,,,,,,,,,401.8003,402.7098,a,1,0.2536,,0.2536,1,402.7098,403.2099,,,,,,342,MAS,NOWORD,DIS,150,daror,,la,,403.2099,403.2099,0.62962963,-0.207407407,0,0,0,,0,169,169,341,1,valor,,,,
,,,,,,606f6be3361bd05af7ab3952,676192165fb32c2e1fb7aee6,67d19405ed4a70fc61932974,2025-03-12_11h03.19.479,Tarea de decisión léxica,2024.2.5,Win32,142.8571429,,,,,,,,,,,,,,,,,,,,,,,403.2103,404.1405,a,1,0.2715,,0.2715,1,404.1405,404.6405,,,,,,122,MAS,NOWORD,DIS,150,bomo,,la,,404.6408,404.6412,0.62962963,-0.207407407,0,0,0,,0,170,170,121,1,hoyo,,,,
,,,,,,606f6be3361bd05af7ab3952,676192165fb32c2e1fb7aee6,67d19405ed4a70fc61932974,2025-03-12_11h03.19.479,Tarea de decisión léxica,2024.2.5,Win32,142.8571429,,,,,,,,,,,,,,,,,,,,,,,404.6415,405.724,a,1,0.4242,,0.4242,1,405.7241,406.2241,,,,,,66,MAS,NOWORD,DIS,150,nios,,la,,406.2241,406.2242,0.62962963,-0.207407407,0,0,0,,0,171,171,65,1,dios,,,,
,,,,,,606f6be3361bd05af7ab3952,676192165fb32c2e1fb7aee6,67d19405ed4a70fc61932974,2025-03-12_11h03.19.479,Tarea de decisión léxica,2024.2.5,Win32,142.8571429,,,,,,,,,,,,,,,,,,,,,,,406.2246,407.2522,a,1,0.3717,,0.3717,1,407.2523,407.7523,,,,,,400,MAS,NOWORD,AGR,150,serro,,el,,407.7523,407.7524,0.62962963,-0.207407407,0,0,0,,0,172,172,399,1,techo,,,,
,,,,,,606f6be3361bd05af7ab3952,676192165fb32c2e1fb7aee6,67d19405ed4a70fc61932974,2025-03-12_11h03.19.479,Tarea de decisión léxica,2024.2.5,Win32,142.8571429,,,,,,,,,,,,,,,,,,,,,,,407.7528,409.0859,l,1,0.6741,,0.6741,1,409.0859,409.5859,,,,,,43,FEM,WORD,DIS,150,pena,,el,,409.5859,409.586,0.62962963,-0.207407407,0,0,0,,0,173,173,42,1,meda,,,,
,,,,,,606f6be3361bd05af7ab3952,676192165fb32c2e1fb7aee6,67d19405ed4a70fc61932974,2025-03-12_11h03.19.479,Tarea de decisión léxica,2024.2.5,Win32,142.8571429,,,,,,,,,,,,,,,,,,,,,,,409.5865,410.6485,l,1,0.4043,,0.4043,1,410.6485,411.1485,,,,,,155,FEM,WORD,DIS,150,fuga,,el,,411.1485,411.1485,0.62962963,-0.207407407,0,0,0,,0,174,174,154,1,luma,,,,
,,,,,,606f6be3361bd05af7ab3952,676192165fb32c2e1fb7aee6,67d19405ed4a70fc61932974,2025-03-12_11h03.19.479,Tarea de decisión léxica,2024.2.5,Win32,142.8571429,,,,,,,,,,,,,,,,,,,,,,,411.1489,412.121,l,1,0.3124,,0.3124,1,412.121,412.621,,,,,,117,MAS,WORD,AGR,150,palo,,el,,412.6215,412.6218,0.62962963,-0.207407407,0,0,0,,0,175,175,116,1,movo,,,,
,,,,,,606f6be3361bd05af7ab3952,676192165fb32c2e1fb7aee6,67d19405ed4a70fc61932974,2025-03-12_11h03.19.479,Tarea de decisión léxica,2024.2.5,Win32,142.8571429,,,,,,,,,,,,,,,,,,,,,,,412.6221,413.6558,l,1,0.3752,,0.3752,1,413.6559,414.1559,,,,,,13,FEM,WORD,DIS,150,hora,,el,,414.1559,414.1559,0.62962963,-0.207407407,0,0,0,,0,176,176,12,1,nola,,,,
,,,,,,606f6be3361bd05af7ab3952,676192165fb32c2e1fb7aee6,67d19405ed4a70fc61932974,2025-03-12_11h03.19.479,Tarea de decisión léxica,2024.2.5,Win32,142.8571429,,,,,,,,,,,,,,,,,,,,,,,414.1563,415.1978,a,1,0.3821,,0.3821,1,415.1978,415.6978,,,,,,362,FEM,NOWORD,DIS,150,solle,,el,,415.6978,415.6979,0.62962963,-0.207407407,0,0,0,,0,177,177,361,1,torre,,,,
,,,,,,606f6be3361bd05af7ab3952,676192165fb32c2e1fb7aee6,67d19405ed4a70fc61932974,2025-03-12_11h03.19.479,Tarea de decisión léxica,2024.2.5,Win32,142.8571429,,,,,,,,,,,,,,,,,,,,,,,415.6984,416.7329,a,1,0.375,,0.375,1,416.7329,417.2329,,,,,,158,MAS,NOWORD,DIS,150,hico,,la,,417.233,417.233,0.62962963,-0.207407407,0,0,0,,0,178,178,157,1,nido,,,,
,,,,,,606f6be3361bd05af7ab3952,676192165fb32c2e1fb7aee6,67d19405ed4a70fc61932974,2025-03-12_11h03.19.479,Tarea de decisión léxica,2024.2.5,Win32,142.8571429,,,,,,,,,,,,,,,,,,,,,,,417.2335,418.4205,l,1,0.5292,,0.5292,1,418.4206,418.9206,,,,,,39,MAS,WORD,DIS,150,voto,,la,,418.9211,418.9214,0.62962963,-0.207407407,0,0,0,,0,179,179,38,1,redo,,,,
,,,,,,606f6be3361bd05af7ab3952,676192165fb32c2e1fb7aee6,67d19405ed4a70fc61932974,2025-03-12_11h03.19.479,Tarea de decisión léxica,2024.2.5,Win32,142.8571429,,,,,,,,,,,,,,,,,,,,,,,418.9218,419.9208,l,1,0.3395,,0.3395,1,419.9208,420.4208,,,,,,331,MAS,WORD,AGR,150,éxito,,el,,420.4209,420.4209,0.62962963,-0.207407407,0,0,0,,0,180,180,330,1,erato,,,,
,,,,,,606f6be3361bd05af7ab3952,676192165fb32c2e1fb7aee6,67d19405ed4a70fc61932974,2025-03-12_11h03.19.479,Tarea de decisión léxica,2024.2.5,Win32,142.8571429,,,,,,,,,,,,,,,,,,,,,,,420.4214,421.4349,a,1,0.3532,,0.3532,1,421.4349,421.9349,,,,,,332,MAS,NOWORD,AGR,150,erato,,el,,421.9349,421.935,0.62962963,-0.207407407,0,0,0,,0,181,181,331,1,éxito,,,,
,,,,,,606f6be3361bd05af7ab3952,676192165fb32c2e1fb7aee6,67d19405ed4a70fc61932974,2025-03-12_11h03.19.479,Tarea de decisión léxica,2024.2.5,Win32,142.8571429,,,,,,,,,,,,,,,,,,,,,,,421.9354,422.963,a,1,0.369,,0.369,1,422.963,423.4631,,,,,,14,FEM,NOWORD,DIS,150,nola,,el,,423.4631,423.4633,0.62962963,-0.207407407,0,0,0,,0,182,182,13,1,hora,,,,
,,,,,,606f6be3361bd05af7ab3952,676192165fb32c2e1fb7aee6,67d19405ed4a70fc61932974,2025-03-12_11h03.19.479,Tarea de decisión léxica,2024.2.5,Win32,142.8571429,,,,,,,,,,,,,,,,,,,,,,,423.4636,424.4771,l,1,0.3552,,0.3552,1,424.4771,424.9771,,,,,,449,FEM,WORD,DIS,150,pluma,,el,,424.9772,424.9772,0.62962963,-0.207407407,0,0,0,,0,183,183,448,1,crusa,,,,
,,,,,,606f6be3361bd05af7ab3952,676192165fb32c2e1fb7aee6,67d19405ed4a70fc61932974,2025-03-12_11h03.19.479,Tarea de decisión léxica,2024.2.5,Win32,142.8571429,,,,,,,,,,,,,,,,,,,,,,,424.9776,425.9705,l,1,0.3335,,0.3335,1,425.9705,426.4706,,,,,,21,MAS,WORD,AGR,150,plan,,el,,426.471,426.4714,0.62962963,-0.207407407,0,0,0,,0,184,184,20,1,blan,,,,
,,,,,,606f6be3361bd05af7ab3952,676192165fb32c2e1fb7aee6,67d19405ed4a70fc61932974,2025-03-12_11h03.19.479,Tarea de decisión léxica,2024.2.5,Win32,142.8571429,,,,,,,,,,,,,,,,,,,,,,,426.4717,427.4707,l,1,0.343,,0.343,1,427.4708,427.9707,,,,,,341,MAS,WORD,DIS,150,valor,,la,,427.9708,427.9708,0.62962963,-0.207407407,0,0,0,,0,185,185,340,1,daror,,,,
,,,,,,606f6be3361bd05af7ab3952,676192165fb32c2e1fb7aee6,67d19405ed4a70fc61932974,2025-03-12_11h03.19.479,Tarea de decisión léxica,2024.2.5,Win32,142.8571429,,,,,,,,,,,,,,,,,,,,,,,427.9713,428.8943,l,1,0.2656,,0.2656,1,428.8944,429.3945,,,,,,295,MAS,WORD,DIS,150,dolor,,la,,429.3945,429.3945,0.62962963,-0.207407407,0,0,0,,0,186,186,294,1,goler,,,,
,,,,,,606f6be3361bd05af7ab3952,676192165fb32c2e1fb7aee6,67d19405ed4a70fc61932974,2025-03-12_11h03.19.479,Tarea de decisión léxica,2024.2.5,Win32,142.8571429,,,,,,,,,,,,,,,,,,,,,,,429.3949,430.3184,l,1,0.2641,,0.2641,1,430.3184,430.8185,,,,,,335,FEM,WORD,AGR,150,costa,,la,,430.8185,430.8185,0.62962963,-0.207407407,0,0,0,,0,187,187,334,1,pesta,,,,
,,,,,,606f6be3361bd05af7ab3952,676192165fb32c2e1fb7aee6,67d19405ed4a70fc61932974,2025-03-12_11h03.19.479,Tarea de decisión léxica,2024.2.5,Win32,142.8571429,,,,,,,,,,,,,,,,,,,,,,,430.8189,431.7212,l,1,0.2425,,0.2425,1,431.7212,432.2213,,,,,,79,FEM,WORD,AGR,150,piel,,la,,432.2214,432.2214,0.62962963,-0.207407407,0,0,0,,0,188,188,78,1,ciel,,,,
,,,,,,606f6be3361bd05af7ab3952,676192165fb32c2e1fb7aee6,67d19405ed4a70fc61932974,2025-03-12_11h03.19.479,Tarea de decisión léxica,2024.2.5,Win32,142.8571429,,,,,,,,,,,,,,,,,,,,,,,432.2217,433.2772,a,1,0.3961,,0.3961,1,433.2772,433.7773,,,,,,358,FEM,NOWORD,DIS,150,gruba,,el,,433.7777,433.7781,0.62962963,-0.207407407,0,0,0,,0,189,189,357,1,bruja,,,,
,,,,,,606f6be3361bd05af7ab3952,676192165fb32c2e1fb7aee6,67d19405ed4a70fc61932974,2025-03-12_11h03.19.479,Tarea de decisión léxica,2024.2.5,Win32,142.8571429,,,,,,,,,,,,,,,,,,,,,,,433.7783,434.8399,a,1,0.4065,,0.4065,1,434.8399,435.34,,,,,,102,MAS,NOWORD,DIS,150,gito,,la,,435.34,435.3401,0.62962963,-0.207407407,0,0,0,,0,190,190,101,1,tono,,,,
,,,,,,606f6be3361bd05af7ab3952,676192165fb32c2e1fb7aee6,67d19405ed4a70fc61932974,2025-03-12_11h03.19.479,Tarea de decisión léxica,2024.2.5,Win32,142.8571429,,,,,,,,,,,,,,,,,,,,,,,435.3406,436.3471,l,1,0.3495,,0.3495,1,436.3471,436.8472,,,,,,17,FEM,WORD,DIS,150,mamá,,el,,436.8472,436.8473,0.62962963,-0.207407407,0,0,0,,0,191,191,16,1,paba,,,,
,,,,,,606f6be3361bd05af7ab3952,676192165fb32c2e1fb7aee6,67d19405ed4a70fc61932974,2025-03-12_11h03.19.479,Tarea de decisión léxica,2024.2.5,Win32,142.8571429,,,,,,,,,,,,,,,,,,,,,,,436.8478,437.8403,a,1,0.3337,,0.3337,1,437.8404,438.3404,,,,,,162,MAS,NOWORD,DIS,150,bopo,,la,,438.3404,438.3404,0.62962963,-0.207407407,0,0,0,,0,192,192,161,1,coro,,,,
,,,,,,606f6be3361bd05af7ab3952,676192165fb32c2e1fb7aee6,67d19405ed4a70fc61932974,2025-03-12_11h03.19.479,Tarea de decisión léxica,2024.2.5,Win32,142.8571429,,,,,,,,,,,,,,,,,,,,,,,438.3409,439.3059,a,0,0.3094,,0.3094,0,439.3062,439.8061,,,,,,299,FEM,WORD,AGR,150,bolsa,,la,,439.8061,439.8061,0.62962963,-0.207407407,0,0,0,,0,193,193,298,1,bosga,,,,
,,,,,,606f6be3361bd05af7ab3952,676192165fb32c2e1fb7aee6,67d19405ed4a70fc61932974,2025-03-12_11h03.19.479,Tarea de decisión léxica,2024.2.5,Win32,142.8571429,,,,,,,,,,,,,,,,,,,,,,,439.8065,440.7713,l,1,0.3066,,0.3066,1,440.7715,441.2714,,,,,,47,MAS,WORD,AGR,150,club,,el,,441.2718,441.2723,0.62962963,-0.207407407,0,0,0,,0,194,194,46,1,chub,,,,
,,,,,,606f6be3361bd05af7ab3952,676192165fb32c2e1fb7aee6,67d19405ed4a70fc61932974,2025-03-12_11h03.19.479,Tarea de decisión léxica,2024.2.5,Win32,142.8571429,,,,,,,,,,,,,,,,,,,,,,,441.2726,442.3342,a,1,0.403,,0.403,1,442.3343,442.8342,,,,,,116,FEM,NOWORD,AGR,150,haca,,la,,442.8343,442.8343,0.62962963,-0.207407407,0,0,0,,0,195,195,115,1,pata,,,,
,,,,,,606f6be3361bd05af7ab3952,676192165fb32c2e1fb7aee6,67d19405ed4a70fc61932974,2025-03-12_11h03.19.479,Tarea de decisión léxica,2024.2.5,Win32,142.8571429,,,,,,,,,,,,,,,,,,,,,,,442.8346,443.9593,l,1,0.4682,,0.4682,1,443.9593,444.4593,,,,,,391,MAS,WORD,DIS,150,dueño,,la,,444.4593,444.4594,0.62962963,-0.207407407,0,0,0,,0,196,196,390,1,dievo,,,,
,,,,,,606f6be3361bd05af7ab3952,676192165fb32c2e1fb7aee6,67d19405ed4a70fc61932974,2025-03-12_11h03.19.479,Tarea de decisión léxica,2024.2.5,Win32,142.8571429,,,,,,,,,,,,,,,,,,,,,,,444.4598,445.4665,a,1,0.3472,,0.3472,1,445.4665,445.9665,,,,,,2,FEM,NOWORD,DIS,150,mada,,el,,445.9666,445.9666,0.62962963,-0.207407407,0,0,0,,0,197,197,1,1,casa,,,,
,,,,,,606f6be3361bd05af7ab3952,676192165fb32c2e1fb7aee6,67d19405ed4a70fc61932974,2025-03-12_11h03.19.479,Tarea de decisión léxica,2024.2.5,Win32,142.8571429,,,,,,,,,,,,,,,,,,,,,,,445.967,447.189,l,1,0.5628,,0.5628,1,447.189,447.689,,,,,,417,FEM,WORD,AGR,150,barba,,la,,447.689,447.6891,0.62962963,-0.207407407,0,0,0,,0,198,198,416,1,banja,,,,
,,,,,,606f6be3361bd05af7ab3952,676192165fb32c2e1fb7aee6,67d19405ed4a70fc61932974,2025-03-12_11h03.19.479,Tarea de decisión léxica,2024.2.5,Win32,142.8571429,,,,,,,,,,,,,,,,,,,,,,,447.6896,448.7864,l,1,0.4388,,0.4388,1,448.7865,449.2866,,,,,,465,FEM,WORD,AGR,150,aguja,,la,,449.2871,449.2874,0.62962963,-0.207407407,0,0,0,,0,199,199,464,1,asuba,,,,
,,,,,,606f6be3361bd05af7ab3952,676192165fb32c2e1fb7aee6,67d19405ed4a70fc61932974,2025-03-12_11h03.19.479,Tarea de decisión léxica,2024.2.5,Win32,142.8571429,,,,,,,,,,,,,,,,,,,,,,,449.2877,450.2867,l,1,0.3443,,0.3443,1,450.2867,450.7868,,,,,,345,FEM,WORD,AGR,150,arena,,la,,450.7868,450.7868,0.62962963,-0.207407407,0,0,0,,0,200,200,344,1,anera,,,,
,,,,,,606f6be3361bd05af7ab3952,676192165fb32c2e1fb7aee6,67d19405ed4a70fc61932974,2025-03-12_11h03.19.479,Tarea de decisión léxica,2024.2.5,Win32,142.8571429,,,,,,,,,,,,,,,,,,,,,,,450.7873,451.6689,l,1,0.2243,,0.2243,1,451.6689,452.1689,,,,,,287,FEM,WORD,DIS,150,lista,,el,,452.169,452.169,0.62962963,-0.207407407,0,0,0,,0,201,201,286,1,fosta,,,,
,,,,,,606f6be3361bd05af7ab3952,676192165fb32c2e1fb7aee6,67d19405ed4a70fc61932974,2025-03-12_11h03.19.479,Tarea de decisión léxica,2024.2.5,Win32,142.8571429,,,,,,,,,,,,,,,,,,,,,,,452.1695,453.0372,l,1,0.2082,,0.2082,1,453.0373,453.5373,,,,,,187,MAS,WORD,AGR,150,mito,,el,,453.5374,453.5375,0.62962963,-0.207407407,0,0,0,,0,202,202,186,1,suto,,,,
,,,,,,606f6be3361bd05af7ab3952,676192165fb32c2e1fb7aee6,67d19405ed4a70fc61932974,2025-03-12_11h03.19.479,Tarea de decisión léxica,2024.2.5,Win32,142.8571429,,,,,,,,,,,,,,,,,,,,,,,453.5379,454.447,l,1,0.2529,,0.2529,1,454.4471,454.9472,,,,,,249,FEM,WORD,AGR,150,clase,,la,,454.9476,454.9479,0.62962963,-0.207407407,0,0,0,,0,203,203,248,1,plane,,,,
,,,,,,606f6be3361bd05af7ab3952,676192165fb32c2e1fb7aee6,67d19405ed4a70fc61932974,2025-03-12_11h03.19.479,Tarea de decisión léxica,2024.2.5,Win32,142.8571429,,,,,,,,,,,,,,,,,,,,,,,454.9482,455.8919,l,1,0.2869,,0.2869,1,455.892,456.392,,,,,,415,FEM,WORD,DIS,150,jaula,,el,,456.392,456.392,0.62962963,-0.207407407,0,0,0,,0,204,204,414,1,juira,,,,
,,,,,,606f6be3361bd05af7ab3952,676192165fb32c2e1fb7aee6,67d19405ed4a70fc61932974,2025-03-12_11h03.19.479,Tarea de decisión léxica,2024.2.5,Win32,142.8571429,,,,,,,,,,,,,,,,,,,,,,,456.3925,457.503,a,1,0.454,,0.454,1,457.5031,458.0032,,,,,,272,FEM,NOWORD,AGR,150,refal,,la,,458.0032,458.0033,0.62962963,-0.207407407,0,0,0,,0,205,205,271,1,señal,,,,
,,,,,,606f6be3361bd05af7ab3952,676192165fb32c2e1fb7aee6,67d19405ed4a70fc61932974,2025-03-12_11h03.19.479,Tarea de decisión léxica,2024.2.5,Win32,142.8571429,,,,,,,,,,,,,,,,,,,,,,,458.0037,459.0729,a,1,0.4141,,0.4141,1,459.073,459.573,,,,,,6,FEM,NOWORD,DIS,150,poga,,el,,459.573,459.5731,0.62962963,-0.207407407,0,0,0,,0,206,206,5,1,cosa,,,,
,,,,,,606f6be3361bd05af7ab3952,676192165fb32c2e1fb7aee6,67d19405ed4a70fc61932974,2025-03-12_11h03.19.479,Tarea de decisión léxica,2024.2.5,Win32,142.8571429,,,,,,,,,,,,,,,,,,,,,,,459.5735,460.6357,l,1,0.4059,,0.4059,1,460.6357,461.1358,,,,,,351,MAS,WORD,DIS,150,vuelo,,la,,461.1358,461.1358,0.62962963,-0.207407407,0,0,0,,0,207,207,350,1,duepo,,,,
,,,,,,606f6be3361bd05af7ab3952,676192165fb32c2e1fb7aee6,67d19405ed4a70fc61932974,2025-03-12_11h03.19.479,Tarea de decisión léxica,2024.2.5,Win32,142.8571429,,,,,,,,,,,,,,,,,,,,,,,461.1363,462.2401,l,1,0.4444,,0.4444,1,462.2402,462.7402,,,,,,31,FEM,WORD,AGR,150,ropa,,la,,462.7406,462.741,0.62962963,-0.207407407,0,0,0,,0,208,208,30,1,bova,,,,
,,,,,,606f6be3361bd05af7ab3952,676192165fb32c2e1fb7aee6,67d19405ed4a70fc61932974,2025-03-12_11h03.19.479,Tarea de decisión léxica,2024.2.5,Win32,142.8571429,,,,,,,,,,,,,,,,,,,,,,,462.7413,463.8098,a,0,0.4114,,0.4114,0,463.8101,464.3099,,,,,,191,FEM,WORD,DIS,150,pila,,el,,464.3099,464.3099,0.62962963,-0.207407407,0,0,0,,0,209,209,190,1,bila,,,,
,,,,,,606f6be3361bd05af7ab3952,676192165fb32c2e1fb7aee6,67d19405ed4a70fc61932974,2025-03-12_11h03.19.479,Tarea de decisión léxica,2024.2.5,Win32,142.8571429,,,,,,,,,,,,,,,,,,,,,,,464.3103,465.8101,a,1,0.8405,,0.8405,1,465.8105,466.3102,,,,,,40,MAS,NOWORD,AGR,150,redo,,el,,466.3102,466.3103,0.62962963,-0.207407407,0,0,0,,0,210,210,39,1,voto,,,,
,,,,,,606f6be3361bd05af7ab3952,676192165fb32c2e1fb7aee6,67d19405ed4a70fc61932974,2025-03-12_11h03.19.479,Tarea de decisión léxica,2024.2.5,Win32,142.8571429,,,,,,,,,,,,,,,,,,,,,,,466.3106,467.3449,l,1,0.3776,,0.3776,1,467.3449,467.845,,,,,,203,FEM,WORD,DIS,150,leña,,el,,467.845,467.845,0.62962963,-0.207407407,0,0,0,,0,211,211,202,1,beja,,,,
,,,,,,606f6be3361bd05af7ab3952,676192165fb32c2e1fb7aee6,67d19405ed4a70fc61932974,2025-03-12_11h03.19.479,Tarea de decisión léxica,2024.2.5,Win32,142.8571429,,,,,,,,,,,,,,,,,,,,,,,467.8454,468.8591,a,1,0.3584,,0.3584,1,468.8592,469.3591,,,,,,136,MAS,NOWORD,AGR,150,geso,,el,,469.3592,469.3592,0.62962963,-0.207407407,0,0,0,,0,212,212,135,1,tubo,,,,
,,,,,,606f6be3361bd05af7ab3952,676192165fb32c2e1fb7aee6,67d19405ed4a70fc61932974,2025-03-12_11h03.19.479,Tarea de decisión léxica,2024.2.5,Win32,142.8571429,,,,,,,,,,,,,,,,,,,,,,,469.3596,470.4427,a,1,0.4239,,0.4239,1,470.4428,470.9428,,,,,,268,MAS,NOWORD,AGR,150,figro,,el,,470.9433,470.9436,0.62962963,-0.207407407,0,0,0,,0,213,213,267,1,libro,,,,
,,,,,,606f6be3361bd05af7ab3952,676192165fb32c2e1fb7aee6,67d19405ed4a70fc61932974,2025-03-12_11h03.19.479,Tarea de decisión léxica,2024.2.5,Win32,142.8571429,,,,,,,,,,,,,,,,,,,,,,,470.9438,471.9429,a,1,0.3404,,0.3404,1,471.943,472.443,,,,,,410,MAS,NOWORD,DIS,150,pafro,,la,,472.443,472.4431,0.62962963,-0.207407407,0,0,0,,0,214,214,409,1,carro,,,,
,,,,,,606f6be3361bd05af7ab3952,676192165fb32c2e1fb7aee6,67d19405ed4a70fc61932974,2025-03-12_11h03.19.479,Tarea de decisión léxica,2024.2.5,Win32,142.8571429,,,,,,,,,,,,,,,,,,,,,,,472.4434,473.5752,a,1,0.4746,,0.4746,1,473.5752,474.0753,,,,,,82,FEM,NOWORD,DIS,150,vasa,,el,,474.0754,474.0754,0.62962963,-0.207407407,0,0,0,,0,215,215,81,1,dama,,,,
,,,,,,606f6be3361bd05af7ab3952,676192165fb32c2e1fb7aee6,67d19405ed4a70fc61932974,2025-03-12_11h03.19.479,Tarea de decisión léxica,2024.2.5,Win32,142.8571429,,,,,,,,,,,,,,,,,,,,,,,474.0759,475.1866,l,1,0.4555,,0.4555,1,475.1867,475.6867,,,,,,177,MAS,WORD,DIS,150,reto,,la,,475.6867,475.6868,0.62962963,-0.207407407,0,0,0,,0,216,216,176,1,bito,,,,
,,,,,,606f6be3361bd05af7ab3952,676192165fb32c2e1fb7aee6,67d19405ed4a70fc61932974,2025-03-12_11h03.19.479,Tarea de decisión léxica,2024.2.5,Win32,142.8571429,,,,,,,,,,,,,,,,,,,,,,,475.6872,476.8674,a,1,0.5249,,0.5249,1,476.8674,477.3675,,,,,,418,FEM,NOWORD,DIS,150,banja,,el,,477.3675,477.3675,0.62962963,-0.207407407,0,0,0,,0,217,217,417,1,barba,,,,
,,,,,,606f6be3361bd05af7ab3952,676192165fb32c2e1fb7aee6,67d19405ed4a70fc61932974,2025-03-12_11h03.19.479,Tarea de decisión léxica,2024.2.5,Win32,142.8571429,,,,,,,,,,,,,,,,,,,,,,,477.368,478.319,a,0,0.2951,,0.2951,0,478.3192,478.8191,,,,,,25,FEM,WORD,DIS,150,cama,,el,,478.8195,478.82,0.62962963,-0.207407407,0,0,0,,0,218,218,24,1,paza,,,,
,,,,,,606f6be3361bd05af7ab3952,676192165fb32c2e1fb7aee6,67d19405ed4a70fc61932974,2025-03-12_11h03.19.479,Tarea de decisión léxica,2024.2.5,Win32,142.8571429,,,,,,,,,,,,,,,,,,,,,,,478.8203,479.7497,l,1,0.2712,,0.2712,1,479.75,480.2498,,,,,,453,FEM,WORD,DIS,150,mafia,,el,,480.2498,480.2498,0.62962963,-0.207407407,0,0,0,,0,219,219,452,1,pafia,,,,
,,,,,,606f6be3361bd05af7ab3952,676192165fb32c2e1fb7aee6,67d19405ed4a70fc61932974,2025-03-12_11h03.19.479,Tarea de decisión léxica,2024.2.5,Win32,142.8571429,,,,,,,,,,,,,,,,,,,,,,,480.2502,481.2641,a,1,0.3563,,0.3563,1,481.2641,481.764,,,,,,382,MAS,NOWORD,DIS,150,nusor,,la,,481.7641,481.7641,0.62962963,-0.207407407,0,0,0,,0,220,220,381,1,humor,,,,
,,,,,,606f6be3361bd05af7ab3952,676192165fb32c2e1fb7aee6,67d19405ed4a70fc61932974,2025-03-12_11h03.19.479,Tarea de decisión léxica,2024.2.5,Win32,142.8571429,,,,,,,,,,,,,,,,,,,,,,,481.7645,482.91,a,0,0.4891,,0.4891,0,482.9104,483.4101,,,,,,3,FEM,WORD,DIS,150,vida,,el,,483.4102,483.4102,0.62962963,-0.207407407,0,0,0,,0,221,221,2,1,dica,,,,
,,,,,,606f6be3361bd05af7ab3952,676192165fb32c2e1fb7aee6,67d19405ed4a70fc61932974,2025-03-12_11h03.19.479,Tarea de decisión léxica,2024.2.5,Win32,142.8571429,,,,,,,,,,,,,,,,,,,,,,,483.4107,484.4866,a,1,0.418,,0.418,1,484.487,484.9867,,,,,,172,MAS,NOWORD,AGR,150,niro,,el,,484.9867,484.9867,0.62962963,-0.207407407,0,0,0,,0,222,222,171,1,hilo,,,,
,,,,,,606f6be3361bd05af7ab3952,676192165fb32c2e1fb7aee6,67d19405ed4a70fc61932974,2025-03-12_11h03.19.479,Tarea de decisión léxica,2024.2.5,Win32,142.8571429,,,,,,,,,,,,,,,,,,,,,,,484.9872,486.2926,l,1,0.6503,,0.6503,1,486.2927,486.7926,,,,,,297,MAS,WORD,AGR,150,grupo,,el,,486.7932,486.7935,0.62962963,-0.207407407,0,0,0,,0,223,223,296,1,brubo,,,,
,,,,,,606f6be3361bd05af7ab3952,676192165fb32c2e1fb7aee6,67d19405ed4a70fc61932974,2025-03-12_11h03.19.479,Tarea de decisión léxica,2024.2.5,Win32,142.8571429,,,,,,,,,,,,,,,,,,,,,,,486.7937,487.8414,l,1,0.3897,,0.3897,1,487.8415,488.3415,,,,,,35,MAS,WORD,DIS,150,pelo,,la,,488.3416,488.3416,0.62962963,-0.207407407,0,0,0,,0,224,224,34,1,meno,,,,
,,,,,,606f6be3361bd05af7ab3952,676192165fb32c2e1fb7aee6,67d19405ed4a70fc61932974,2025-03-12_11h03.19.479,Tarea de decisión léxica,2024.2.5,Win32,142.8571429,,,,,,,,,,,,,,,,,,,,,,,488.3421,489.3694,a,1,0.3717,,0.3717,1,489.3695,489.8695,,,,,,220,FEM,NOWORD,AGR,150,miva,,la,,489.8696,489.8696,0.62962963,-0.207407407,0,0,0,,0,225,225,219,1,pipa,,,,
,,,,,,606f6be3361bd05af7ab3952,676192165fb32c2e1fb7aee6,67d19405ed4a70fc61932974,2025-03-12_11h03.19.479,Tarea de decisión léxica,2024.2.5,Win32,142.8571429,,,,,,,,,,,,,,,,,,,,,,,489.8701,490.8765,a,1,0.3474,,0.3474,1,490.8766,491.3766,,,,,,234,FEM,NOWORD,DIS,150,fasa,,el,,491.3766,491.3766,0.62962963,-0.207407407,0,0,0,,0,226,226,233,1,lana,,,,
,,,,,,606f6be3361bd05af7ab3952,676192165fb32c2e1fb7aee6,67d19405ed4a70fc61932974,2025-03-12_11h03.19.479,Tarea de decisión léxica,2024.2.5,Win32,142.8571429,,,,,,,,,,,,,,,,,,,,,,,491.3771,492.4116,a,1,0.3787,,0.3787,1,492.4116,492.9117,,,,,,464,FEM,NOWORD,AGR,150,matla,,la,,492.9121,492.9124,0.62962963,-0.207407407,0,0,0,,0,227,227,463,1,cabra,,,,
,,,,,,606f6be3361bd05af7ab3952,676192165fb32c2e1fb7aee6,67d19405ed4a70fc61932974,2025-03-12_11h03.19.479,Tarea de decisión léxica,2024.2.5,Win32,142.8571429,,,,,,,,,,,,,,,,,,,,,,,492.9128,493.9951,a,0,0.4241,,0.4241,0,493.9953,494.4951,,,,,,149,MAS,WORD,DIS,150,cabo,,la,,494.4951,494.4952,0.62962963,-0.207407407,0,0,0,,0,228,228,148,1,pafo,,,,
,,,,,,606f6be3361bd05af7ab3952,676192165fb32c2e1fb7aee6,67d19405ed4a70fc61932974,2025-03-12_11h03.19.479,Tarea de decisión léxica,2024.2.5,Win32,142.8571429,,,,,,,,,,,,,,,,,,,,,,,494.4955,495.5788,l,1,0.4254,,0.4254,1,495.5791,496.0789,,,,,,59,FEM,WORD,AGR,150,sala,,la,,496.0789,496.0789,0.62962963,-0.207407407,0,0,0,,0,229,229,58,1,tafa,,,,
,,,,,,606f6be3361bd05af7ab3952,676192165fb32c2e1fb7aee6,67d19405ed4a70fc61932974,2025-03-12_11h03.19.479,Tarea de decisión léxica,2024.2.5,Win32,142.8571429,,,,,,,,,,,,,,,,,,,,,,,496.0793,497.1344,l,1,0.3978,,0.3978,1,497.1344,497.6346,,,,,,227,MAS,WORD,AGR,150,faro,,el,,497.6346,497.6346,0.62962963,-0.207407407,0,0,0,,0,230,230,226,1,laro,,,,
,,,,,,606f6be3361bd05af7ab3952,676192165fb32c2e1fb7aee6,67d19405ed4a70fc61932974,2025-03-12_11h03.19.479,Tarea de decisión léxica,2024.2.5,Win32,142.8571429,,,,,,,,,,,,,,,,,,,,,,,497.635,498.746,a,1,0.4516,,0.4516,1,498.746,499.246,,,,,,174,FEM,NOWORD,DIS,150,boma,,el,,499.246,499.2461,0.62962963,-0.207407407,0,0,0,,0,231,231,173,1,rosa,,,,
,,,,,,606f6be3361bd05af7ab3952,676192165fb32c2e1fb7aee6,67d19405ed4a70fc61932974,2025-03-12_11h03.19.479,Tarea de decisión léxica,2024.2.5,Win32,142.8571429,,,,,,,,,,,,,,,,,,,,,,,499.2465,500.2321,l,1,0.3265,,0.3265,1,500.2322,500.7322,,,,,,225,MAS,WORD,DIS,150,lodo,,la,,500.7326,500.7329,0.62962963,-0.207407407,0,0,0,,0,232,232,224,1,boco,,,,
,,,,,,606f6be3361bd05af7ab3952,676192165fb32c2e1fb7aee6,67d19405ed4a70fc61932974,2025-03-12_11h03.19.479,Tarea de decisión léxica,2024.2.5,Win32,142.8571429,,,,,,,,,,,,,,,,,,,,,,,500.7332,501.8992,l,1,0.5092,,0.5092,1,501.8992,502.3992,,,,,,33,FEM,WORD,DIS,150,boca,,el,,502.3992,502.3993,0.62962963,-0.207407407,0,0,0,,0,233,233,32,1,loda,,,,
,,,,,,606f6be3361bd05af7ab3952,676192165fb32c2e1fb7aee6,67d19405ed4a70fc61932974,2025-03-12_11h03.19.479,Tarea de decisión léxica,2024.2.5,Win32,142.8571429,,,,,,,,,,,,,,,,,,,,,,,502.3997,503.7258,l,0,0.6681,,0.6681,0,503.7262,504.2259,,,,,,404,FEM,NOWORD,AGR,150,grisa,,la,,504.2259,504.226,0.62962963,-0.207407407,0,0,0,,0,234,234,403,1,prima,,,,
,,,,,,606f6be3361bd05af7ab3952,676192165fb32c2e1fb7aee6,67d19405ed4a70fc61932974,2025-03-12_11h03.19.479,Tarea de decisión léxica,2024.2.5,Win32,142.8571429,,,,,,,,,,,,,,,,,,,,,,,504.2265,505.4899,a,1,0.6058,,0.6058,1,505.4902,505.99,,,,,,282,MAS,NOWORD,DIS,150,cauro,,la,,505.9901,505.9901,0.62962963,-0.207407407,0,0,0,,0,235,235,281,1,cielo,,,,
,,,,,,606f6be3361bd05af7ab3952,676192165fb32c2e1fb7aee6,67d19405ed4a70fc61932974,2025-03-12_11h03.19.479,Tarea de decisión léxica,2024.2.5,Win32,142.8571429,,,,,,,,,,,,,,,,,,,,,,,505.9906,507.0319,a,1,0.3846,,0.3846,1,507.0319,507.5319,,,,,,130,MAS,NOWORD,DIS,150,pima,,la,,507.5319,507.532,0.62962963,-0.207407407,0,0,0,,0,236,236,129,1,oído,,,,
,,,,,,606f6be3361bd05af7ab3952,676192165fb32c2e1fb7aee6,67d19405ed4a70fc61932974,2025-03-12_11h03.19.479,Tarea de decisión léxica,2024.2.5,Win32,142.8571429,,,,,,,,,,,,,,,,,,,,,,,507.5323,508.5462,a,1,0.3588,,0.3588,1,508.5462,509.0461,,,,,,478,MAS,NOWORD,DIS,150,hocon,,la,,509.0467,509.047,0.62962963,-0.207407407,0,0,0,,0,237,237,477,1,botón,,,,
,,,,,,606f6be3361bd05af7ab3952,676192165fb32c2e1fb7aee6,67d19405ed4a70fc61932974,2025-03-12_11h03.19.479,Tarea de decisión léxica,2024.2.5,Win32,142.8571429,,,,,,,,,,,,,,,,,,,,,,,509.0472,510.1088,a,1,0.4037,,0.4037,1,510.1088,510.6088,,,,,,402,MAS,NOWORD,DIS,150,pirvo,,la,,510.6088,510.6089,0.62962963,-0.207407407,0,0,0,,0,238,238,401,1,polvo,,,,
,,,,,,606f6be3361bd05af7ab3952,676192165fb32c2e1fb7aee6,67d19405ed4a70fc61932974,2025-03-12_11h03.19.479,Tarea de decisión léxica,2024.2.5,Win32,142.8571429,,,,,,,,,,,,,,,,,,,,,,,510.6093,511.8104,a,1,0.5418,,0.5418,1,511.8105,512.3104,,,,,,146,MAS,NOWORD,DIS,150,nobo,,la,,512.3104,512.3104,0.62962963,-0.207407407,0,0,0,,0,239,239,145,1,león,,,,
,,,,,,606f6be3361bd05af7ab3952,676192165fb32c2e1fb7aee6,67d19405ed4a70fc61932974,2025-03-12_11h03.19.479,Tarea de decisión léxica,2024.2.5,Win32,142.8571429,,,,,,,,,,,,,,,,,,,,,,,512.3109,513.1717,a,0,0.2053,,0.2053,0,513.172,513.6718,,,,,,157,MAS,WORD,AGR,150,nido,,el,,513.6718,513.6719,0.62962963,-0.207407407,0,0,0,,0,240,240,156,1,hico,,,,
,,,,,,606f6be3361bd05af7ab3952,676192165fb32c2e1fb7aee6,67d19405ed4a70fc61932974,2025-03-12_11h03.19.479,Tarea de decisión léxica,2024.2.5,Win32,142.8571429,,,,,,,,,,,,,,,,,,,,,,,513.6723,514.6928,a,1,0.364,,0.364,1,514.693,515.1929,,,,,,76,MAS,NOWORD,AGR,150,ocer,,el,,515.1929,515.1929,0.62962963,-0.207407407,0,0,0,,0,241,241,75,1,olor,,,,
,,,,,,606f6be3361bd05af7ab3952,676192165fb32c2e1fb7aee6,67d19405ed4a70fc61932974,2025-03-12_11h03.19.479,Tarea de decisión léxica,2024.2.5,Win32,142.8571429,,,,,,,,,,,,,,,,,,,,,,,515.1933,516.2626,a,1,0.4091,,0.4091,1,516.2626,516.7626,,,,,,394,FEM,NOWORD,DIS,150,ashea,,el,,516.763,516.7633,0.62962963,-0.207407407,0,0,0,,0,242,242,393,1,aldea,,,,
,,,,,,606f6be3361bd05af7ab3952,676192165fb32c2e1fb7aee6,67d19405ed4a70fc61932974,2025-03-12_11h03.19.479,Tarea de decisión léxica,2024.2.5,Win32,142.8571429,,,,,,,,,,,,,,,,,,,,,,,516.7635,517.7697,l,1,0.3473,,0.3473,1,517.7697,518.2698,,,,,,445,MAS,WORD,DIS,150,actor,,la,,518.2698,518.2698,0.62962963,-0.207407407,0,0,0,,0,243,243,444,1,ascor,,,,
,,,,,,606f6be3361bd05af7ab3952,676192165fb32c2e1fb7aee6,67d19405ed4a70fc61932974,2025-03-12_11h03.19.479,Tarea de decisión léxica,2024.2.5,Win32,142.8571429,,,,,,,,,,,,,,,,,,,,,,,518.2703,519.2144,l,1,0.2875,,0.2875,1,519.2145,519.7145,,,,,,67,FEM,WORD,DIS,150,nena,,el,,519.7146,519.7146,0.62962963,-0.207407407,0,0,0,,0,244,244,66,1,gesa,,,,
,,,,,,606f6be3361bd05af7ab3952,676192165fb32c2e1fb7aee6,67d19405ed4a70fc61932974,2025-03-12_11h03.19.479,Tarea de decisión léxica,2024.2.5,Win32,142.8571429,,,,,,,,,,,,,,,,,,,,,,,519.715,520.8397,a,1,0.4667,,0.4667,1,520.8397,521.3398,,,,,,366,FEM,NOWORD,DIS,150,gulla,,el,,521.3398,521.3399,0.62962963,-0.207407407,0,0,0,,0,245,245,365,1,ducha,,,,
,,,,,,606f6be3361bd05af7ab3952,676192165fb32c2e1fb7aee6,67d19405ed4a70fc61932974,2025-03-12_11h03.19.479,Tarea de decisión léxica,2024.2.5,Win32,142.8571429,,,,,,,,,,,,,,,,,,,,,,,521.3404,522.2842,l,1,0.2849,,0.2849,1,522.2843,522.7843,,,,,,163,FEM,WORD,AGR,150,fama,,la,,522.7843,522.7843,0.62962963,-0.207407407,0,0,0,,0,246,246,162,1,laga,,,,
,,,,,,606f6be3361bd05af7ab3952,676192165fb32c2e1fb7aee6,67d19405ed4a70fc61932974,2025-03-12_11h03.19.479,Tarea de decisión léxica,2024.2.5,Win32,142.8571429,,,,,,,,,,,,,,,,,,,,,,,522.7848,523.7916,a,1,0.3521,,0.3521,1,523.7917,524.2916,,,,,,280,FEM,NOWORD,AGR,150,grina,,la,,524.2921,524.2924,0.62962963,-0.207407407,0,0,0,,0,247,247,279,1,prisa,,,,
,,,,,,606f6be3361bd05af7ab3952,676192165fb32c2e1fb7aee6,67d19405ed4a70fc61932974,2025-03-12_11h03.19.479,Tarea de decisión léxica,2024.2.5,Win32,142.8571429,,,,,,,,,,,,,,,,,,,,,,,524.2926,525.4862,l,1,0.5347,,0.5347,1,525.4862,525.9862,,,,,,69,FEM,WORD,AGR,150,zona,,la,,525.9863,525.9863,0.62962963,-0.207407407,0,0,0,,0,248,248,68,1,ñola,,,,
,,,,,,606f6be3361bd05af7ab3952,676192165fb32c2e1fb7aee6,67d19405ed4a70fc61932974,2025-03-12_11h03.19.479,Tarea de decisión léxica,2024.2.5,Win32,142.8571429,,,,,,,,,,,,,,,,,,,,,,,525.9867,527.0628,a,1,0.417,,0.417,1,527.0628,527.5629,,,,,,106,FEM,NOWORD,DIS,150,vina,,el,,527.5629,527.563,0.62962963,-0.207407407,0,0,0,,0,249,249,105,1,sopa,,,,
,,,,,,606f6be3361bd05af7ab3952,676192165fb32c2e1fb7aee6,67d19405ed4a70fc61932974,2025-03-12_11h03.19.479,Tarea de decisión léxica,2024.2.5,Win32,142.8571429,,,,,,,,,,,,,,,,,,,,,,,527.5634,528.5562,a,1,0.3344,,0.3344,1,528.5563,529.0563,,,,,,334,FEM,NOWORD,DIS,150,dalea,,el,,529.0563,529.0563,0.62962963,-0.207407407,0,0,0,,0,250,250,333,1,tarea,,,,
,,,,,,606f6be3361bd05af7ab3952,676192165fb32c2e1fb7aee6,67d19405ed4a70fc61932974,2025-03-12_11h03.19.479,Tarea de decisión léxica,2024.2.5,Win32,142.8571429,,,,,,,,,,,,,,,,,,,,,,,529.0567,530.0774,a,1,0.3613,,0.3613,1,530.0774,530.5774,,,,,,372,FEM,NOWORD,AGR,150,mosta,,la,,530.5779,530.5783,0.62962963,-0.207407407,0,0,0,,0,251,251,371,1,pasta,,,,
,,,,,,606f6be3361bd05af7ab3952,676192165fb32c2e1fb7aee6,67d19405ed4a70fc61932974,2025-03-12_11h03.19.479,Tarea de decisión léxica,2024.2.5,Win32,142.8571429,,,,,,,,,,,,,,,,,,,,,,,530.5785,531.5774,l,1,0.3412,,0.3412,1,531.5775,532.0776,,,,,,41,FEM,WORD,AGR,150,nave,,la,,532.0776,532.0776,0.62962963,-0.207407407,0,0,0,,0,252,252,40,1,haje,,,,
,,,,,,606f6be3361bd05af7ab3952,676192165fb32c2e1fb7aee6,67d19405ed4a70fc61932974,2025-03-12_11h03.19.479,Tarea de decisión léxica,2024.2.5,Win32,142.8571429,,,,,,,,,,,,,,,,,,,,,,,532.0782,533.1054,a,1,0.3685,,0.3685,1,533.1054,533.6055,,,,,,450,FEM,NOWORD,DIS,150,crusa,,el,,533.6055,533.6055,0.62962963,-0.207407407,0,0,0,,0,253,253,449,1,pluma,,,,
,,,,,,606f6be3361bd05af7ab3952,676192165fb32c2e1fb7aee6,67d19405ed4a70fc61932974,2025-03-12_11h03.19.479,Tarea de decisión léxica,2024.2.5,Win32,142.8571429,,,,,,,,,,,,,,,,,,,,,,,533.606,534.6335,l,1,0.3698,,0.3698,1,534.6335,535.1335,,,,,,27,MAS,WORD,DIS,150,baño,,la,,535.1335,535.1335,0.62962963,-0.207407407,0,0,0,,0,254,254,26,1,ravo,,,,
,,,,,,606f6be3361bd05af7ab3952,676192165fb32c2e1fb7aee6,67d19405ed4a70fc61932974,2025-03-12_11h03.19.479,Tarea de decisión léxica,2024.2.5,Win32,142.8571429,,,,,,,,,,,,,,,,,,,,,,,535.134,536.1269,a,1,0.3343,,0.3343,1,536.1269,536.627,,,,,,390,MAS,NOWORD,DIS,150,cenco,,la,,536.627,536.6271,0.62962963,-0.207407407,0,0,0,,0,255,255,389,1,cerdo,,,,
,,,,,,606f6be3361bd05af7ab3952,676192165fb32c2e1fb7aee6,67d19405ed4a70fc61932974,2025-03-12_11h03.19.479,Tarea de decisión léxica,2024.2.5,Win32,142.8571429,,,,,,,,,,,,,,,,,,,,,,,536.6276,537.6686,a,1,0.3823,,0.3823,1,537.6686,538.1689,,,,,,438,FEM,NOWORD,DIS,150,glava,,el,,538.1694,538.1697,0.62962963,-0.207407407,0,0,0,,0,256,256,437,1,plaza,,,,
,,,,,,606f6be3361bd05af7ab3952,676192165fb32c2e1fb7aee6,67d19405ed4a70fc61932974,2025-03-12_11h03.19.479,Tarea de decisión léxica,2024.2.5,Win32,142.8571429,,,,,,,,,,,,,,,,,,,,,,,538.1701,539.3149,a,1,0.4862,,0.4862,1,539.3149,539.815,,,,,,348,FEM,NOWORD,AGR,150,mueza,,la,,539.815,539.815,0.62962963,-0.207407407,0,0,0,,0,257,257,347,1,pieza,,,,
,,,,,,606f6be3361bd05af7ab3952,676192165fb32c2e1fb7aee6,67d19405ed4a70fc61932974,2025-03-12_11h03.19.479,Tarea de decisión léxica,2024.2.5,Win32,142.8571429,,,,,,,,,,,,,,,,,,,,,,,539.8156,540.9679,a,1,0.4971,,0.4971,1,540.968,541.468,,,,,,240,MAS,NOWORD,AGR,150,poño,,el,,541.468,541.4681,0.62962963,-0.207407407,0,0,0,,0,258,258,239,1,mozo,,,,
,,,,,,606f6be3361bd05af7ab3952,676192165fb32c2e1fb7aee6,67d19405ed4a70fc61932974,2025-03-12_11h03.19.479,Tarea de decisión léxica,2024.2.5,Win32,142.8571429,,,,,,,,,,,,,,,,,,,,,,,541.4685,542.6973,l,1,0.5727,,0.5727,1,542.6973,543.1973,,,,,,97,MAS,WORD,AGR,150,mono,,el,,543.1973,543.1973,0.62962963,-0.207407407,0,0,0,,0,259,259,96,1,fopo,,,,
,,,,,,606f6be3361bd05af7ab3952,676192165fb32c2e1fb7aee6,67d19405ed4a70fc61932974,2025-03-12_11h03.19.479,Tarea de decisión léxica,2024.2.5,Win32,142.8571429,,,,,,,,,,,,,,,,,,,,,,,543.1977,544.1906,a,1,0.3365,,0.3365,1,544.1907,544.6907,,,,,,156,FEM,NOWORD,AGR,150,luma,,la,,544.6908,544.6908,0.62962963,-0.207407407,0,0,0,,0,260,260,155,1,fuga,,,,
,,,,,,606f6be3361bd05af7ab3952,676192165fb32c2e1fb7aee6,67d19405ed4a70fc61932974,2025-03-12_11h03.19.479,Tarea de decisión léxica,2024.2.5,Win32,142.8571429,,,,,,,,,,,,,,,,,,,,,,,544.6913,545.8227,l,0,0.4724,,0.4724,0,545.823,546.3229,,,,,,360,MAS,NOWORD,AGR,150,cacer,,el,,546.3233,546.3237,0.62962963,-0.207407407,0,0,0,,0,261,261,359,1,calor,,,,
,,,,,,606f6be3361bd05af7ab3952,676192165fb32c2e1fb7aee6,67d19405ed4a70fc61932974,2025-03-12_11h03.19.479,Tarea de decisión léxica,2024.2.5,Win32,142.8571429,,,,,,,,,,,,,,,,,,,,,,,546.3239,547.4549,l,1,0.4752,,0.4752,1,547.4551,547.9551,,,,,,385,FEM,WORD,AGR,150,letra,,la,,547.9551,547.9552,0.62962963,-0.207407407,0,0,0,,0,262,262,384,1,febra,,,,
,,,,,,606f6be3361bd05af7ab3952,676192165fb32c2e1fb7aee6,67d19405ed4a70fc61932974,2025-03-12_11h03.19.479,Tarea de decisión léxica,2024.2.5,Win32,142.8571429,,,,,,,,,,,,,,,,,,,,,,,547.9556,548.9482,a,1,0.337,,0.337,1,548.9482,549.4483,,,,,,338,MAS,NOWORD,DIS,150,nuejo,,la,,549.4483,549.4484,0.62962963,-0.207407407,0,0,0,,0,263,263,337,1,huevo,,,,
,,,,,,606f6be3361bd05af7ab3952,676192165fb32c2e1fb7aee6,67d19405ed4a70fc61932974,2025-03-12_11h03.19.479,Tarea de decisión léxica,2024.2.5,Win32,142.8571429,,,,,,,,,,,,,,,,,,,,,,,549.4487,550.4486,a,1,0.3428,,0.3428,1,550.4486,550.9486,,,,,,346,FEM,NOWORD,DIS,150,anera,,el,,550.9487,550.9487,0.62962963,-0.207407407,0,0,0,,0,264,264,345,1,arena,,,,
