counterbalancing_condition,consent_prescreening.block_1/declare_consent,consent_prescreening.block_1/age_years,consent_prescreening.block_1/gender,consent_prescreening.block_1/language_disorder,consent_prescreening.block_1/first_language,PROLIFIC_PID,STUDY_ID,SESSION_ID,date,expName,psychopyVersion,OS,frameRate,check_prescreening_answers.started,check_prescreening_answers.stopped,Instructions.started,Instructions.stopped,instr_done_keyboard.keys,instr_done_touch.x,instr_done_touch.y,instr_done_touch.leftButton,instr_done_touch.midButton,instr_done_touch.rightButton,instr_done_touch.clicked_name,instruction_pages.thisRepN,instruction_pages.thisTrialN,instruction_pages.thisN,instruction_pages.thisIndex,instruction_pages.ran,pageN,phase,instruct_text,has_image,instruct_image,instr_done_keyboard.rt,instr_done_keyboard.duration,presentTrial.started,presentTrial.stopped,response.keys,response.corr,rt,corr,feedback.started,feedback.stopped,practice_trials.thisRepN,practice_trials.thisTrialN,practice_trials.thisN,practice_trials.thisIndex,practice_trials.ran,TrialID,Gender,StimulusType,Condition,PrimeDuration,Prime,len,Flanker,corrAns,response.rt,response.duration,Break.started,Break.stopped,break_done_touch.x,break_done_touch.y,break_done_touch.leftButton,break_done_touch.midButton,break_done_touch.rightButton,break_done_keyboard.keys,experiment_trials.thisRepN,experiment_trials.thisTrialN,experiment_trials.thisN,experiment_trials.thisIndex,experiment_trials.ran,PairedWith,break_done_keyboard.rt,break_done_keyboard.duration,End.started,End.stopped
1,"[""over_18"",""read_info"",""comfortable"",""consent_given""]",32,M,"[""none""]","[""spanish"",""english""]",6075e94a6bed1dc64e9d34c7,676192165fb32c2e1fb7aee6,67d155978fddf9e6523bef7c,2025-03-12_02h36.41.487,Tarea de decisión léxica,2024.2.5,Win32,59.17159763,,,,,,,,,,,,,,,,,,,,,,,,,,,,,,,,,,,,,,,,,,,,,,,,,,,,,,,,,,,,,,,,,
,,,,,,6075e94a6bed1dc64e9d34c7,676192165fb32c2e1fb7aee6,67d155978fddf9e6523bef7c,2025-03-12_02h36.41.487,Tarea de decisión léxica,2024.2.5,Win32,59.17159763,27.1878,27.188,,,,,,,,,,,,,,,,,,,,,,,,,,,,,,,,,,,,,,,,,,,,,,,,,,,,,,,,,,,,,,,
,,,,,,6075e94a6bed1dc64e9d34c7,676192165fb32c2e1fb7aee6,67d155978fddf9e6523bef7c,2025-03-12_02h36.41.487,Tarea de decisión léxica,2024.2.5,Win32,59.17159763,,,27.217,29.5359,,0.057565789,-0.404605263,1,0,0,instr_done_button,0,0,0,0,1,1,instructions,"INSTRUCCIONES
Va a realizar una prueba de decisión léxica. Desde el comienzo de la prueba mire siempre al centro de la pantalla. Se presentará una serie de cadenas de letras, una a la vez, en la pantalla. Su tarea consiste en determinar si cada cadena de letras constituye una palabra real en español o una no-palabra (una secuencia de letras que no constituye una palabra real). 

Pulse la tecla ESPACIO para continuar.",0,keyboardresponseWN.png,,,,,,,,,,,,,,,,,,,,,,,,,,,,,,,,,,,,,,,,,,,,
,,,,,,6075e94a6bed1dc64e9d34c7,676192165fb32c2e1fb7aee6,67d155978fddf9e6523bef7c,2025-03-12_02h36.41.487,Tarea de decisión léxica,2024.2.5,Win32,59.17159763,,,29.5554,45.8435,,-0.018640351,-0.39747807,1,0,0,instr_done_button,0,1,1,1,1,2,instructions,"El procedimiento es el siguiente: Aparecerán dos barras verticales posicionadas en el centro de la pantalla, separadas por un pequeño espacio.Por favor, enfoque su atención en el espacio entre las barras. Esto preparará sus ojos para la siguiente cadena de letras, que aparecerá entre las dos barras durante un instante.

Pulse la tecla ESPACIO para continuar.",0,keyboardresponseNW.png,,,,,,,,,,,,,,,,,,,,,,,,,,,,,,,,,,,,,,,,,,,,
,,,,,,6075e94a6bed1dc64e9d34c7,676192165fb32c2e1fb7aee6,67d155978fddf9e6523bef7c,2025-03-12_02h36.41.487,Tarea de decisión léxica,2024.2.5,Win32,59.17159763,,,45.8554,49.1151,space,-0.016447368,-0.387609649,0,0,0,,0,2,2,2,1,3,instructions,"En el teclado de su dispositivo, pulse la tecla ""A"" si la cadena de letras es una palabra real en español (por ejemplo: ""mano"") y la tecla ""L"" si la cadena de letras es una no-palabra (por ejemplo: ""minu"").
Pulse la tecla ESPACIO para continuar.",1,keyboardresponseWN.png,3.1587,,,,,,,,,,,,,,,,,,,,,,,,,,,,,,,,,,,,,,,,,,,
,,,,,,6075e94a6bed1dc64e9d34c7,676192165fb32c2e1fb7aee6,67d155978fddf9e6523bef7c,2025-03-12_02h36.41.487,Tarea de decisión léxica,2024.2.5,Win32,59.17159763,,,49.1295,51.2971,space,-0.016447368,-0.387609649,0,0,0,,0,3,3,3,1,4,instructions,"Es muy importante que responda con la mayor rapidez y precisión posibles. Si no responde dentro de 2 segundos, aparecerá el mensaje ""Muy lento"" y el experimento pasará a la siguiente palabra. Inmediatamente después de su respuesta se indicará si fue correcta o no. Los primeros 15 intentos serán de práctica y habrá dos descansos durante la prueba.

Pulse la tecla ESPACIO  para iniciar la parte de práctica.",0,keyboardresponseWN.png,2.1385,,,,,,,,,,,,,,,,,,,,,,,,,,,,,,,,,,,,,,,,,,,
,,,,,,6075e94a6bed1dc64e9d34c7,676192165fb32c2e1fb7aee6,67d155978fddf9e6523bef7c,2025-03-12_02h36.41.487,Tarea de decisión léxica,2024.2.5,Win32,59.17159763,,,,,,,,,,,,,,,,,,,,,,,,51.3456,54.0011,,0,,-1,54.0028,54.4994,0,0,0,1,1,1002,FEM,NOWORD,DIS,150,mabo,4,el,a,,,,,,,,,,,,,,,,,,,,
,,,,,,6075e94a6bed1dc64e9d34c7,676192165fb32c2e1fb7aee6,67d155978fddf9e6523bef7c,2025-03-12_02h36.41.487,Tarea de decisión léxica,2024.2.5,Win32,59.17159763,,,,,,,,,,,,,,,,,,,,,,,,54.5077,57.1508,,0,,-1,57.1514,57.6511,0,1,1,2,1,1003,FEM,NOWORD,DIS,150,muvor,5,el,a,,,,,,,,,,,,,,,,,,,,
,,,,,,6075e94a6bed1dc64e9d34c7,676192165fb32c2e1fb7aee6,67d155978fddf9e6523bef7c,2025-03-12_02h36.41.487,Tarea de decisión léxica,2024.2.5,Win32,59.17159763,,,,,,,,,,,,,,,,,,,,,,,,57.6577,58.6693,l,0,0.3409,0,58.6974,59.1688,0,2,2,7,1,1008,MAS,WORD,DIS,150,frío,4,la,l,0.3409,,,,,,,,,,,,,,,,,,,
,,,,,,6075e94a6bed1dc64e9d34c7,676192165fb32c2e1fb7aee6,67d155978fddf9e6523bef7c,2025-03-12_02h36.41.487,Tarea de decisión léxica,2024.2.5,Win32,59.17159763,,,,,,,,,,,,,,,,,,,,,,,,59.177,60.3963,l,1,0.5504,1,60.4019,60.8863,0,3,3,4,1,1005,MAS,NOWORD,DIS,150,nobad,5,la,a,0.5504,,,,,,,,,,,,,,,,,,,
,,,,,,6075e94a6bed1dc64e9d34c7,676192165fb32c2e1fb7aee6,67d155978fddf9e6523bef7c,2025-03-12_02h36.41.487,Tarea de decisión léxica,2024.2.5,Win32,59.17159763,,,,,,,,,,,,,,,,,,,,,,,,60.893,61.8439,a,0,0.2819,0,61.8463,62.3373,0,4,4,3,1,1004,FEM,NOWORD,AGR,150,bireo,5,la,a,0.2819,,,,,,,,,,,,,,,,,,,
,,,,,,6075e94a6bed1dc64e9d34c7,676192165fb32c2e1fb7aee6,67d155978fddf9e6523bef7c,2025-03-12_02h36.41.487,Tarea de decisión léxica,2024.2.5,Win32,59.17159763,,,,,,,,,,,,,,,,,,,,,,,,62.3421,64.6821,a,1,1.6689,1,64.6845,65.1722,0,5,5,9,1,1010,MAS,WORD,DIS,150,video,5,la,l,1.6689,,,,,,,,,,,,,,,,,,,
,,,,,,6075e94a6bed1dc64e9d34c7,676192165fb32c2e1fb7aee6,67d155978fddf9e6523bef7c,2025-03-12_02h36.41.487,Tarea de decisión léxica,2024.2.5,Win32,59.17159763,,,,,,,,,,,,,,,,,,,,,,,,65.1777,66.0329,l,0,0.184,0,66.0354,66.5237,0,6,6,8,1,1009,FEM,WORD,AGR,150,viejo,5,la,l,0.184,,,,,,,,,,,,,,,,,,,
,,,,,,6075e94a6bed1dc64e9d34c7,676192165fb32c2e1fb7aee6,67d155978fddf9e6523bef7c,2025-03-12_02h36.41.487,Tarea de decisión léxica,2024.2.5,Win32,59.17159763,,,,,,,,,,,,,,,,,,,,,,,,66.5296,67.2076,a,0,0.0017,0,67.208,67.7081,0,7,7,0,1,1001,FEM,NOWORD,AGR,150,croz,4,la,a,0.0017,,,,,,,,,,,,,,,,,,,
,,,,,,6075e94a6bed1dc64e9d34c7,676192165fb32c2e1fb7aee6,67d155978fddf9e6523bef7c,2025-03-12_02h36.41.487,Tarea de decisión léxica,2024.2.5,Win32,59.17159763,,,,,,,,,,,,,,,,,,,,,,,,67.7124,70.3602,,0,0.0017,-1,70.3631,70.8601,0,8,8,5,1,1006,FEM,WORD,AGR,150,cara,4,la,l,,,,,,,,,,,,,,,,,,,,
,,,,,,6075e94a6bed1dc64e9d34c7,676192165fb32c2e1fb7aee6,67d155978fddf9e6523bef7c,2025-03-12_02h36.41.487,Tarea de decisión léxica,2024.2.5,Win32,59.17159763,,,,,,,,,,,,,,,,,,,,,,,,70.8655,71.6771,l,0,0.1361,0,71.6795,72.1771,0,9,9,6,1,1007,MAS,WORD,DIS,150,masa,4,la,l,0.1361,,,,,,,,,,,,,,,,,,,
,,,,,,6075e94a6bed1dc64e9d34c7,676192165fb32c2e1fb7aee6,67d155978fddf9e6523bef7c,2025-03-12_02h36.41.487,Tarea de decisión léxica,2024.2.5,Win32,59.17159763,,,76.3266,81.2348,space,-0.016447368,-0.387609649,0,0,0,,,,,,,,,,,,4.8702,,81.3249,82.4017,l,1,0.4079,1,82.4054,82.902,,,,,,20,MAS,NOWORD,DIS,150,himo,,la,,0.4079,,82.903,82.9207,-0.016447368,-0.387609649,0,0,0,,0,0,0,19,1,niño,,,,
,,,,,,6075e94a6bed1dc64e9d34c7,676192165fb32c2e1fb7aee6,67d155978fddf9e6523bef7c,2025-03-12_02h36.41.487,Tarea de decisión léxica,2024.2.5,Win32,59.17159763,,,,,,,,,,,,,,,,,,,,,,,,82.9244,83.7021,l,0,0.1049,0,83.7052,84.2023,,,,,,463,FEM,WORD,AGR,150,cabra,,la,,0.1049,,84.2024,84.2029,-0.016447368,-0.387609649,0,0,0,,0,1,1,462,1,matla,,,,
,,,,,,6075e94a6bed1dc64e9d34c7,676192165fb32c2e1fb7aee6,67d155978fddf9e6523bef7c,2025-03-12_02h36.41.487,Tarea de decisión léxica,2024.2.5,Win32,59.17159763,,,,,,,,,,,,,,,,,,,,,,,,84.2068,85.5209,l,0,0.6352,0,85.5211,86.021,,,,,,7,MAS,WORD,DIS,150,hijo,,la,,0.6352,,86.0273,86.0302,-0.016447368,-0.387609649,0,0,0,,0,2,2,6,1,nivo,,,,
,,,,,,6075e94a6bed1dc64e9d34c7,676192165fb32c2e1fb7aee6,67d155978fddf9e6523bef7c,2025-03-12_02h36.41.487,Tarea de decisión léxica,2024.2.5,Win32,59.17159763,,,,,,,,,,,,,,,,,,,,,,,,86.0353,86.9714,l,1,0.2691,1,86.9748,87.4717,,,,,,18,FEM,NOWORD,AGR,150,paba,,la,,0.2691,,87.4721,87.4727,-0.016447368,-0.387609649,0,0,0,,0,3,3,17,1,mamá,,,,
,,,,,,6075e94a6bed1dc64e9d34c7,676192165fb32c2e1fb7aee6,67d155978fddf9e6523bef7c,2025-03-12_02h36.41.487,Tarea de decisión léxica,2024.2.5,Win32,59.17159763,,,,,,,,,,,,,,,,,,,,,,,,87.4778,88.3217,a,0,0.1685,0,88.3243,88.8222,,,,,,372,FEM,NOWORD,DIS,150,mosta,,el,,0.1685,,88.8224,88.823,-0.016447368,-0.387609649,0,0,0,,0,4,4,371,1,pasta,,,,
,,,,,,6075e94a6bed1dc64e9d34c7,676192165fb32c2e1fb7aee6,67d155978fddf9e6523bef7c,2025-03-12_02h36.41.487,Tarea de decisión léxica,2024.2.5,Win32,59.17159763,,,,,,,,,,,,,,,,,,,,,,,,88.8272,89.5098,l,0,0.002,0,89.51,90.0054,,,,,,125,MAS,WORD,AGR,150,lujo,,el,,0.002,,90.0054,90.0058,-0.016447368,-0.387609649,0,0,0,,0,5,5,124,1,vudo,,,,
,,,,,,6075e94a6bed1dc64e9d34c7,676192165fb32c2e1fb7aee6,67d155978fddf9e6523bef7c,2025-03-12_02h36.41.487,Tarea de decisión léxica,2024.2.5,Win32,59.17159763,,,,,,,,,,,,,,,,,,,,,,,,90.008,91.958,a,0,1.2656,0,91.9584,92.4587,,,,,,380,MAS,NOWORD,DIS,150,tunso,,la,,1.2656,,92.459,92.4598,-0.016447368,-0.387609649,0,0,0,,0,6,6,379,1,turno,,,,
,,,,,,6075e94a6bed1dc64e9d34c7,676192165fb32c2e1fb7aee6,67d155978fddf9e6523bef7c,2025-03-12_02h36.41.487,Tarea de decisión léxica,2024.2.5,Win32,59.17159763,,,,,,,,,,,,,,,,,,,,,,,,92.4647,93.2686,l,0,0.1363,0,93.2687,93.7667,,,,,,313,MAS,WORD,AGR,150,novio,,el,,0.1363,,93.7708,93.7731,-0.016447368,-0.387609649,0,0,0,,0,7,7,312,1,govio,,,,
,,,,,,6075e94a6bed1dc64e9d34c7,676192165fb32c2e1fb7aee6,67d155978fddf9e6523bef7c,2025-03-12_02h36.41.487,Tarea de decisión léxica,2024.2.5,Win32,59.17159763,,,,,,,,,,,,,,,,,,,,,,,,93.7782,94.5595,a,0,0.1196,0,94.5601,95.0599,,,,,,168,FEM,NOWORD,DIS,150,zifa,,el,,0.1196,,95.0601,95.061,-0.016447368,-0.387609649,0,0,0,,0,8,8,167,1,jefa,,,,
,,,,,,6075e94a6bed1dc64e9d34c7,676192165fb32c2e1fb7aee6,67d155978fddf9e6523bef7c,2025-03-12_02h36.41.487,Tarea de decisión léxica,2024.2.5,Win32,59.17159763,,,,,,,,,,,,,,,,,,,,,,,,95.065,95.9104,l,1,0.1678,1,95.9143,96.4109,,,,,,394,FEM,NOWORD,AGR,150,ashea,,la,,0.1678,,96.4112,96.412,-0.016447368,-0.387609649,0,0,0,,0,9,9,393,1,aldea,,,,
,,,,,,6075e94a6bed1dc64e9d34c7,676192165fb32c2e1fb7aee6,67d155978fddf9e6523bef7c,2025-03-12_02h36.41.487,Tarea de decisión léxica,2024.2.5,Win32,59.17159763,,,,,,,,,,,,,,,,,,,,,,,,96.4161,97.2782,l,1,0.1916,1,97.2786,97.7786,,,,,,244,MAS,NOWORD,DIS,150,asamo,,la,,0.1916,,97.7789,97.7803,-0.016447368,-0.387609649,0,0,0,,0,10,10,243,1,amigo,,,,
,,,,,,6075e94a6bed1dc64e9d34c7,676192165fb32c2e1fb7aee6,67d155978fddf9e6523bef7c,2025-03-12_02h36.41.487,Tarea de decisión léxica,2024.2.5,Win32,59.17159763,,,,,,,,,,,,,,,,,,,,,,,,97.785,98.6291,l,0,0.17,0,98.6339,99.1295,,,,,,105,FEM,WORD,AGR,150,sopa,,la,,0.17,,99.1362,99.1389,-0.016447368,-0.387609649,0,0,0,,0,11,11,104,1,vina,,,,
,,,,,,6075e94a6bed1dc64e9d34c7,676192165fb32c2e1fb7aee6,67d155978fddf9e6523bef7c,2025-03-12_02h36.41.487,Tarea de decisión léxica,2024.2.5,Win32,59.17159763,,,,,,,,,,,,,,,,,,,,,,,,99.142,100.4899,l,0,0.6788,0,100.4901,100.9806,,,,,,9,MAS,WORD,AGR,150,tipo,,el,,0.6788,,100.9809,100.9816,-0.016447368,-0.387609649,0,0,0,,0,12,12,8,1,sibo,,,,
,,,,,,6075e94a6bed1dc64e9d34c7,676192165fb32c2e1fb7aee6,67d155978fddf9e6523bef7c,2025-03-12_02h36.41.487,Tarea de decisión léxica,2024.2.5,Win32,59.17159763,,,,,,,,,,,,,,,,,,,,,,,,100.9858,101.8479,l,0,0.1854,0,101.8484,102.3482,,,,,,209,MAS,WORD,AGR,150,velo,,el,,0.1854,,102.3484,102.349,-0.016447368,-0.387609649,0,0,0,,0,13,13,208,1,dero,,,,
,,,,,,6075e94a6bed1dc64e9d34c7,676192165fb32c2e1fb7aee6,67d155978fddf9e6523bef7c,2025-03-12_02h36.41.487,Tarea de decisión léxica,2024.2.5,Win32,59.17159763,,,,,,,,,,,,,,,,,,,,,,,,102.3533,104.266,l,1,1.2404,1,104.2704,104.7666,,,,,,54,FEM,NOWORD,AGR,150,rora,,la,,1.2404,,104.7668,104.7676,-0.016447368,-0.387609649,0,0,0,,0,14,14,53,1,boda,,,,
,,,,,,6075e94a6bed1dc64e9d34c7,676192165fb32c2e1fb7aee6,67d155978fddf9e6523bef7c,2025-03-12_02h36.41.487,Tarea de decisión léxica,2024.2.5,Win32,59.17159763,,,,,,,,,,,,,,,,,,,,,,,,104.7724,105.7916,l,0,0.3491,0,105.793,106.2841,,,,,,181,FEM,WORD,AGR,150,seda,,la,,0.3491,,106.2843,106.285,-0.016447368,-0.387609649,0,0,0,,0,15,15,180,1,teda,,,,
,,,,,,6075e94a6bed1dc64e9d34c7,676192165fb32c2e1fb7aee6,67d155978fddf9e6523bef7c,2025-03-12_02h36.41.487,Tarea de decisión léxica,2024.2.5,Win32,59.17159763,,,,,,,,,,,,,,,,,,,,,,,,106.2893,107.8687,l,0,0.9045,0,107.8692,108.369,,,,,,47,MAS,WORD,DIS,150,club,,la,,0.9045,,108.3745,108.3769,-0.016447368,-0.387609649,0,0,0,,0,16,16,46,1,chub,,,,
,,,,,,6075e94a6bed1dc64e9d34c7,676192165fb32c2e1fb7aee6,67d155978fddf9e6523bef7c,2025-03-12_02h36.41.487,Tarea de decisión léxica,2024.2.5,Win32,59.17159763,,,,,,,,,,,,,,,,,,,,,,,,108.3795,109.9868,l,1,0.9357,1,109.9906,110.4866,,,,,,282,MAS,NOWORD,AGR,150,cauro,,el,,0.9357,,110.4868,110.4871,-0.016447368,-0.387609649,0,0,0,,0,17,17,281,1,cielo,,,,
,,,,,,6075e94a6bed1dc64e9d34c7,676192165fb32c2e1fb7aee6,67d155978fddf9e6523bef7c,2025-03-12_02h36.41.487,Tarea de decisión léxica,2024.2.5,Win32,59.17159763,,,,,,,,,,,,,,,,,,,,,,,,110.4902,111.2984,a,0,0.1279,0,111.3009,111.7879,,,,,,410,MAS,NOWORD,AGR,150,pafro,,el,,0.1279,,111.7881,111.7886,-0.016447368,-0.387609649,0,0,0,,0,18,18,409,1,carro,,,,
,,,,,,6075e94a6bed1dc64e9d34c7,676192165fb32c2e1fb7aee6,67d155978fddf9e6523bef7c,2025-03-12_02h36.41.487,Tarea de decisión léxica,2024.2.5,Win32,59.17159763,,,,,,,,,,,,,,,,,,,,,,,,111.7932,112.615,a,0,0.1498,0,112.6153,113.1058,,,,,,400,MAS,NOWORD,DIS,150,serro,,la,,0.1498,,113.1065,113.1072,-0.016447368,-0.387609649,0,0,0,,0,19,19,399,1,techo,,,,
,,,,,,6075e94a6bed1dc64e9d34c7,676192165fb32c2e1fb7aee6,67d155978fddf9e6523bef7c,2025-03-12_02h36.41.487,Tarea de decisión léxica,2024.2.5,Win32,59.17159763,,,,,,,,,,,,,,,,,,,,,,,,113.1126,114.1729,l,0,0.3904,0,114.1734,114.6732,,,,,,429,FEM,WORD,AGR,150,tarta,,la,,0.3904,,114.6734,114.674,-0.016447368,-0.387609649,0,0,0,,0,20,20,428,1,tenta,,,,
,,,,,,6075e94a6bed1dc64e9d34c7,676192165fb32c2e1fb7aee6,67d155978fddf9e6523bef7c,2025-03-12_02h36.41.487,Tarea de decisión léxica,2024.2.5,Win32,59.17159763,,,,,,,,,,,,,,,,,,,,,,,,114.6804,115.8408,l,1,0.4894,1,115.8448,116.3409,,,,,,6,FEM,NOWORD,AGR,150,poga,,la,,0.4894,,116.3466,116.3487,-0.016447368,-0.387609649,0,0,0,,0,21,21,5,1,cosa,,,,
,,,,,,6075e94a6bed1dc64e9d34c7,676192165fb32c2e1fb7aee6,67d155978fddf9e6523bef7c,2025-03-12_02h36.41.487,Tarea de decisión léxica,2024.2.5,Win32,59.17159763,,,,,,,,,,,,,,,,,,,,,,,,116.3524,117.1916,l,0,0.1692,0,117.1956,117.6923,,,,,,305,MAS,WORD,DIS,150,avión,,la,,0.1692,,117.6926,117.6936,-0.016447368,-0.387609649,0,0,0,,0,22,22,304,1,adiol,,,,
,,,,,,6075e94a6bed1dc64e9d34c7,676192165fb32c2e1fb7aee6,67d155978fddf9e6523bef7c,2025-03-12_02h36.41.487,Tarea de decisión léxica,2024.2.5,Win32,59.17159763,,,,,,,,,,,,,,,,,,,,,,,,117.6977,118.5028,l,0,0.1354,0,118.503,118.9934,,,,,,221,FEM,WORD,AGR,150,mula,,la,,0.1354,,118.9937,118.9946,-0.016447368,-0.387609649,0,0,0,,0,23,23,220,1,puca,,,,
,,,,,,6075e94a6bed1dc64e9d34c7,676192165fb32c2e1fb7aee6,67d155978fddf9e6523bef7c,2025-03-12_02h36.41.487,Tarea de decisión léxica,2024.2.5,Win32,59.17159763,,,,,,,,,,,,,,,,,,,,,,,,118.999,119.7769,a,1,0.1036,1,119.7831,120.2771,,,,,,83,FEM,WORD,DIS,150,bala,,el,,0.1036,,120.2773,120.278,-0.016447368,-0.387609649,0,0,0,,0,24,24,82,1,taga,,,,
,,,,,,6075e94a6bed1dc64e9d34c7,676192165fb32c2e1fb7aee6,67d155978fddf9e6523bef7c,2025-03-12_02h36.41.487,Tarea de decisión léxica,2024.2.5,Win32,59.17159763,,,,,,,,,,,,,,,,,,,,,,,,120.2821,121.0048,l,0,0.0516,0,121.0085,121.4949,,,,,,139,MAS,WORD,DIS,150,mago,,la,,0.0516,,121.4951,121.4956,-0.016447368,-0.387609649,0,0,0,,0,25,25,138,1,nila,,,,
,,,,,,6075e94a6bed1dc64e9d34c7,676192165fb32c2e1fb7aee6,67d155978fddf9e6523bef7c,2025-03-12_02h36.41.487,Tarea de decisión léxica,2024.2.5,Win32,59.17159763,,,,,,,,,,,,,,,,,,,,,,,,121.5,122.2785,a,0,0.1059,0,122.2789,122.7791,,,,,,184,FEM,NOWORD,DIS,150,raad,,el,,0.1059,,122.7857,122.7885,-0.016447368,-0.387609649,0,0,0,,0,26,26,183,1,raya,,,,
,,,,,,6075e94a6bed1dc64e9d34c7,676192165fb32c2e1fb7aee6,67d155978fddf9e6523bef7c,2025-03-12_02h36.41.487,Tarea de decisión léxica,2024.2.5,Win32,59.17159763,,,,,,,,,,,,,,,,,,,,,,,,122.7913,124.7302,a,0,1.2733,0,124.7308,125.2309,,,,,,474,FEM,NOWORD,AGR,150,felia,,la,,1.2733,,125.2312,125.232,-0.016447368,-0.387609649,0,0,0,,0,27,27,473,1,feria,,,,
,,,,,,6075e94a6bed1dc64e9d34c7,676192165fb32c2e1fb7aee6,67d155978fddf9e6523bef7c,2025-03-12_02h36.41.487,Tarea de decisión léxica,2024.2.5,Win32,59.17159763,,,,,,,,,,,,,,,,,,,,,,,,125.2365,126.4315,l,1,0.5215,1,126.4362,126.9319,,,,,,460,MAS,NOWORD,DIS,150,fraco,,la,,0.5215,,126.9321,126.9331,-0.016447368,-0.387609649,0,0,0,,0,28,28,459,1,grado,,,,
,,,,,,6075e94a6bed1dc64e9d34c7,676192165fb32c2e1fb7aee6,67d155978fddf9e6523bef7c,2025-03-12_02h36.41.487,Tarea de decisión léxica,2024.2.5,Win32,59.17159763,,,,,,,,,,,,,,,,,,,,,,,,126.9375,127.7562,l,1,0.1474,1,127.7565,128.2496,,,,,,356,FEM,NOWORD,DIS,150,bepla,,el,,0.1474,,128.2499,128.2506,-0.016447368,-0.387609649,0,0,0,,0,29,29,355,1,regla,,,,
,,,,,,6075e94a6bed1dc64e9d34c7,676192165fb32c2e1fb7aee6,67d155978fddf9e6523bef7c,2025-03-12_02h36.41.487,Tarea de decisión léxica,2024.2.5,Win32,59.17159763,,,,,,,,,,,,,,,,,,,,,,,,128.2553,129.0668,l,0,0.1398,0,129.071,129.5667,,,,,,113,FEM,WORD,DIS,150,miel,,el,,0.1398,,129.5669,129.5676,-0.016447368,-0.387609649,0,0,0,,0,30,30,112,1,tada,,,,
,,,,,,6075e94a6bed1dc64e9d34c7,676192165fb32c2e1fb7aee6,67d155978fddf9e6523bef7c,2025-03-12_02h36.41.487,Tarea de decisión léxica,2024.2.5,Win32,59.17159763,,,,,,,,,,,,,,,,,,,,,,,,129.572,130.3342,a,1,0.0887,1,130.338,130.8343,,,,,,3,FEM,WORD,AGR,150,vida,,la,,0.0887,,130.84,130.8421,-0.016447368,-0.387609649,0,0,0,,0,31,31,2,1,dica,,,,
,,,,,,6075e94a6bed1dc64e9d34c7,676192165fb32c2e1fb7aee6,67d155978fddf9e6523bef7c,2025-03-12_02h36.41.487,Tarea de decisión léxica,2024.2.5,Win32,59.17159763,,,,,,,,,,,,,,,,,,,,,,,,130.8455,132.6187,a,1,1.0988,1,132.6191,133.1198,,,,,,67,FEM,WORD,AGR,150,nena,,la,,1.0988,,133.1203,133.1212,-0.016447368,-0.387609649,0,0,0,,0,32,32,66,1,gesa,,,,
,,,,,,6075e94a6bed1dc64e9d34c7,676192165fb32c2e1fb7aee6,67d155978fddf9e6523bef7c,2025-03-12_02h36.41.487,Tarea de decisión léxica,2024.2.5,Win32,59.17159763,,,,,,,,,,,,,,,,,,,,,,,,133.1253,133.9366,l,0,0.1381,0,133.9403,134.4371,,,,,,381,MAS,WORD,AGR,150,humor,,el,,0.1381,,134.4373,134.4379,-0.016447368,-0.387609649,0,0,0,,0,33,33,380,1,nusor,,,,
,,,,,,6075e94a6bed1dc64e9d34c7,676192165fb32c2e1fb7aee6,67d155978fddf9e6523bef7c,2025-03-12_02h36.41.487,Tarea de decisión léxica,2024.2.5,Win32,59.17159763,,,,,,,,,,,,,,,,,,,,,,,,134.4419,135.7209,a,0,0.6097,0,135.7212,136.2213,,,,,,172,MAS,NOWORD,DIS,150,niro,,la,,0.6097,,136.2215,136.2221,-0.016447368,-0.387609649,0,0,0,,0,34,34,171,1,hilo,,,,
,,,,,,6075e94a6bed1dc64e9d34c7,676192165fb32c2e1fb7aee6,67d155978fddf9e6523bef7c,2025-03-12_02h36.41.487,Tarea de decisión léxica,2024.2.5,Win32,59.17159763,,,,,,,,,,,,,,,,,,,,,,,,136.2264,137.0652,a,1,0.1673,1,137.0678,137.5555,,,,,,49,FEM,WORD,AGR,150,edad,,la,,0.1673,,137.5616,137.5653,-0.016447368,-0.387609649,0,0,0,,0,35,35,48,1,ecat,,,,
,,,,,,6075e94a6bed1dc64e9d34c7,676192165fb32c2e1fb7aee6,67d155978fddf9e6523bef7c,2025-03-12_02h36.41.487,Tarea de decisión léxica,2024.2.5,Win32,59.17159763,,,,,,,,,,,,,,,,,,,,,,,,137.5682,138.4405,a,0,0.2081,0,138.4421,138.94,,,,,,254,MAS,NOWORD,AGR,150,trido,,el,,0.2081,,138.9403,138.9409,-0.016447368,-0.387609649,0,0,0,,0,36,36,253,1,chico,,,,
,,,,,,6075e94a6bed1dc64e9d34c7,676192165fb32c2e1fb7aee6,67d155978fddf9e6523bef7c,2025-03-12_02h36.41.487,Tarea de decisión léxica,2024.2.5,Win32,59.17159763,,,,,,,,,,,,,,,,,,,,,,,,138.9458,140.1243,l,1,0.4966,1,140.1283,140.625,,,,,,80,FEM,NOWORD,DIS,150,ciel,,el,,0.4966,,140.6253,140.6261,-0.016447368,-0.387609649,0,0,0,,0,37,37,79,1,piel,,,,
,,,,,,6075e94a6bed1dc64e9d34c7,676192165fb32c2e1fb7aee6,67d155978fddf9e6523bef7c,2025-03-12_02h36.41.487,Tarea de decisión léxica,2024.2.5,Win32,59.17159763,,,,,,,,,,,,,,,,,,,,,,,,140.6307,141.4755,l,0,0.1661,0,141.48,141.9757,,,,,,95,FEM,WORD,AGR,151,moda,,la,,0.1661,,141.976,141.9767,-0.016447368,-0.387609649,0,0,0,,0,38,38,94,1,neda,,,,
,,,,,,6075e94a6bed1dc64e9d34c7,676192165fb32c2e1fb7aee6,67d155978fddf9e6523bef7c,2025-03-12_02h36.41.487,Tarea de decisión léxica,2024.2.5,Win32,59.17159763,,,,,,,,,,,,,,,,,,,,,,,,141.9812,143.0929,l,0,0.4489,0,143.0934,143.5932,,,,,,23,FEM,WORD,DIS,150,hija,,el,,0.4489,,143.5934,143.5945,-0.016447368,-0.387609649,0,0,0,,0,39,39,22,1,giva,,,,
,,,,,,6075e94a6bed1dc64e9d34c7,676192165fb32c2e1fb7aee6,67d155978fddf9e6523bef7c,2025-03-12_02h36.41.487,Tarea de decisión léxica,2024.2.5,Win32,59.17159763,,,,,,,,,,,,,,,,,,,,,,,,143.5992,144.6213,a,1,0.3506,1,144.624,145.1106,,,,,,147,FEM,WORD,DIS,150,hoja,,el,,0.3506,,145.1174,145.1201,-0.016447368,-0.387609649,0,0,0,,0,40,40,146,1,pama,,,,
,,,,,,6075e94a6bed1dc64e9d34c7,676192165fb32c2e1fb7aee6,67d155978fddf9e6523bef7c,2025-03-12_02h36.41.487,Tarea de decisión léxica,2024.2.5,Win32,59.17159763,,,,,,,,,,,,,,,,,,,,,,,,145.1253,145.9318,l,0,0.1439,0,145.9346,146.4278,,,,,,317,FEM,WORD,DIS,150,playa,,el,,0.1439,,146.428,146.4282,-0.016447368,-0.387609649,0,0,0,,0,41,41,316,1,plaad,,,,
,,,,,,6075e94a6bed1dc64e9d34c7,676192165fb32c2e1fb7aee6,67d155978fddf9e6523bef7c,2025-03-12_02h36.41.487,Tarea de decisión léxica,2024.2.5,Win32,59.17159763,,,,,,,,,,,,,,,,,,,,,,,,146.4308,147.2562,a,0,0.1508,0,147.2565,147.746,,,,,,316,FEM,NOWORD,DIS,150,riosa,,el,,0.1508,,147.7463,147.7471,-0.016447368,-0.387609649,0,0,0,,0,42,42,315,1,reina,,,,
,,,,,,6075e94a6bed1dc64e9d34c7,676192165fb32c2e1fb7aee6,67d155978fddf9e6523bef7c,2025-03-12_02h36.41.487,Tarea de decisión léxica,2024.2.5,Win32,59.17159763,,,,,,,,,,,,,,,,,,,,,,,,147.7517,148.5569,l,0,0.1338,0,148.5572,149.0468,,,,,,249,FEM,WORD,DIS,150,clase,,el,,0.1338,,149.047,149.0479,-0.016447368,-0.387609649,0,0,0,,0,43,43,248,1,plane,,,,
,,,,,,6075e94a6bed1dc64e9d34c7,676192165fb32c2e1fb7aee6,67d155978fddf9e6523bef7c,2025-03-12_02h36.41.487,Tarea de decisión léxica,2024.2.5,Win32,59.17159763,,,,,,,,,,,,,,,,,,,,,,,,149.0529,149.8744,a,1,0.1524,1,149.8768,150.3645,,,,,,101,MAS,WORD,DIS,150,tono,,la,,0.1524,,150.3648,150.3653,-0.016447368,-0.387609649,0,0,0,,0,44,44,100,1,gito,,,,
,,,,,,6075e94a6bed1dc64e9d34c7,676192165fb32c2e1fb7aee6,67d155978fddf9e6523bef7c,2025-03-12_02h36.41.487,Tarea de decisión léxica,2024.2.5,Win32,59.17159763,,,,,,,,,,,,,,,,,,,,,,,,150.3697,151.182,a,0,0.1358,0,151.1862,151.6808,,,,,,404,FEM,NOWORD,DIS,150,grisa,,el,,0.1358,,151.6842,151.685,-0.016447368,-0.387609649,0,0,0,,0,45,45,403,1,prima,,,,
,,,,,,6075e94a6bed1dc64e9d34c7,676192165fb32c2e1fb7aee6,67d155978fddf9e6523bef7c,2025-03-12_02h36.41.487,Tarea de decisión léxica,2024.2.5,Win32,59.17159763,,,,,,,,,,,,,,,,,,,,,,,,151.6859,152.5325,l,0,0.1698,0,152.533,153.0321,,,,,,219,FEM,WORD,DIS,150,pipa,,el,,0.1698,,153.0324,153.0327,-0.016447368,-0.387609649,0,0,0,,0,46,46,218,1,miva,,,,
,,,,,,6075e94a6bed1dc64e9d34c7,676192165fb32c2e1fb7aee6,67d155978fddf9e6523bef7c,2025-03-12_02h36.41.487,Tarea de decisión léxica,2024.2.5,Win32,59.17159763,,,,,,,,,,,,,,,,,,,,,,,,153.0357,153.8187,a,0,0.1053,0,153.8191,154.317,,,,,,322,MAS,NOWORD,AGR,150,rarco,,el,,0.1053,,154.3171,154.3174,-0.016447368,-0.387609649,0,0,0,,0,47,47,321,1,banco,,,,
,,,,,,6075e94a6bed1dc64e9d34c7,676192165fb32c2e1fb7aee6,67d155978fddf9e6523bef7c,2025-03-12_02h36.41.487,Tarea de decisión léxica,2024.2.5,Win32,59.17159763,,,,,,,,,,,,,,,,,,,,,,,,154.3205,155.1362,l,1,0.1336,1,155.139,155.6349,,,,,,448,MAS,NOWORD,DIS,150,buaso,,la,,0.1336,,155.6353,155.6355,-0.016447368,-0.387609649,0,0,0,,0,48,48,447,1,bolso,,,,
,,,,,,6075e94a6bed1dc64e9d34c7,676192165fb32c2e1fb7aee6,67d155978fddf9e6523bef7c,2025-03-12_02h36.41.487,Tarea de decisión léxica,2024.2.5,Win32,59.17159763,,,,,,,,,,,,,,,,,,,,,,,,155.6394,156.5342,a,0,0.2228,0,156.5354,157.0362,,,,,,106,FEM,NOWORD,AGR,150,vina,,la,,0.2228,,157.0365,157.0368,-0.016447368,-0.387609649,0,0,0,,0,49,49,105,1,sopa,,,,
,,,,,,6075e94a6bed1dc64e9d34c7,676192165fb32c2e1fb7aee6,67d155978fddf9e6523bef7c,2025-03-12_02h36.41.487,Tarea de decisión léxica,2024.2.5,Win32,59.17159763,,,,,,,,,,,,,,,,,,,,,,,,157.0411,157.8859,l,0,0.1719,0,157.886,158.3867,,,,,,461,FEM,WORD,DIS,150,tabla,,el,,0.1719,,158.3901,158.3918,-0.016447368,-0.387609649,0,0,0,,0,50,50,460,1,pagra,,,,
,,,,,,6075e94a6bed1dc64e9d34c7,676192165fb32c2e1fb7aee6,67d155978fddf9e6523bef7c,2025-03-12_02h36.41.487,Tarea de decisión léxica,2024.2.5,Win32,59.17159763,,,,,,,,,,,,,,,,,,,,,,,,158.3936,159.2101,a,0,0.1445,0,159.2104,159.7031,,,,,,50,FEM,NOWORD,AGR,150,ecat,,la,,0.1445,,159.7031,159.7032,-0.016447368,-0.387609649,0,0,0,,0,51,51,49,1,edad,,,,
,,,,,,6075e94a6bed1dc64e9d34c7,676192165fb32c2e1fb7aee6,67d155978fddf9e6523bef7c,2025-03-12_02h36.41.487,Tarea de decisión léxica,2024.2.5,Win32,59.17159763,,,,,,,,,,,,,,,,,,,,,,,,159.7054,160.5383,l,0,0.1692,0,160.5388,161.0389,,,,,,117,MAS,WORD,DIS,150,palo,,la,,0.1692,,161.0392,161.0395,-0.016447368,-0.387609649,0,0,0,,0,52,52,116,1,movo,,,,
,,,,,,6075e94a6bed1dc64e9d34c7,676192165fb32c2e1fb7aee6,67d155978fddf9e6523bef7c,2025-03-12_02h36.41.487,Tarea de decisión léxica,2024.2.5,Win32,59.17159763,,,,,,,,,,,,,,,,,,,,,,,,161.0439,161.8557,a,0,0.1272,0,161.8562,162.3567,,,,,,338,MAS,NOWORD,AGR,150,nuejo,,el,,0.1272,,162.3568,162.3572,-0.016447368,-0.387609649,0,0,0,,0,53,53,337,1,huevo,,,,
,,,,,,6075e94a6bed1dc64e9d34c7,676192165fb32c2e1fb7aee6,67d155978fddf9e6523bef7c,2025-03-12_02h36.41.487,Tarea de decisión léxica,2024.2.5,Win32,59.17159763,,,,,,,,,,,,,,,,,,,,,,,,162.3621,163.1398,l,1,0.1015,1,163.1419,163.6407,,,,,,470,MAS,NOWORD,AGR,150,matia,,el,,0.1015,,163.6409,163.6412,-0.016447368,-0.387609649,0,0,0,,0,54,54,469,1,patio,,,,
,,,,,,6075e94a6bed1dc64e9d34c7,676192165fb32c2e1fb7aee6,67d155978fddf9e6523bef7c,2025-03-12_02h36.41.487,Tarea de decisión léxica,2024.2.5,Win32,59.17159763,,,,,,,,,,,,,,,,,,,,,,,,163.6451,164.5411,l,1,0.2229,1,164.5413,165.0419,,,,,,272,FEM,NOWORD,DIS,150,refal,,el,,0.2229,,165.0465,165.0489,-0.016447368,-0.387609649,0,0,0,,0,55,55,271,1,señal,,,,
,,,,,,6075e94a6bed1dc64e9d34c7,676192165fb32c2e1fb7aee6,67d155978fddf9e6523bef7c,2025-03-12_02h36.41.487,Tarea de decisión léxica,2024.2.5,Win32,59.17159763,,,,,,,,,,,,,,,,,,,,,,,,165.0514,165.8609,l,0,0.1434,0,165.8633,166.3598,,,,,,453,FEM,WORD,AGR,150,mafia,,la,,0.1434,,166.36,166.3603,-0.016447368,-0.387609649,0,0,0,,0,56,56,452,1,pafia,,,,
,,,,,,6075e94a6bed1dc64e9d34c7,676192165fb32c2e1fb7aee6,67d155978fddf9e6523bef7c,2025-03-12_02h36.41.487,Tarea de decisión léxica,2024.2.5,Win32,59.17159763,,,,,,,,,,,,,,,,,,,,,,,,166.3645,167.3266,a,1,0.2905,1,167.3301,167.8266,,,,,,217,MAS,WORD,DIS,150,luto,,la,,0.2905,,167.8271,167.8275,-0.016447368,-0.387609649,0,0,0,,0,57,57,216,1,budo,,,,
,,,,,,6075e94a6bed1dc64e9d34c7,676192165fb32c2e1fb7aee6,67d155978fddf9e6523bef7c,2025-03-12_02h36.41.487,Tarea de decisión léxica,2024.2.5,Win32,59.17159763,,,,,,,,,,,,,,,,,,,,,,,,167.8325,168.6774,l,1,0.1622,1,168.6777,169.1777,,,,,,224,FEM,NOWORD,DIS,150,cira,,el,,0.1622,,169.1779,169.1781,-0.016447368,-0.387609649,0,0,0,,0,58,58,223,1,cera,,,,
,,,,,,6075e94a6bed1dc64e9d34c7,676192165fb32c2e1fb7aee6,67d155978fddf9e6523bef7c,2025-03-12_02h36.41.487,Tarea de decisión léxica,2024.2.5,Win32,59.17159763,,,,,,,,,,,,,,,,,,,,,,,,169.182,170.0449,a,0,0.178,0,170.0476,170.5454,,,,,,466,FEM,NOWORD,AGR,150,asuba,,la,,0.178,,170.55,170.5522,-0.016447368,-0.387609649,0,0,0,,0,59,59,465,1,aguja,,,,
,,,,,,6075e94a6bed1dc64e9d34c7,676192165fb32c2e1fb7aee6,67d155978fddf9e6523bef7c,2025-03-12_02h36.41.487,Tarea de decisión léxica,2024.2.5,Win32,59.17159763,,,,,,,,,,,,,,,,,,,,,,,,170.5546,172.2992,l,0,1.075,0,172.2996,172.7974,,,,,,397,FEM,WORD,DIS,150,tribu,,el,,1.075,,172.7976,172.7981,-0.016447368,-0.387609649,0,0,0,,0,60,60,396,1,trigi,,,,
,,,,,,6075e94a6bed1dc64e9d34c7,676192165fb32c2e1fb7aee6,67d155978fddf9e6523bef7c,2025-03-12_02h36.41.487,Tarea de decisión léxica,2024.2.5,Win32,59.17159763,,,,,,,,,,,,,,,,,,,,,,,,172.8027,173.6306,a,1,0.1639,1,173.6353,174.1216,,,,,,57,MAS,WORD,DIS,150,dedo,,la,,0.1639,,174.1217,174.1223,-0.016447368,-0.387609649,0,0,0,,0,61,61,56,1,heco,,,,
,,,,,,6075e94a6bed1dc64e9d34c7,676192165fb32c2e1fb7aee6,67d155978fddf9e6523bef7c,2025-03-12_02h36.41.487,Tarea de decisión léxica,2024.2.5,Win32,59.17159763,,,,,,,,,,,,,,,,,,,,,,,,174.1267,175.017,a,1,0.2249,1,175.0172,175.5138,,,,,,71,FEM,WORD,AGR,150,isla,,la,,0.2249,,175.514,175.5142,-0.016447368,-0.387609649,0,0,0,,0,62,62,70,1,urla,,,,
,,,,,,6075e94a6bed1dc64e9d34c7,676192165fb32c2e1fb7aee6,67d155978fddf9e6523bef7c,2025-03-12_02h36.41.487,Tarea de decisión léxica,2024.2.5,Win32,59.17159763,,,,,,,,,,,,,,,,,,,,,,,,175.5175,176.3567,a,1,0.165,1,176.357,176.8497,,,,,,45,FEM,WORD,DIS,150,mesa,,el,,0.165,,176.8499,176.8507,-0.016447368,-0.387609649,0,0,0,,0,63,63,44,1,pema,,,,
,,,,,,6075e94a6bed1dc64e9d34c7,676192165fb32c2e1fb7aee6,67d155978fddf9e6523bef7c,2025-03-12_02h36.41.487,Tarea de decisión léxica,2024.2.5,Win32,59.17159763,,,,,,,,,,,,,,,,,,,,,,,,176.8552,177.8859,a,0,0.3603,0,177.8888,178.384,,,,,,228,MAS,NOWORD,DIS,150,laro,,la,,0.3603,,178.3896,178.3923,-0.016447368,-0.387609649,0,0,0,,0,64,64,227,1,faro,,,,
,,,,,,6075e94a6bed1dc64e9d34c7,676192165fb32c2e1fb7aee6,67d155978fddf9e6523bef7c,2025-03-12_02h36.41.487,Tarea de decisión léxica,2024.2.5,Win32,59.17159763,,,,,,,,,,,,,,,,,,,,,,,,178.3952,179.4119,a,0,0.3503,0,179.4122,179.9016,,,,,,382,MAS,NOWORD,AGR,150,nusor,,el,,0.3503,,179.9017,179.9025,-0.016447368,-0.387609649,0,0,0,,0,65,65,381,1,humor,,,,
,,,,,,6075e94a6bed1dc64e9d34c7,676192165fb32c2e1fb7aee6,67d155978fddf9e6523bef7c,2025-03-12_02h36.41.487,Tarea de decisión léxica,2024.2.5,Win32,59.17159763,,,,,,,,,,,,,,,,,,,,,,,,179.9072,180.7626,l,1,0.1837,1,180.7651,181.2524,,,,,,42,FEM,NOWORD,AGR,150,haje,,la,,0.1837,,181.2526,181.2532,-0.016447368,-0.387609649,0,0,0,,0,66,66,41,1,nave,,,,
,,,,,,6075e94a6bed1dc64e9d34c7,676192165fb32c2e1fb7aee6,67d155978fddf9e6523bef7c,2025-03-12_02h36.41.487,Tarea de decisión léxica,2024.2.5,Win32,59.17159763,,,,,,,,,,,,,,,,,,,,,,,,181.2576,182.261,a,1,0.3248,1,182.2612,182.7535,,,,,,273,FEM,WORD,AGR,150,broma,,la,,0.3248,,182.7538,182.7549,-0.016447368,-0.387609649,0,0,0,,0,67,67,272,1,frosa,,,,
,,,,,,6075e94a6bed1dc64e9d34c7,676192165fb32c2e1fb7aee6,67d155978fddf9e6523bef7c,2025-03-12_02h36.41.487,Tarea de decisión léxica,2024.2.5,Win32,59.17159763,,,,,,,,,,,,,,,,,,,,,,,,182.7591,183.5721,l,0,0.1399,0,183.576,184.0713,,,,,,107,MAS,WORD,AGR,150,saco,,el,,0.1399,,184.0715,184.0724,-0.016447368,-0.387609649,0,0,0,,0,68,68,106,1,raot,,,,
,,,,,,6075e94a6bed1dc64e9d34c7,676192165fb32c2e1fb7aee6,67d155978fddf9e6523bef7c,2025-03-12_02h36.41.487,Tarea de decisión léxica,2024.2.5,Win32,59.17159763,,,,,,,,,,,,,,,,,,,,,,,,184.077,185.0604,a,0,0.3118,0,185.0607,185.5555,,,,,,252,MAS,NOWORD,DIS,150,refor,,la,,0.3118,,185.561,185.5638,-0.016447368,-0.387609649,0,0,0,,0,69,69,251,1,señor,,,,
,,,,,,6075e94a6bed1dc64e9d34c7,676192165fb32c2e1fb7aee6,67d155978fddf9e6523bef7c,2025-03-12_02h36.41.487,Tarea de decisión léxica,2024.2.5,Win32,59.17159763,,,,,,,,,,,,,,,,,,,,,,,,185.5676,186.6163,l,1,0.3838,1,186.619,187.1062,,,,,,2,FEM,NOWORD,AGR,150,mada,,la,,0.3838,,187.1064,187.107,-0.016447368,-0.387609649,0,0,0,,0,70,70,1,1,casa,,,,
,,,,,,6075e94a6bed1dc64e9d34c7,676192165fb32c2e1fb7aee6,67d155978fddf9e6523bef7c,2025-03-12_02h36.41.487,Tarea de decisión léxica,2024.2.5,Win32,59.17159763,,,,,,,,,,,,,,,,,,,,,,,,187.1113,188.1437,a,1,0.3604,1,188.1441,188.6409,,,,,,351,MAS,WORD,AGR,150,vuelo,,el,,0.3604,,188.6411,188.642,-0.016447368,-0.387609649,0,0,0,,0,71,71,350,1,duepo,,,,
,,,,,,6075e94a6bed1dc64e9d34c7,676192165fb32c2e1fb7aee6,67d155978fddf9e6523bef7c,2025-03-12_02h36.41.487,Tarea de decisión léxica,2024.2.5,Win32,59.17159763,,,,,,,,,,,,,,,,,,,,,,,,188.6466,189.5356,l,0,0.2182,0,189.5382,190.0251,,,,,,275,MAS,WORD,AGR,150,punto,,el,,0.2182,,190.0253,190.0259,-0.016447368,-0.387609649,0,0,0,,0,72,72,274,1,musto,,,,
,,,,,,6075e94a6bed1dc64e9d34c7,676192165fb32c2e1fb7aee6,67d155978fddf9e6523bef7c,2025-03-12_02h36.41.487,Tarea de decisión léxica,2024.2.5,Win32,59.17159763,,,,,,,,,,,,,,,,,,,,,,,,190.0301,190.8532,a,0,0.1509,0,190.8535,191.3429,,,,,,64,FEM,NOWORD,DIS,150,funa,,el,,0.1509,,191.3431,191.344,-0.016447368,-0.387609649,0,0,0,,0,73,73,63,1,luna,,,,
,,,,,,6075e94a6bed1dc64e9d34c7,676192165fb32c2e1fb7aee6,67d155978fddf9e6523bef7c,2025-03-12_02h36.41.487,Tarea de decisión léxica,2024.2.5,Win32,59.17159763,,,,,,,,,,,,,,,,,,,,,,,,191.3485,192.2641,l,1,0.2401,1,192.2668,192.7597,,,,,,428,FEM,NOWORD,DIS,150,oseva,,el,,0.2401,,192.763,192.7641,-0.016447368,-0.387609649,0,0,0,,0,74,74,427,1,oreja,,,,
,,,,,,6075e94a6bed1dc64e9d34c7,676192165fb32c2e1fb7aee6,67d155978fddf9e6523bef7c,2025-03-12_02h36.41.487,Tarea de decisión léxica,2024.2.5,Win32,59.17159763,,,,,,,,,,,,,,,,,,,,,,,,192.7654,193.6942,l,1,0.2538,1,193.6947,194.195,,,,,,264,FEM,NOWORD,DIS,150,dosta,,el,,0.2538,,194.1952,194.196,-0.016447368,-0.387609649,0,0,0,,0,75,75,263,1,vista,,,,
,,,,,,6075e94a6bed1dc64e9d34c7,676192165fb32c2e1fb7aee6,67d155978fddf9e6523bef7c,2025-03-12_02h36.41.487,Tarea de decisión léxica,2024.2.5,Win32,59.17159763,,,,,,,,,,,,,,,,,,,,,,,,194.2004,195.0861,l,0,0.2139,0,195.0887,195.5793,,,,,,385,FEM,WORD,DIS,150,letra,,el,,0.2139,,195.5797,195.5806,-0.016447368,-0.387609649,0,0,0,,0,76,76,384,1,febra,,,,
,,,,,,6075e94a6bed1dc64e9d34c7,676192165fb32c2e1fb7aee6,67d155978fddf9e6523bef7c,2025-03-12_02h36.41.487,Tarea de decisión léxica,2024.2.5,Win32,59.17159763,,,,,,,,,,,,,,,,,,,,,,,,195.5851,196.5299,l,0,0.2707,0,196.5304,197.0305,,,,,,85,MAS,WORD,AGR,150,lago,,el,,0.2707,,197.0309,197.0317,-0.016447368,-0.387609649,0,0,0,,0,77,77,84,1,babo,,,,
,,,,,,6075e94a6bed1dc64e9d34c7,676192165fb32c2e1fb7aee6,67d155978fddf9e6523bef7c,2025-03-12_02h36.41.487,Tarea de decisión léxica,2024.2.5,Win32,59.17159763,,,,,,,,,,,,,,,,,,,,,,,,197.0358,199.6732,,0,0.2707,-1,199.677,200.1654,,,,,,229,MAS,WORD,AGR,150,amor,,el,,,,200.1657,200.1662,-0.016447368,-0.387609649,0,0,0,,0,78,78,228,1,ador,,,,
,,,,,,6075e94a6bed1dc64e9d34c7,676192165fb32c2e1fb7aee6,67d155978fddf9e6523bef7c,2025-03-12_02h36.41.487,Tarea de decisión léxica,2024.2.5,Win32,59.17159763,,,,,,,,,,,,,,,,,,,,,,,,200.1703,201.3525,l,0,0.5032,0,201.3552,201.8503,,,,,,315,FEM,WORD,AGR,150,reina,,la,,0.5032,,201.8561,201.8586,-0.016447368,-0.387609649,0,0,0,,0,79,79,314,1,riosa,,,,
,,,,,,6075e94a6bed1dc64e9d34c7,676192165fb32c2e1fb7aee6,67d155978fddf9e6523bef7c,2025-03-12_02h36.41.487,Tarea de decisión léxica,2024.2.5,Win32,59.17159763,,,,,,,,,,,,,,,,,,,,,,,,201.8614,202.8006,a,1,0.27,1,202.805,203.3011,,,,,,341,MAS,WORD,AGR,150,valor,,el,,0.27,,203.3016,203.3021,-0.016447368,-0.387609649,0,0,0,,0,80,80,340,1,daror,,,,
,,,,,,6075e94a6bed1dc64e9d34c7,676192165fb32c2e1fb7aee6,67d155978fddf9e6523bef7c,2025-03-12_02h36.41.487,Tarea de decisión léxica,2024.2.5,Win32,59.17159763,,,,,,,,,,,,,,,,,,,,,,,,203.3069,204.1683,a,1,0.1909,1,204.1688,204.6689,,,,,,431,MAS,WORD,AGR,150,motor,,el,,0.1909,,204.6693,204.6704,-0.016447368,-0.387609649,0,0,0,,0,81,81,430,1,tetor,,,,
,,,,,,6075e94a6bed1dc64e9d34c7,676192165fb32c2e1fb7aee6,67d155978fddf9e6523bef7c,2025-03-12_02h36.41.487,Tarea de decisión léxica,2024.2.5,Win32,59.17159763,,,,,,,,,,,,,,,,,,,,,,,,204.6746,205.5296,a,1,0.1835,1,205.53,206.0195,,,,,,299,FEM,WORD,DIS,150,bolsa,,el,,0.1835,,206.0198,206.0205,-0.016447368,-0.387609649,0,0,0,,0,82,82,298,1,bosga,,,,
,,,,,,6075e94a6bed1dc64e9d34c7,676192165fb32c2e1fb7aee6,67d155978fddf9e6523bef7c,2025-03-12_02h36.41.487,Tarea de decisión léxica,2024.2.5,Win32,59.17159763,,,,,,,,,,,,,,,,,,,,,,,,206.0252,206.8701,l,1,0.1695,1,206.8705,207.3703,,,,,,276,MAS,NOWORD,DIS,150,musto,,la,,0.1695,,207.3758,207.3777,-0.016447368,-0.387609649,0,0,0,,0,83,83,275,1,punto,,,,
,,,,,,6075e94a6bed1dc64e9d34c7,676192165fb32c2e1fb7aee6,67d155978fddf9e6523bef7c,2025-03-12_02h36.41.487,Tarea de decisión léxica,2024.2.5,Win32,59.17159763,,,,,,,,,,,,,,,,,,,,,,,,207.38,208.3249,l,0,0.2764,0,208.3277,208.8212,,,,,,61,FEM,WORD,AGR,150,obra,,la,,0.2764,,208.8216,208.8221,-0.016447368,-0.387609649,0,0,0,,0,84,84,60,1,efla,,,,
,,,,,,6075e94a6bed1dc64e9d34c7,676192165fb32c2e1fb7aee6,67d155978fddf9e6523bef7c,2025-03-12_02h36.41.487,Tarea de decisión léxica,2024.2.5,Win32,59.17159763,,,,,,,,,,,,,,,,,,,,,,,,208.8263,209.7988,l,1,0.3023,1,209.8017,210.2891,,,,,,478,MAS,NOWORD,AGR,150,hocon,,el,,0.3023,,210.2893,210.29,-0.016447368,-0.387609649,0,0,0,,0,85,85,477,1,botón,,,,
,,,,,,6075e94a6bed1dc64e9d34c7,676192165fb32c2e1fb7aee6,67d155978fddf9e6523bef7c,2025-03-12_02h36.41.487,Tarea de decisión léxica,2024.2.5,Win32,59.17159763,,,,,,,,,,,,,,,,,,,,,,,,210.2947,211.2099,a,1,0.2425,1,211.2103,211.7068,,,,,,329,MAS,WORD,AGR,150,hueso,,el,,0.2425,,211.707,211.7078,-0.016447368,-0.387609649,0,0,0,,0,86,86,328,1,nueno,,,,
,,,,,,6075e94a6bed1dc64e9d34c7,676192165fb32c2e1fb7aee6,67d155978fddf9e6523bef7c,2025-03-12_02h36.41.487,Tarea de decisión léxica,2024.2.5,Win32,59.17159763,,,,,,,,,,,,,,,,,,,,,,,,211.7123,212.4676,l,0,0.0833,0,212.4703,212.9582,,,,,,233,FEM,WORD,DIS,150,lana,,el,,0.0833,,212.9585,212.9589,-0.016447368,-0.387609649,0,0,0,,0,87,87,232,1,fasa,,,,
,,,,,,6075e94a6bed1dc64e9d34c7,676192165fb32c2e1fb7aee6,67d155978fddf9e6523bef7c,2025-03-12_02h36.41.487,Tarea de decisión léxica,2024.2.5,Win32,59.17159763,,,,,,,,,,,,,,,,,,,,,,,,212.964,213.826,l,1,0.181,1,213.8296,214.3258,,,,,,198,MAS,NOWORD,AGR,150,dade,,el,,0.181,,214.3313,214.3341,-0.016447368,-0.387609649,0,0,0,,0,88,88,197,1,bate,,,,
,,,,,,6075e94a6bed1dc64e9d34c7,676192165fb32c2e1fb7aee6,67d155978fddf9e6523bef7c,2025-03-12_02h36.41.487,Tarea de decisión léxica,2024.2.5,Win32,59.17159763,,,,,,,,,,,,,,,,,,,,,,,,214.337,215.2244,a,0,0.2177,0,215.2273,215.7262,,,,,,450,FEM,NOWORD,AGR,150,crusa,,la,,0.2177,,215.7265,215.7273,-0.016447368,-0.387609649,0,0,0,,0,89,89,449,1,pluma,,,,
,,,,,,6075e94a6bed1dc64e9d34c7,676192165fb32c2e1fb7aee6,67d155978fddf9e6523bef7c,2025-03-12_02h36.41.487,Tarea de decisión léxica,2024.2.5,Win32,59.17159763,,,,,,,,,,,,,,,,,,,,,,,,215.7321,216.5768,l,1,0.1696,1,216.581,217.0763,,,,,,24,FEM,NOWORD,DIS,150,giva,,el,,0.1696,,217.0764,217.0768,-0.016447368,-0.387609649,0,0,0,,0,90,90,23,1,hija,,,,
,,,,,,6075e94a6bed1dc64e9d34c7,676192165fb32c2e1fb7aee6,67d155978fddf9e6523bef7c,2025-03-12_02h36.41.487,Tarea de decisión léxica,2024.2.5,Win32,59.17159763,,,,,,,,,,,,,,,,,,,,,,,,217.0796,217.9484,l,0,0.1938,0,217.9511,218.4451,,,,,,301,FEM,WORD,AGR,150,banda,,la,,0.1938,,218.4451,218.4461,-0.016447368,-0.387609649,0,0,0,,0,91,91,300,1,ranga,,,,
,,,,,,6075e94a6bed1dc64e9d34c7,676192165fb32c2e1fb7aee6,67d155978fddf9e6523bef7c,2025-03-12_02h36.41.487,Tarea de decisión léxica,2024.2.5,Win32,59.17159763,,,,,,,,,,,,,,,,,,,,,,,,218.4502,219.3721,l,1,0.2497,1,219.3746,219.8622,,,,,,388,FEM,NOWORD,DIS,150,bresa,,el,,0.2497,,219.8625,219.8632,-0.016447368,-0.387609649,0,0,0,,0,92,92,387,1,crema,,,,
,,,,,,6075e94a6bed1dc64e9d34c7,676192165fb32c2e1fb7aee6,67d155978fddf9e6523bef7c,2025-03-12_02h36.41.487,Tarea de decisión léxica,2024.2.5,Win32,59.17159763,,,,,,,,,,,,,,,,,,,,,,,,219.8675,220.6962,a,1,0.1564,1,220.6967,221.197,,,,,,437,FEM,WORD,DIS,150,plaza,,el,,0.1564,,221.2029,221.2054,-0.016447368,-0.387609649,0,0,0,,0,93,93,436,1,glava,,,,
,,,,,,6075e94a6bed1dc64e9d34c7,676192165fb32c2e1fb7aee6,67d155978fddf9e6523bef7c,2025-03-12_02h36.41.487,Tarea de decisión léxica,2024.2.5,Win32,59.17159763,,,,,,,,,,,,,,,,,,,,,,,,221.2081,222.0909,l,0,0.2091,0,222.0945,222.581,,,,,,151,MAS,WORD,DIS,150,tomo,,la,,0.2091,,222.5812,222.5816,-0.016447368,-0.387609649,0,0,0,,0,94,94,150,1,sogo,,,,
,,,,,,6075e94a6bed1dc64e9d34c7,676192165fb32c2e1fb7aee6,67d155978fddf9e6523bef7c,2025-03-12_02h36.41.487,Tarea de decisión léxica,2024.2.5,Win32,59.17159763,,,,,,,,,,,,,,,,,,,,,,,,222.5865,223.5481,l,1,0.2898,1,223.5513,224.0475,,,,,,128,MAS,NOWORD,DIS,150,itio,,la,,0.2898,,224.0475,224.0477,-0.016447368,-0.387609649,0,0,0,,0,95,95,127,1,pico,,,,
,,,,,,6075e94a6bed1dc64e9d34c7,676192165fb32c2e1fb7aee6,67d155978fddf9e6523bef7c,2025-03-12_02h36.41.487,Tarea de decisión léxica,2024.2.5,Win32,59.17159763,,,,,,,,,,,,,,,,,,,,,,,,224.0492,225.0582,l,0,0.3496,0,225.061,225.5497,,,,,,243,MAS,WORD,AGR,150,amigo,,el,,0.3496,,225.55,225.5505,-0.016447368,-0.387609649,0,0,0,,0,96,96,242,1,asamo,,,,
,,,,,,6075e94a6bed1dc64e9d34c7,676192165fb32c2e1fb7aee6,67d155978fddf9e6523bef7c,2025-03-12_02h36.41.487,Tarea de decisión léxica,2024.2.5,Win32,59.17159763,,,,,,,,,,,,,,,,,,,,,,,,225.5549,226.4506,l,1,0.2205,1,226.4547,226.9508,,,,,,266,FEM,NOWORD,AGR,150,pitat,,la,,0.2205,,226.9511,226.9523,-0.016447368,-0.387609649,0,0,0,,0,97,97,265,1,mitad,,,,
,,,,,,6075e94a6bed1dc64e9d34c7,676192165fb32c2e1fb7aee6,67d155978fddf9e6523bef7c,2025-03-12_02h36.41.487,Tarea de decisión léxica,2024.2.5,Win32,59.17159763,,,,,,,,,,,,,,,,,,,,,,,,226.9577,227.8111,a,1,0.171,1,227.8113,228.3017,,,,,,69,FEM,WORD,DIS,150,zona,,el,,0.171,,228.3076,228.3102,-0.016447368,-0.387609649,0,0,0,,0,98,98,68,1,ñola,,,,
,,,,,,6075e94a6bed1dc64e9d34c7,676192165fb32c2e1fb7aee6,67d155978fddf9e6523bef7c,2025-03-12_02h36.41.487,Tarea de decisión léxica,2024.2.5,Win32,59.17159763,,,,,,,,,,,,,,,,,,,,,,,,228.313,229.2526,a,1,0.2701,1,229.2531,229.7528,,,,,,263,FEM,WORD,DIS,150,vista,,el,,0.2701,,229.753,229.754,-0.016447368,-0.387609649,0,0,0,,0,99,99,262,1,dosta,,,,
,,,,,,6075e94a6bed1dc64e9d34c7,676192165fb32c2e1fb7aee6,67d155978fddf9e6523bef7c,2025-03-12_02h36.41.487,Tarea de decisión léxica,2024.2.5,Win32,59.17159763,,,,,,,,,,,,,,,,,,,,,,,,229.7582,230.7202,a,1,0.2806,1,230.7212,231.2206,,,,,,427,FEM,WORD,DIS,150,oreja,,el,,0.2806,,231.2208,231.2217,-0.016447368,-0.387609649,0,0,0,,0,100,100,426,1,oseva,,,,
,,,,,,6075e94a6bed1dc64e9d34c7,676192165fb32c2e1fb7aee6,67d155978fddf9e6523bef7c,2025-03-12_02h36.41.487,Tarea de decisión léxica,2024.2.5,Win32,59.17159763,,,,,,,,,,,,,,,,,,,,,,,,231.2258,232.088,a,0,0.1872,0,232.0923,232.588,,,,,,402,MAS,NOWORD,AGR,150,pirvo,,el,,0.1872,,232.5882,232.5889,-0.016447368,-0.387609649,0,0,0,,0,101,101,401,1,polvo,,,,
,,,,,,6075e94a6bed1dc64e9d34c7,676192165fb32c2e1fb7aee6,67d155978fddf9e6523bef7c,2025-03-12_02h36.41.487,Tarea de decisión léxica,2024.2.5,Win32,59.17159763,,,,,,,,,,,,,,,,,,,,,,,,232.5933,233.4575,l,0,0.1907,0,233.4579,233.9553,,,,,,459,MAS,WORD,AGR,150,grado,,el,,0.1907,,233.9555,233.9565,-0.016447368,-0.387609649,0,0,0,,0,102,102,458,1,fraco,,,,
,,,,,,6075e94a6bed1dc64e9d34c7,676192165fb32c2e1fb7aee6,67d155978fddf9e6523bef7c,2025-03-12_02h36.41.487,Tarea de decisión léxica,2024.2.5,Win32,59.17159763,,,,,,,,,,,,,,,,,,,,,,,,233.9609,234.8489,a,0,0.2164,0,234.8491,235.3401,,,,,,374,FEM,NOWORD,AGR,150,pogza,,la,,0.2164,,235.3456,235.348,-0.016447368,-0.387609649,0,0,0,,0,103,103,373,1,pizza,,,,
,,,,,,6075e94a6bed1dc64e9d34c7,676192165fb32c2e1fb7aee6,67d155978fddf9e6523bef7c,2025-03-12_02h36.41.487,Tarea de decisión léxica,2024.2.5,Win32,59.17159763,,,,,,,,,,,,,,,,,,,,,,,,235.3518,236.509,a,1,0.4947,1,236.5124,237.0075,,,,,,311,MAS,WORD,DIS,150,honor,,la,,0.4947,,237.0077,237.0085,-0.016447368,-0.387609649,0,0,0,,0,104,104,310,1,nosor,,,,
,,,,,,6075e94a6bed1dc64e9d34c7,676192165fb32c2e1fb7aee6,67d155978fddf9e6523bef7c,2025-03-12_02h36.41.487,Tarea de decisión léxica,2024.2.5,Win32,59.17159763,,,,,,,,,,,,,,,,,,,,,,,,237.013,238.024,a,1,0.3342,1,238.0243,238.5154,,,,,,141,FEM,WORD,AGR,150,cruz,,la,,0.3342,,238.5156,238.5161,-0.016447368,-0.387609649,0,0,0,,0,105,105,140,1,sina,,,,
,,,,,,6075e94a6bed1dc64e9d34c7,676192165fb32c2e1fb7aee6,67d155978fddf9e6523bef7c,2025-03-12_02h36.41.487,Tarea de decisión léxica,2024.2.5,Win32,59.17159763,,,,,,,,,,,,,,,,,,,,,,,,238.52,239.4187,l,1,0.2333,1,239.419,239.9097,,,,,,348,FEM,NOWORD,DIS,150,mueza,,el,,0.2333,,239.9101,239.911,-0.016447368,-0.387609649,0,0,0,,0,106,106,347,1,pieza,,,,
,,,,,,6075e94a6bed1dc64e9d34c7,676192165fb32c2e1fb7aee6,67d155978fddf9e6523bef7c,2025-03-12_02h36.41.487,Tarea de decisión léxica,2024.2.5,Win32,59.17159763,,,,,,,,,,,,,,,,,,,,,,,,239.9154,240.8189,a,0,0.2276,0,240.8218,241.3102,,,,,,386,FEM,NOWORD,AGR,150,febra,,la,,0.2276,,241.3155,241.3184,-0.016447368,-0.387609649,0,0,0,,0,107,107,385,1,letra,,,,
,,,,,,6075e94a6bed1dc64e9d34c7,676192165fb32c2e1fb7aee6,67d155978fddf9e6523bef7c,2025-03-12_02h36.41.487,Tarea de decisión léxica,2024.2.5,Win32,59.17159763,,,,,,,,,,,,,,,,,,,,,,,,241.3213,242.3121,l,1,0.3234,1,242.3156,242.8115,,,,,,102,MAS,NOWORD,AGR,150,gito,,el,,0.3234,,242.8118,242.8125,-0.016447368,-0.387609649,0,0,0,,0,108,108,101,1,tono,,,,
,,,,,,6075e94a6bed1dc64e9d34c7,676192165fb32c2e1fb7aee6,67d155978fddf9e6523bef7c,2025-03-12_02h36.41.487,Tarea de decisión léxica,2024.2.5,Win32,59.17159763,,,,,,,,,,,,,,,,,,,,,,,,242.8178,243.7951,a,1,0.3079,1,243.7955,244.2958,,,,,,109,MAS,WORD,DIS,150,rayo,,la,,0.3079,,244.296,244.2969,-0.016447368,-0.387609649,0,0,0,,0,109,109,108,1,suno,,,,
,,,,,,6075e94a6bed1dc64e9d34c7,676192165fb32c2e1fb7aee6,67d155978fddf9e6523bef7c,2025-03-12_02h36.41.487,Tarea de decisión léxica,2024.2.5,Win32,59.17159763,,,,,,,,,,,,,,,,,,,,,,,,244.3009,245.4454,a,0,0.4701,0,245.4476,245.9469,,,,,,430,FEM,NOWORD,AGR,150,tenta,,la,,0.4701,,245.9471,245.9478,-0.016447368,-0.387609649,0,0,0,,0,110,110,429,1,tarta,,,,
,,,,,,6075e94a6bed1dc64e9d34c7,676192165fb32c2e1fb7aee6,67d155978fddf9e6523bef7c,2025-03-12_02h36.41.487,Tarea de decisión léxica,2024.2.5,Win32,59.17159763,,,,,,,,,,,,,,,,,,,,,,,,245.9526,246.8464,l,0,0.2199,0,246.8466,247.3478,,,,,,365,FEM,WORD,AGR,150,ducha,,la,,0.2199,,247.348,247.3486,-0.016447368,-0.387609649,0,0,0,,0,111,111,364,1,gulla,,,,
,,,,,,6075e94a6bed1dc64e9d34c7,676192165fb32c2e1fb7aee6,67d155978fddf9e6523bef7c,2025-03-12_02h36.41.487,Tarea de decisión léxica,2024.2.5,Win32,59.17159763,,,,,,,,,,,,,,,,,,,,,,,,247.3521,248.1259,a,1,0.1007,1,248.1285,248.616,,,,,,411,MAS,WORD,AGR,150,pollo,,el,,0.1007,,248.6207,248.6245,-0.016447368,-0.387609649,0,0,0,,0,112,112,410,1,mobro,,,,
,,,,,,6075e94a6bed1dc64e9d34c7,676192165fb32c2e1fb7aee6,67d155978fddf9e6523bef7c,2025-03-12_02h36.41.487,Tarea de decisión léxica,2024.2.5,Win32,59.17159763,,,,,,,,,,,,,,,,,,,,,,,,248.6274,249.6337,a,0,0.3368,0,249.6375,250.1333,,,,,,296,MAS,NOWORD,DIS,150,goler,,la,,0.3368,,250.1336,250.1347,-0.016447368,-0.387609649,0,0,0,,0,113,113,295,1,dolor,,,,
,,,,,,6075e94a6bed1dc64e9d34c7,676192165fb32c2e1fb7aee6,67d155978fddf9e6523bef7c,2025-03-12_02h36.41.487,Tarea de decisión léxica,2024.2.5,Win32,59.17159763,,,,,,,,,,,,,,,,,,,,,,,,250.1388,251.361,l,1,0.5502,1,251.3636,251.8509,,,,,,424,MAS,NOWORD,DIS,150,quigo,,la,,0.5502,,251.8511,251.8518,-0.016447368,-0.387609649,0,0,0,,0,114,114,423,1,queso,,,,
,,,,,,6075e94a6bed1dc64e9d34c7,676192165fb32c2e1fb7aee6,67d155978fddf9e6523bef7c,2025-03-12_02h36.41.487,Tarea de decisión léxica,2024.2.5,Win32,59.17159763,,,,,,,,,,,,,,,,,,,,,,,,251.8563,253.0272,l,0,0.4996,0,253.0294,253.5189,,,,,,215,FEM,WORD,AGR,150,raíz,,la,,0.4996,,253.5191,253.5196,-0.016447368,-0.387609649,0,0,0,,0,115,115,214,1,raua,,,,
,,,,,,6075e94a6bed1dc64e9d34c7,676192165fb32c2e1fb7aee6,67d155978fddf9e6523bef7c,2025-03-12_02h36.41.487,Tarea de decisión léxica,2024.2.5,Win32,59.17159763,,,,,,,,,,,,,,,,,,,,,,,,253.5238,254.5198,a,0,0.3248,0,254.5204,255.0197,,,,,,280,FEM,NOWORD,DIS,150,grina,,el,,0.3248,,255.02,255.021,-0.016447368,-0.387609649,0,0,0,,0,116,116,279,1,prisa,,,,
,,,,,,6075e94a6bed1dc64e9d34c7,676192165fb32c2e1fb7aee6,67d155978fddf9e6523bef7c,2025-03-12_02h36.41.487,Tarea de decisión léxica,2024.2.5,Win32,59.17159763,,,,,,,,,,,,,,,,,,,,,,,,255.0249,256.8145,a,1,1.1027,1,256.8166,257.3052,,,,,,93,FEM,WORD,DIS,150,bola,,el,,1.1027,0.0012,257.3106,257.3135,-0.016447368,-0.387609649,0,0,0,,0,117,117,92,1,rona,,,,
,,,,,,6075e94a6bed1dc64e9d34c7,676192165fb32c2e1fb7aee6,67d155978fddf9e6523bef7c,2025-03-12_02h36.41.487,Tarea de decisión léxica,2024.2.5,Win32,59.17159763,,,,,,,,,,,,,,,,,,,,,,,,257.3163,258.1982,l,0,0.2181,0,258.2001,258.6892,,,,,,347,FEM,WORD,AGR,150,pieza,,la,,0.2181,,258.6894,258.69,-0.016447368,-0.387609649,0,0,0,,0,118,118,346,1,mueza,,,,
,,,,,,6075e94a6bed1dc64e9d34c7,676192165fb32c2e1fb7aee6,67d155978fddf9e6523bef7c,2025-03-12_02h36.41.487,Tarea de decisión léxica,2024.2.5,Win32,59.17159763,,,,,,,,,,,,,,,,,,,,,,,,258.6928,259.6895,a,0,0.3232,0,259.6897,260.1901,,,,,,412,MAS,NOWORD,DIS,150,mobro,,la,,0.3232,,260.1902,260.1909,-0.016447368,-0.387609649,0,0,0,,0,119,119,411,1,pollo,,,,
,,,,,,6075e94a6bed1dc64e9d34c7,676192165fb32c2e1fb7aee6,67d155978fddf9e6523bef7c,2025-03-12_02h36.41.487,Tarea de decisión léxica,2024.2.5,Win32,59.17159763,,,,,,,,,,,,,,,,,,,,,,,,260.1952,261.0407,l,1,0.1711,1,261.0445,261.5411,,,,,,414,FEM,NOWORD,AGR,150,bieda,,la,,0.1711,,261.5414,261.5421,-0.016447368,-0.387609649,0,0,0,,0,120,120,413,1,rueda,,,,
,,,,,,6075e94a6bed1dc64e9d34c7,676192165fb32c2e1fb7aee6,67d155978fddf9e6523bef7c,2025-03-12_02h36.41.487,Tarea de decisión léxica,2024.2.5,Win32,59.17159763,,,,,,,,,,,,,,,,,,,,,,,,261.5459,262.6606,l,1,0.4427,1,262.6608,263.1587,,,,,,300,FEM,NOWORD,DIS,150,bosga,,el,,0.4427,,263.159,263.1599,-0.016447368,-0.387609649,0,0,0,,0,121,121,299,1,bolsa,,,,
,,,,,,6075e94a6bed1dc64e9d34c7,676192165fb32c2e1fb7aee6,67d155978fddf9e6523bef7c,2025-03-12_02h36.41.487,Tarea de decisión léxica,2024.2.5,Win32,59.17159763,,,,,,,,,,,,,,,,,,,,,,,,263.1645,264.1023,l,1,0.2674,1,264.1026,264.5933,,,,,,438,FEM,NOWORD,AGR,150,glava,,la,,0.2674,,264.5994,264.6024,-0.016447368,-0.387609649,0,0,0,,0,122,122,437,1,plaza,,,,
,,,,,,6075e94a6bed1dc64e9d34c7,676192165fb32c2e1fb7aee6,67d155978fddf9e6523bef7c,2025-03-12_02h36.41.487,Tarea de decisión léxica,2024.2.5,Win32,59.17159763,,,,,,,,,,,,,,,,,,,,,,,,264.6054,265.4938,l,0,0.2237,0,265.4983,265.9943,,,,,,393,FEM,WORD,DIS,150,aldea,,el,,0.2237,,265.9946,265.9954,-0.016447368,-0.387609649,0,0,0,,0,123,123,392,1,ashea,,,,
,,,,,,6075e94a6bed1dc64e9d34c7,676192165fb32c2e1fb7aee6,67d155978fddf9e6523bef7c,2025-03-12_02h36.41.487,Tarea de decisión léxica,2024.2.5,Win32,59.17159763,,,,,,,,,,,,,,,,,,,,,,,,266.0007,267.0549,a,0,0.385,0,267.055,267.5452,,,,,,306,MAS,NOWORD,AGR,150,adiol,,el,,0.385,,267.5455,267.5464,-0.016447368,-0.387609649,0,0,0,,0,124,124,305,1,avión,,,,
,,,,,,6075e94a6bed1dc64e9d34c7,676192165fb32c2e1fb7aee6,67d155978fddf9e6523bef7c,2025-03-12_02h36.41.487,Tarea de decisión léxica,2024.2.5,Win32,59.17159763,,,,,,,,,,,,,,,,,,,,,,,,267.5507,268.3862,l,1,0.1491,1,268.3887,268.8796,,,,,,426,FEM,NOWORD,AGR,150,virca,,la,,0.1491,,268.8798,268.8804,-0.016447368,-0.387609649,0,0,0,,0,125,125,425,1,viuda,,,,
,,,,,,6075e94a6bed1dc64e9d34c7,676192165fb32c2e1fb7aee6,67d155978fddf9e6523bef7c,2025-03-12_02h36.41.487,Tarea de decisión léxica,2024.2.5,Win32,59.17159763,,,,,,,,,,,,,,,,,,,,,,,,268.885,269.7574,l,1,0.2002,1,269.7576,270.2475,,,,,,396,FEM,NOWORD,DIS,150,paeda,,el,,0.2002,,270.2478,270.249,-0.016447368,-0.387609649,0,0,0,,0,126,126,395,1,caída,,,,
,,,,,,6075e94a6bed1dc64e9d34c7,676192165fb32c2e1fb7aee6,67d155978fddf9e6523bef7c,2025-03-12_02h36.41.487,Tarea de decisión léxica,2024.2.5,Win32,59.17159763,,,,,,,,,,,,,,,,,,,,,,,,270.254,271.2061,a,0,0.2709,0,271.2091,271.698,,,,,,132,FEM,NOWORD,DIS,150,fada,,el,,0.2709,,271.7034,271.7066,-0.016447368,-0.387609649,0,0,0,,0,127,127,131,1,mina,,,,
,,,,,,6075e94a6bed1dc64e9d34c7,676192165fb32c2e1fb7aee6,67d155978fddf9e6523bef7c,2025-03-12_02h36.41.487,Tarea de decisión léxica,2024.2.5,Win32,59.17159763,,,,,,,,,,,,,,,,,,,,,,,,271.7093,272.5249,l,1,0.1499,1,272.5275,273.0146,,,,,,134,FEM,NOWORD,AGR,150,vesa,,la,,0.1499,,273.0147,273.0152,-0.016447368,-0.387609649,0,0,0,,0,128,128,133,1,vaca,,,,
,,,,,,6075e94a6bed1dc64e9d34c7,676192165fb32c2e1fb7aee6,67d155978fddf9e6523bef7c,2025-03-12_02h36.41.487,Tarea de decisión léxica,2024.2.5,Win32,59.17159763,,,,,,,,,,,,,,,,,,,,,,,,273.0178,273.8828,l,0,0.1898,0,273.8854,274.3831,,,,,,15,FEM,WORD,DIS,150,idea,,el,,0.1898,,274.3833,274.3837,-0.016447368,-0.387609649,0,0,0,,0,129,129,14,1,odea,,,,
,,,,,,6075e94a6bed1dc64e9d34c7,676192165fb32c2e1fb7aee6,67d155978fddf9e6523bef7c,2025-03-12_02h36.41.487,Tarea de decisión léxica,2024.2.5,Win32,59.17159763,,,,,,,,,,,,,,,,,,,,,,,,274.3874,275.2006,l,1,0.1251,1,275.2045,275.7008,,,,,,154,MAS,NOWORD,AGR,150,tado,,el,,0.1251,,275.7011,275.7018,-0.016447368,-0.387609649,0,0,0,,0,130,130,153,1,pato,,,,
,,,,,,6075e94a6bed1dc64e9d34c7,676192165fb32c2e1fb7aee6,67d155978fddf9e6523bef7c,2025-03-12_02h36.41.487,Tarea de decisión léxica,2024.2.5,Win32,59.17159763,,,,,,,,,,,,,,,,,,,,,,,,275.7058,276.7181,l,0,0.336,0,276.7218,277.2187,,,,,,75,MAS,WORD,AGR,150,olor,,el,,0.336,,277.2239,277.2261,-0.016447368,-0.387609649,0,0,0,,0,131,131,74,1,ocer,,,,
,,,,,,6075e94a6bed1dc64e9d34c7,676192165fb32c2e1fb7aee6,67d155978fddf9e6523bef7c,2025-03-12_02h36.41.487,Tarea de decisión léxica,2024.2.5,Win32,59.17159763,,,,,,,,,,,,,,,,,,,,,,,,277.2285,278.0785,l,1,0.1683,1,278.0809,278.5681,,,,,,236,FEM,NOWORD,DIS,150,tria,,el,,0.1683,,278.5681,278.5682,-0.016447368,-0.387609649,0,0,0,,0,132,132,235,1,grúa,,,,
,,,,,,6075e94a6bed1dc64e9d34c7,676192165fb32c2e1fb7aee6,67d155978fddf9e6523bef7c,2025-03-12_02h36.41.487,Tarea de decisión léxica,2024.2.5,Win32,59.17159763,,,,,,,,,,,,,,,,,,,,,,,,278.5697,279.9374,l,1,0.693,1,279.9376,280.4373,,,,,,124,FEM,NOWORD,DIS,150,maba,,el,,0.693,,280.4376,280.4379,-0.016447368,-0.387609649,0,0,0,,0,133,133,123,1,flor,,,,
,,,,,,6075e94a6bed1dc64e9d34c7,676192165fb32c2e1fb7aee6,67d155978fddf9e6523bef7c,2025-03-12_02h36.41.487,Tarea de decisión léxica,2024.2.5,Win32,59.17159763,,,,,,,,,,,,,,,,,,,,,,,,280.4412,281.3384,a,1,0.2116,1,281.3386,281.8386,,,,,,193,FEM,WORD,DIS,150,loca,,el,,0.2116,,281.8389,281.8391,-0.016447368,-0.387609649,0,0,0,,0,134,134,192,1,foda,,,,
,,,,,,6075e94a6bed1dc64e9d34c7,676192165fb32c2e1fb7aee6,67d155978fddf9e6523bef7c,2025-03-12_02h36.41.487,Tarea de decisión léxica,2024.2.5,Win32,59.17159763,,,,,,,,,,,,,,,,,,,,,,,,281.8442,282.8724,l,0,0.355,0,282.8754,283.373,,,,,,17,FEM,WORD,AGR,150,mamá,,la,,0.355,,283.3733,283.3737,-0.016447368,-0.387609649,0,0,0,,0,135,135,16,1,paba,,,,
,,,,,,6075e94a6bed1dc64e9d34c7,676192165fb32c2e1fb7aee6,67d155978fddf9e6523bef7c,2025-03-12_02h36.41.487,Tarea de decisión léxica,2024.2.5,Win32,59.17159763,,,,,,,,,,,,,,,,,,,,,,,,283.3787,284.195,l,1,0.1344,1,284.1973,284.6906,,,,,,136,MAS,NOWORD,DIS,150,geso,,la,,0.1344,,284.6958,284.6983,-0.016447368,-0.387609649,0,0,0,,0,136,136,135,1,tubo,,,,
,,,,,,6075e94a6bed1dc64e9d34c7,676192165fb32c2e1fb7aee6,67d155978fddf9e6523bef7c,2025-03-12_02h36.41.487,Tarea de decisión léxica,2024.2.5,Win32,59.17159763,,,,,,,,,,,,,,,,,,,,,,,,284.7012,285.5849,a,0,0.2167,0,285.5875,286.0746,,,,,,418,FEM,NOWORD,AGR,150,banja,,la,,0.2167,,286.0747,286.0754,-0.016447368,-0.387609649,0,0,0,,0,137,137,417,1,barba,,,,
,,,,,,6075e94a6bed1dc64e9d34c7,676192165fb32c2e1fb7aee6,67d155978fddf9e6523bef7c,2025-03-12_02h36.41.487,Tarea de decisión léxica,2024.2.5,Win32,59.17159763,,,,,,,,,,,,,,,,,,,,,,,,286.0796,286.8922,l,1,0.1479,1,286.896,287.3923,,,,,,454,FEM,NOWORD,AGR,150,pafia,,la,,0.1479,,287.3926,287.3934,-0.016447368,-0.387609649,0,0,0,,0,138,138,453,1,mafia,,,,
,,,,,,6075e94a6bed1dc64e9d34c7,676192165fb32c2e1fb7aee6,67d155978fddf9e6523bef7c,2025-03-12_02h36.41.487,Tarea de decisión léxica,2024.2.5,Win32,59.17159763,,,,,,,,,,,,,,,,,,,,,,,,287.398,288.4436,l,1,0.3684,1,288.4441,288.9439,,,,,,290,FEM,NOWORD,AGR,150,bumpa,,la,,0.3684,,288.9441,288.9451,-0.016447368,-0.387609649,0,0,0,,0,139,139,289,1,bomba,,,,
,,,,,,6075e94a6bed1dc64e9d34c7,676192165fb32c2e1fb7aee6,67d155978fddf9e6523bef7c,2025-03-12_02h36.41.487,Tarea de decisión léxica,2024.2.5,Win32,59.17159763,,,,,,,,,,,,,,,,,,,,,,,,288.9493,289.7772,a,1,0.1552,1,289.7776,290.2776,,,,,,97,MAS,WORD,DIS,150,mono,,la,,0.1552,,290.2778,290.2785,-0.016447368,-0.387609649,0,0,0,,0,140,140,96,1,fopo,,,,
,,,,,,6075e94a6bed1dc64e9d34c7,676192165fb32c2e1fb7aee6,67d155978fddf9e6523bef7c,2025-03-12_02h36.41.487,Tarea de decisión léxica,2024.2.5,Win32,59.17159763,,,,,,,,,,,,,,,,,,,,,,,,290.2833,291.1544,l,1,0.2002,1,291.1546,291.6446,,,,,,182,FEM,NOWORD,AGR,150,teda,,la,,0.2002,,291.6487,291.6501,-0.016447368,-0.387609649,0,0,0,,0,141,141,181,1,seda,,,,
,,,,,,6075e94a6bed1dc64e9d34c7,676192165fb32c2e1fb7aee6,67d155978fddf9e6523bef7c,2025-03-12_02h36.41.487,Tarea de decisión léxica,2024.2.5,Win32,59.17159763,,,,,,,,,,,,,,,,,,,,,,,,291.6516,292.8623,a,1,0.5375,1,292.8628,293.3699,,,,,,87,MAS,WORD,DIS,150,vaso,,la,,0.5375,,293.3702,293.3706,-0.016447368,-0.387609649,0,0,0,,0,142,142,86,1,damo,,,,
,,,,,,6075e94a6bed1dc64e9d34c7,676192165fb32c2e1fb7aee6,67d155978fddf9e6523bef7c,2025-03-12_02h36.41.487,Tarea de decisión léxica,2024.2.5,Win32,59.17159763,,,,,,,,,,,,,,,,,,,,,,,,293.3737,294.6064,a,0,0.5666,0,294.6087,295.0975,,,,,,312,MAS,NOWORD,DIS,150,nosor,,la,,0.5666,,295.0976,295.0984,-0.016447368,-0.387609649,0,0,0,,0,143,143,311,1,honor,,,,
,,,,,,6075e94a6bed1dc64e9d34c7,676192165fb32c2e1fb7aee6,67d155978fddf9e6523bef7c,2025-03-12_02h36.41.487,Tarea de decisión léxica,2024.2.5,Win32,59.17159763,,,,,,,,,,,,,,,,,,,,,,,,295.1027,296.3432,l,1,0.5683,1,296.3462,296.8322,,,,,,472,FEM,NOWORD,DIS,150,prana,,el,,0.5683,,296.8328,296.8339,-0.016447368,-0.387609649,0,0,0,,0,144,144,471,1,grasa,,,,
,,,,,,6075e94a6bed1dc64e9d34c7,676192165fb32c2e1fb7aee6,67d155978fddf9e6523bef7c,2025-03-12_02h36.41.487,Tarea de decisión léxica,2024.2.5,Win32,59.17159763,,,,,,,,,,,,,,,,,,,,,,,,296.839,297.826,l,0,0.3161,0,297.8292,298.3161,,,,,,477,MAS,WORD,DIS,150,botón,,la,,0.3161,,298.3163,298.3169,-0.016447368,-0.387609649,0,0,0,,0,145,145,476,1,hocon,,,,
,,,,,,6075e94a6bed1dc64e9d34c7,676192165fb32c2e1fb7aee6,67d155978fddf9e6523bef7c,2025-03-12_02h36.41.487,Tarea de decisión léxica,2024.2.5,Win32,59.17159763,,,,,,,,,,,,,,,,,,,,,,,,298.3215,299.3938,l,1,0.3998,1,299.3965,299.8839,,,,,,202,FEM,NOWORD,AGR,150,cusa,,la,,0.3998,,299.8885,299.892,-0.016447368,-0.387609649,0,0,0,,0,146,146,201,1,cuna,,,,
,,,,,,6075e94a6bed1dc64e9d34c7,676192165fb32c2e1fb7aee6,67d155978fddf9e6523bef7c,2025-03-12_02h36.41.487,Tarea de decisión léxica,2024.2.5,Win32,59.17159763,,,,,,,,,,,,,,,,,,,,,,,,299.8952,300.709,a,0,0.1494,0,300.7107,301.2018,,,,,,10,MAS,NOWORD,AGR,150,sibo,,el,,0.1494,,301.2022,301.2034,-0.016447368,-0.387609649,0,0,0,,0,147,147,9,1,tipo,,,,
,,,,,,6075e94a6bed1dc64e9d34c7,676192165fb32c2e1fb7aee6,67d155978fddf9e6523bef7c,2025-03-12_02h36.41.487,Tarea de decisión léxica,2024.2.5,Win32,59.17159763,,,,,,,,,,,,,,,,,,,,,,,,301.2077,302.2193,l,0,0.3385,0,302.2197,302.7195,,,,,,137,MAS,WORD,AGR,150,nene,,el,,0.3385,,302.7197,302.7206,-0.016447368,-0.387609649,0,0,0,,0,148,148,136,1,pamo,,,,
,,,,,,6075e94a6bed1dc64e9d34c7,676192165fb32c2e1fb7aee6,67d155978fddf9e6523bef7c,2025-03-12_02h36.41.487,Tarea de decisión léxica,2024.2.5,Win32,59.17159763,,,,,,,,,,,,,,,,,,,,,,,,302.7255,303.5949,l,0,0.196,0,303.5951,304.087,,,,,,41,FEM,WORD,DIS,150,nave,,el,,0.196,,304.0873,304.0878,-0.016447368,-0.387609649,0,0,0,,0,149,149,40,1,haje,,,,
,,,,,,6075e94a6bed1dc64e9d34c7,676192165fb32c2e1fb7aee6,67d155978fddf9e6523bef7c,2025-03-12_02h36.41.487,Tarea de decisión léxica,2024.2.5,Win32,59.17159763,,,,,,,,,,,,,,,,,,,,,,,,304.0925,305.0716,a,1,0.3035,1,305.0743,305.5717,,,,,,403,FEM,WORD,AGR,150,prima,,la,,0.3035,,305.5721,305.5725,-0.016447368,-0.387609649,0,0,0,,0,150,150,402,1,grisa,,,,
,,,,,,6075e94a6bed1dc64e9d34c7,676192165fb32c2e1fb7aee6,67d155978fddf9e6523bef7c,2025-03-12_02h36.41.487,Tarea de decisión léxica,2024.2.5,Win32,59.17159763,,,,,,,,,,,,,,,,,,,,,,,,305.5767,306.5993,a,0,0.3506,0,306.6015,307.0888,,,,,,214,FEM,NOWORD,AGR,150,bana,,la,,0.3506,,307.0933,307.0969,-0.016447368,-0.387609649,0,0,0,,0,151,151,213,1,rama,,,,
,,,,,,6075e94a6bed1dc64e9d34c7,676192165fb32c2e1fb7aee6,67d155978fddf9e6523bef7c,2025-03-12_02h36.41.487,Tarea de decisión léxica,2024.2.5,Win32,59.17159763,,,,,,,,,,,,,,,,,,,,,,,,307.0996,307.927,a,0,0.1607,0,307.9272,308.4237,,,,,,122,MAS,NOWORD,AGR,150,bomo,,el,,0.1607,,308.424,308.4247,-0.016447368,-0.387609649,0,0,0,,0,152,152,121,1,hoyo,,,,
,,,,,,6075e94a6bed1dc64e9d34c7,676192165fb32c2e1fb7aee6,67d155978fddf9e6523bef7c,2025-03-12_02h36.41.487,Tarea de decisión léxica,2024.2.5,Win32,59.17159763,,,,,,,,,,,,,,,,,,,,,,,,308.4306,309.2573,l,0,0.1597,0,309.2576,309.7575,,,,,,207,MAS,WORD,DIS,150,kilo,,la,,0.1597,,309.7577,309.7583,-0.016447368,-0.387609649,0,0,0,,0,153,153,206,1,kedo,,,,
,,,,,,6075e94a6bed1dc64e9d34c7,676192165fb32c2e1fb7aee6,67d155978fddf9e6523bef7c,2025-03-12_02h36.41.487,Tarea de decisión léxica,2024.2.5,Win32,59.17159763,,,,,,,,,,,,,,,,,,,,,,,,309.7626,310.5249,a,1,0.086,1,310.5286,311.0253,,,,,,169,MAS,WORD,AGR,150,cubo,,el,,0.086,,311.0254,311.0263,-0.016447368,-0.387609649,0,0,0,,0,154,154,168,1,mibo,,,,
,,,,,,6075e94a6bed1dc64e9d34c7,676192165fb32c2e1fb7aee6,67d155978fddf9e6523bef7c,2025-03-12_02h36.41.487,Tarea de decisión léxica,2024.2.5,Win32,59.17159763,,,,,,,,,,,,,,,,,,,,,,,,311.0317,311.8589,l,0,0.1566,0,311.8635,312.3527,,,,,,203,FEM,WORD,AGR,150,leña,,la,,0.1566,,312.3566,312.3599,-0.016447368,-0.387609649,0,0,0,,0,155,155,202,1,beja,,,,
,,,,,,6075e94a6bed1dc64e9d34c7,676192165fb32c2e1fb7aee6,67d155978fddf9e6523bef7c,2025-03-12_02h36.41.487,Tarea de decisión léxica,2024.2.5,Win32,59.17159763,,,,,,,,,,,,,,,,,,,,,,,,312.3632,313.1538,a,0,0.1262,0,313.1541,313.6443,,,,,,82,FEM,NOWORD,AGR,150,vasa,,la,,0.1262,,313.6444,313.6453,-0.016447368,-0.387609649,0,0,0,,0,156,156,81,1,dama,,,,
,,,,,,6075e94a6bed1dc64e9d34c7,676192165fb32c2e1fb7aee6,67d155978fddf9e6523bef7c,2025-03-12_02h36.41.487,Tarea de decisión léxica,2024.2.5,Win32,59.17159763,,,,,,,,,,,,,,,,,,,,,,,,313.6495,315.2938,a,1,0.9816,1,315.2965,315.7951,,,,,,149,MAS,WORD,AGR,150,cabo,,el,,0.9816,,315.7953,315.7961,-0.016447368,-0.387609649,0,0,0,,0,157,157,148,1,pafo,,,,
,,,,,,6075e94a6bed1dc64e9d34c7,676192165fb32c2e1fb7aee6,67d155978fddf9e6523bef7c,2025-03-12_02h36.41.487,Tarea de decisión léxica,2024.2.5,Win32,59.17159763,,,,,,,,,,,,,,,,,,,,,,,,315.8002,316.6892,a,0,0.2176,0,316.6918,317.1793,,,,,,110,MAS,NOWORD,AGR,150,suno,,el,,0.2176,,317.1794,317.1801,-0.016447368,-0.387609649,0,0,0,,0,158,158,109,1,rayo,,,,
,,,,,,6075e94a6bed1dc64e9d34c7,676192165fb32c2e1fb7aee6,67d155978fddf9e6523bef7c,2025-03-12_02h36.41.487,Tarea de decisión léxica,2024.2.5,Win32,59.17159763,,,,,,,,,,,,,,,,,,,,,,,,317.1848,318.0213,l,1,0.1644,1,318.0243,318.5143,,,,,,226,MAS,NOWORD,AGR,150,boco,,el,,0.1644,,318.5145,318.515,-0.016447368,-0.387609649,0,0,0,,0,159,159,225,1,lodo,,,,
,,,,,,6075e94a6bed1dc64e9d34c7,676192165fb32c2e1fb7aee6,67d155978fddf9e6523bef7c,2025-03-12_02h36.41.487,Tarea de decisión léxica,2024.2.5,Win32,59.17159763,,,,,,,,,,,,,,,,,,,,,,,,318.5198,319.4557,l,1,0.2547,1,319.456,319.9473,,,,,,138,MAS,NOWORD,AGR,150,pamo,,el,,0.2547,,319.9501,328.7194,0.013157895,-0.367872807,0,0,0,space,0,160,160,137,1,nene,8.7108,0.0005,,
,,,,,,6075e94a6bed1dc64e9d34c7,676192165fb32c2e1fb7aee6,67d155978fddf9e6523bef7c,2025-03-12_02h36.41.487,Tarea de decisión léxica,2024.2.5,Win32,59.17159763,,,,,,,,,,,,,,,,,,,,,,,,328.721,329.5408,l,1,0.1638,1,329.5411,330.0371,,,,,,362,FEM,NOWORD,AGR,150,solle,,la,,0.1638,,330.0372,330.0375,0.013157895,-0.367872807,0,0,0,,0,161,161,361,1,torre,,,,
,,,,,,6075e94a6bed1dc64e9d34c7,676192165fb32c2e1fb7aee6,67d155978fddf9e6523bef7c,2025-03-12_02h36.41.487,Tarea de decisión léxica,2024.2.5,Win32,59.17159763,,,,,,,,,,,,,,,,,,,,,,,,330.0395,331.1086,l,0,0.4097,0,331.1116,331.6058,,,,,,373,FEM,WORD,AGR,150,pizza,,la,,0.4097,,331.6061,331.6069,0.013157895,-0.367872807,0,0,0,,0,162,162,372,1,pogza,,,,
,,,,,,6075e94a6bed1dc64e9d34c7,676192165fb32c2e1fb7aee6,67d155978fddf9e6523bef7c,2025-03-12_02h36.41.487,Tarea de decisión léxica,2024.2.5,Win32,59.17159763,,,,,,,,,,,,,,,,,,,,,,,,331.6117,332.991,a,1,0.7089,1,332.9931,333.4908,,,,,,387,FEM,WORD,AGR,150,crema,,la,,0.7089,,333.4911,333.4921,0.013157895,-0.367872807,0,0,0,,0,163,163,386,1,bresa,,,,
,,,,,,6075e94a6bed1dc64e9d34c7,676192165fb32c2e1fb7aee6,67d155978fddf9e6523bef7c,2025-03-12_02h36.41.487,Tarea de decisión léxica,2024.2.5,Win32,59.17159763,,,,,,,,,,,,,,,,,,,,,,,,333.4968,334.4078,a,0,0.2399,0,334.4118,334.9083,,,,,,320,MAS,NOWORD,DIS,150,tuero,,la,,0.2399,,334.9087,334.9099,0.013157895,-0.367872807,0,0,0,,0,164,164,319,1,suelo,,,,
,,,,,,6075e94a6bed1dc64e9d34c7,676192165fb32c2e1fb7aee6,67d155978fddf9e6523bef7c,2025-03-12_02h36.41.487,Tarea de decisión léxica,2024.2.5,Win32,59.17159763,,,,,,,,,,,,,,,,,,,,,,,,334.9139,335.8107,l,1,0.2235,1,335.8134,336.3094,,,,,,406,FEM,NOWORD,AGR,150,rarra,,la,,0.2235,,336.3154,336.318,0.013157895,-0.367872807,0,0,0,,0,165,165,405,1,barra,,,,
,,,,,,6075e94a6bed1dc64e9d34c7,676192165fb32c2e1fb7aee6,67d155978fddf9e6523bef7c,2025-03-12_02h36.41.487,Tarea de decisión léxica,2024.2.5,Win32,59.17159763,,,,,,,,,,,,,,,,,,,,,,,,336.3209,337.1373,a,1,0.1512,1,337.1375,337.6268,,,,,,131,FEM,WORD,AGR,150,mina,,la,,0.1512,,337.627,337.6283,0.013157895,-0.367872807,0,0,0,,0,166,166,130,1,fada,,,,
,,,,,,6075e94a6bed1dc64e9d34c7,676192165fb32c2e1fb7aee6,67d155978fddf9e6523bef7c,2025-03-12_02h36.41.487,Tarea de decisión léxica,2024.2.5,Win32,59.17159763,,,,,,,,,,,,,,,,,,,,,,,,337.6332,338.6373,a,0,0.3335,0,338.64,339.1278,,,,,,14,FEM,NOWORD,AGR,150,nola,,la,,0.3335,,339.1279,339.1285,0.013157895,-0.367872807,0,0,0,,0,167,167,13,1,hora,,,,
,,,,,,6075e94a6bed1dc64e9d34c7,676192165fb32c2e1fb7aee6,67d155978fddf9e6523bef7c,2025-03-12_02h36.41.487,Tarea de decisión léxica,2024.2.5,Win32,59.17159763,,,,,,,,,,,,,,,,,,,,,,,,339.133,340.0391,l,1,0.2334,1,340.0415,340.5288,,,,,,260,MAS,NOWORD,DIS,150,jaumo,,la,,0.2334,,340.5291,340.5297,0.013157895,-0.367872807,0,0,0,,0,168,168,259,1,juego,,,,
,,,,,,6075e94a6bed1dc64e9d34c7,676192165fb32c2e1fb7aee6,67d155978fddf9e6523bef7c,2025-03-12_02h36.41.487,Tarea de decisión léxica,2024.2.5,Win32,59.17159763,,,,,,,,,,,,,,,,,,,,,,,,340.5338,341.4462,l,1,0.2411,1,341.4466,341.9461,,,,,,8,MAS,NOWORD,DIS,150,nivo,,la,,0.2411,,341.9464,341.9471,0.013157895,-0.367872807,0,0,0,,0,169,169,7,1,hijo,,,,
,,,,,,6075e94a6bed1dc64e9d34c7,676192165fb32c2e1fb7aee6,67d155978fddf9e6523bef7c,2025-03-12_02h36.41.487,Tarea de decisión léxica,2024.2.5,Win32,59.17159763,,,,,,,,,,,,,,,,,,,,,,,,341.9513,343.0431,l,1,0.421,1,343.0432,343.5474,,,,,,56,MAS,NOWORD,DIS,150,jado,,la,,0.421,,343.5527,343.5547,0.013157895,-0.367872807,0,0,0,,0,170,170,55,1,gato,,,,
,,,,,,6075e94a6bed1dc64e9d34c7,676192165fb32c2e1fb7aee6,67d155978fddf9e6523bef7c,2025-03-12_02h36.41.487,Tarea de decisión léxica,2024.2.5,Win32,59.17159763,,,,,,,,,,,,,,,,,,,,,,,,343.5572,344.5019,a,0,0.274,0,344.5045,344.9985,,,,,,234,FEM,NOWORD,AGR,150,fasa,,la,,0.274,,344.9988,344.9996,0.013157895,-0.367872807,0,0,0,,0,171,171,233,1,lana,,,,
,,,,,,6075e94a6bed1dc64e9d34c7,676192165fb32c2e1fb7aee6,67d155978fddf9e6523bef7c,2025-03-12_02h36.41.487,Tarea de decisión léxica,2024.2.5,Win32,59.17159763,,,,,,,,,,,,,,,,,,,,,,,,345.0042,345.8493,l,0,0.1845,0,345.8498,346.3495,,,,,,371,FEM,WORD,DIS,150,pasta,,el,,0.1845,,346.3497,346.3505,0.013157895,-0.367872807,0,0,0,,0,172,172,370,1,mosta,,,,
,,,,,,6075e94a6bed1dc64e9d34c7,676192165fb32c2e1fb7aee6,67d155978fddf9e6523bef7c,2025-03-12_02h36.41.487,Tarea de decisión léxica,2024.2.5,Win32,59.17159763,,,,,,,,,,,,,,,,,,,,,,,,346.3551,347.3768,l,1,0.3499,1,347.3793,347.8678,,,,,,160,MAS,NOWORD,DIS,150,bilo,,la,,0.3499,,347.8681,347.8687,0.013157895,-0.367872807,0,0,0,,0,173,173,159,1,giro,,,,
,,,,,,6075e94a6bed1dc64e9d34c7,676192165fb32c2e1fb7aee6,67d155978fddf9e6523bef7c,2025-03-12_02h36.41.487,Tarea de decisión léxica,2024.2.5,Win32,59.17159763,,,,,,,,,,,,,,,,,,,,,,,,347.8726,348.6348,a,1,0.0762,1,348.6353,349.1352,,,,,,433,MAS,WORD,DIS,150,disco,,la,,0.0762,,349.1353,349.1357,0.013157895,-0.367872807,0,0,0,,0,174,174,432,1,durco,,,,
,,,,,,6075e94a6bed1dc64e9d34c7,676192165fb32c2e1fb7aee6,67d155978fddf9e6523bef7c,2025-03-12_02h36.41.487,Tarea de decisión léxica,2024.2.5,Win32,59.17159763,,,,,,,,,,,,,,,,,,,,,,,,349.14,349.9857,l,0,0.1686,0,349.9881,350.4855,,,,,,123,FEM,WORD,DIS,150,flor,,el,,0.1686,,350.4905,350.4926,0.013157895,-0.367872807,0,0,0,,0,175,175,122,1,maba,,,,
,,,,,,6075e94a6bed1dc64e9d34c7,676192165fb32c2e1fb7aee6,67d155978fddf9e6523bef7c,2025-03-12_02h36.41.487,Tarea de decisión léxica,2024.2.5,Win32,59.17159763,,,,,,,,,,,,,,,,,,,,,,,,350.4951,351.3867,l,0,0.2205,0,351.387,351.8873,,,,,,5,FEM,WORD,DIS,150,cosa,,el,,0.2205,,351.8875,351.8878,0.013157895,-0.367872807,0,0,0,,0,176,176,4,1,poga,,,,
,,,,,,6075e94a6bed1dc64e9d34c7,676192165fb32c2e1fb7aee6,67d155978fddf9e6523bef7c,2025-03-12_02h36.41.487,Tarea de decisión léxica,2024.2.5,Win32,59.17159763,,,,,,,,,,,,,,,,,,,,,,,,351.8918,352.7547,a,1,0.176,1,352.7577,353.2541,,,,,,257,FEM,WORD,AGR,150,amiga,,la,,0.176,,353.2545,353.2558,0.013157895,-0.367872807,0,0,0,,0,177,177,256,1,asama,,,,
,,,,,,6075e94a6bed1dc64e9d34c7,676192165fb32c2e1fb7aee6,67d155978fddf9e6523bef7c,2025-03-12_02h36.41.487,Tarea de decisión léxica,2024.2.5,Win32,59.17159763,,,,,,,,,,,,,,,,,,,,,,,,353.2609,354.1051,a,1,0.1688,1,354.1056,354.6063,,,,,,441,FEM,WORD,DIS,150,selva,,el,,0.1688,,354.6067,354.6075,0.013157895,-0.367872807,0,0,0,,0,178,178,440,1,telza,,,,
,,,,,,6075e94a6bed1dc64e9d34c7,676192165fb32c2e1fb7aee6,67d155978fddf9e6523bef7c,2025-03-12_02h36.41.487,Tarea de decisión léxica,2024.2.5,Win32,59.17159763,,,,,,,,,,,,,,,,,,,,,,,,354.6121,355.4659,a,0,0.1813,0,355.4683,355.9558,,,,,,434,MAS,NOWORD,AGR,150,durco,,el,,0.1813,,355.9612,355.9647,0.013157895,-0.367872807,0,0,0,,0,179,179,433,1,disco,,,,
,,,,,,6075e94a6bed1dc64e9d34c7,676192165fb32c2e1fb7aee6,67d155978fddf9e6523bef7c,2025-03-12_02h36.41.487,Tarea de decisión léxica,2024.2.5,Win32,59.17159763,,,,,,,,,,,,,,,,,,,,,,,,355.9678,356.712,a,1,0.0781,1,356.7144,357.2069,,,,,,353,FEM,WORD,DIS,150,celda,,el,,0.0781,,357.2072,357.2081,0.013157895,-0.367872807,0,0,0,,0,180,180,352,1,cezca,,,,
,,,,,,6075e94a6bed1dc64e9d34c7,676192165fb32c2e1fb7aee6,67d155978fddf9e6523bef7c,2025-03-12_02h36.41.487,Tarea de decisión léxica,2024.2.5,Win32,59.17159763,,,,,,,,,,,,,,,,,,,,,,,,357.2128,358.0072,l,0,0.1194,0,358.0105,358.5078,,,,,,173,FEM,WORD,AGR,150,rosa,,la,,0.1194,,358.5081,358.5094,0.013157895,-0.367872807,0,0,0,,0,181,181,172,1,boma,,,,
,,,,,,6075e94a6bed1dc64e9d34c7,676192165fb32c2e1fb7aee6,67d155978fddf9e6523bef7c,2025-03-12_02h36.41.487,Tarea de decisión léxica,2024.2.5,Win32,59.17159763,,,,,,,,,,,,,,,,,,,,,,,,358.5135,359.1915,a,0,0.0025,0,359.1919,359.6923,,,,,,246,FEM,NOWORD,AGR,150,pafle,,la,,0.0025,,359.6925,359.6934,0.013157895,-0.367872807,0,0,0,,0,182,182,245,1,madre,,,,
,,,,,,6075e94a6bed1dc64e9d34c7,676192165fb32c2e1fb7aee6,67d155978fddf9e6523bef7c,2025-03-12_02h36.41.487,Tarea de decisión léxica,2024.2.5,Win32,59.17159763,,,,,,,,,,,,,,,,,,,,,,,,359.6975,360.5925,l,0,0.2207,0,360.5928,361.0932,,,,,,77,MAS,WORD,DIS,150,loco,,la,,0.2207,,361.0935,361.0943,0.013157895,-0.367872807,0,0,0,,0,183,183,76,1,fodo,,,,
,,,,,,6075e94a6bed1dc64e9d34c7,676192165fb32c2e1fb7aee6,67d155978fddf9e6523bef7c,2025-03-12_02h36.41.487,Tarea de decisión léxica,2024.2.5,Win32,59.17159763,,,,,,,,,,,,,,,,,,,,,,,,361.0984,361.9525,a,0,0.1844,0,361.9527,362.4441,,,,,,274,FEM,NOWORD,AGR,150,frosa,,la,,0.1844,,362.4488,362.4509,0.013157895,-0.367872807,0,0,0,,0,184,184,273,1,broma,,,,
,,,,,,6075e94a6bed1dc64e9d34c7,676192165fb32c2e1fb7aee6,67d155978fddf9e6523bef7c,2025-03-12_02h36.41.487,Tarea de decisión léxica,2024.2.5,Win32,59.17159763,,,,,,,,,,,,,,,,,,,,,,,,362.4534,363.178,l,0,0.0531,0,363.1784,363.6781,,,,,,361,FEM,WORD,AGR,150,torre,,la,,0.0531,,363.6783,363.6794,0.013157895,-0.367872807,0,0,0,,0,185,185,360,1,solle,,,,
,,,,,,6075e94a6bed1dc64e9d34c7,676192165fb32c2e1fb7aee6,67d155978fddf9e6523bef7c,2025-03-12_02h36.41.487,Tarea de decisión léxica,2024.2.5,Win32,59.17159763,,,,,,,,,,,,,,,,,,,,,,,,363.6837,364.5288,a,0,0.1586,0,364.5293,365.0321,,,,,,116,FEM,NOWORD,DIS,150,haca,,el,,0.1586,,365.0323,365.0325,0.013157895,-0.367872807,0,0,0,,0,186,186,115,1,pata,,,,
,,,,,,6075e94a6bed1dc64e9d34c7,676192165fb32c2e1fb7aee6,67d155978fddf9e6523bef7c,2025-03-12_02h36.41.487,Tarea de decisión léxica,2024.2.5,Win32,59.17159763,,,,,,,,,,,,,,,,,,,,,,,,365.0338,367.4203,a,1,1.7067,1,367.4223,367.9144,,,,,,335,FEM,WORD,DIS,150,costa,,el,,1.7067,,367.9147,367.9153,0.013157895,-0.367872807,0,0,0,,0,187,187,334,1,pesta,,,,
,,,,,,6075e94a6bed1dc64e9d34c7,676192165fb32c2e1fb7aee6,67d155978fddf9e6523bef7c,2025-03-12_02h36.41.487,Tarea de decisión léxica,2024.2.5,Win32,59.17159763,,,,,,,,,,,,,,,,,,,,,,,,367.9192,368.7806,l,0,0.189,0,368.7833,369.2823,,,,,,447,MAS,WORD,DIS,150,bolso,,la,,0.189,,369.2827,369.2836,0.013157895,-0.367872807,0,0,0,,0,188,188,446,1,buaso,,,,
,,,,,,6075e94a6bed1dc64e9d34c7,676192165fb32c2e1fb7aee6,67d155978fddf9e6523bef7c,2025-03-12_02h36.41.487,Tarea de decisión léxica,2024.2.5,Win32,59.17159763,,,,,,,,,,,,,,,,,,,,,,,,369.2882,370.2994,l,0,0.3376,0,370.3,370.7997,,,,,,55,MAS,WORD,AGR,150,gato,,el,,0.3376,,370.8059,370.8085,0.013157895,-0.367872807,0,0,0,,0,189,189,54,1,jado,,,,
,,,,,,6075e94a6bed1dc64e9d34c7,676192165fb32c2e1fb7aee6,67d155978fddf9e6523bef7c,2025-03-12_02h36.41.487,Tarea de decisión léxica,2024.2.5,Win32,59.17159763,,,,,,,,,,,,,,,,,,,,,,,,370.8115,371.6911,l,0,0.2063,0,371.6912,372.1838,,,,,,395,FEM,WORD,AGR,150,caída,,la,,0.2063,,372.184,372.185,0.013157895,-0.367872807,0,0,0,,0,190,190,394,1,paeda,,,,
,,,,,,6075e94a6bed1dc64e9d34c7,676192165fb32c2e1fb7aee6,67d155978fddf9e6523bef7c,2025-03-12_02h36.41.487,Tarea de decisión léxica,2024.2.5,Win32,59.17159763,,,,,,,,,,,,,,,,,,,,,,,,372.1892,372.9107,a,1,0.0521,1,372.9132,373.4002,,,,,,415,FEM,WORD,AGR,150,jaula,,la,,0.0521,,373.4002,373.4003,0.013157895,-0.367872807,0,0,0,,0,191,191,414,1,juira,,,,
,,,,,,6075e94a6bed1dc64e9d34c7,676192165fb32c2e1fb7aee6,67d155978fddf9e6523bef7c,2025-03-12_02h36.41.487,Tarea de decisión léxica,2024.2.5,Win32,59.17159763,,,,,,,,,,,,,,,,,,,,,,,,373.4017,374.1184,a,1,0.056,1,374.1187,374.619,,,,,,443,MAS,WORD,DIS,150,salón,,la,,0.056,,374.6192,374.6197,0.013157895,-0.367872807,0,0,0,,0,192,192,442,1,taron,,,,
,,,,,,6075e94a6bed1dc64e9d34c7,676192165fb32c2e1fb7aee6,67d155978fddf9e6523bef7c,2025-03-12_02h36.41.487,Tarea de decisión léxica,2024.2.5,Win32,59.17159763,,,,,,,,,,,,,,,,,,,,,,,,374.6234,375.4348,a,1,0.1423,1,375.4349,375.9359,,,,,,291,FEM,WORD,AGR,150,pista,,la,,0.1423,,375.9361,375.9363,0.013157895,-0.367872807,0,0,0,,0,193,193,290,1,mesta,,,,
,,,,,,6075e94a6bed1dc64e9d34c7,676192165fb32c2e1fb7aee6,67d155978fddf9e6523bef7c,2025-03-12_02h36.41.487,Tarea de decisión léxica,2024.2.5,Win32,59.17159763,,,,,,,,,,,,,,,,,,,,,,,,375.939,377.0379,a,1,0.4195,1,377.0383,377.5375,,,,,,287,FEM,WORD,AGR,150,lista,,la,,0.4195,,377.5432,377.5457,0.013157895,-0.367872807,0,0,0,,0,194,194,286,1,fosta,,,,
,,,,,,6075e94a6bed1dc64e9d34c7,676192165fb32c2e1fb7aee6,67d155978fddf9e6523bef7c,2025-03-12_02h36.41.487,Tarea de decisión léxica,2024.2.5,Win32,59.17159763,,,,,,,,,,,,,,,,,,,,,,,,377.5484,378.4881,a,1,0.2713,1,378.4883,378.9879,,,,,,439,FEM,WORD,AGR,150,presa,,la,,0.2713,,378.988,378.9885,0.013157895,-0.367872807,0,0,0,,0,195,195,438,1,prema,,,,
,,,,,,6075e94a6bed1dc64e9d34c7,676192165fb32c2e1fb7aee6,67d155978fddf9e6523bef7c,2025-03-12_02h36.41.487,Tarea de decisión léxica,2024.2.5,Win32,59.17159763,,,,,,,,,,,,,,,,,,,,,,,,378.9918,379.8385,a,1,0.1687,1,379.8388,380.3397,,,,,,467,MAS,WORD,DIS,150,piano,,la,,0.1687,,380.3399,380.3409,0.013157895,-0.367872807,0,0,0,,0,196,196,466,1,peiso,,,,
,,,,,,6075e94a6bed1dc64e9d34c7,676192165fb32c2e1fb7aee6,67d155978fddf9e6523bef7c,2025-03-12_02h36.41.487,Tarea de decisión léxica,2024.2.5,Win32,59.17159763,,,,,,,,,,,,,,,,,,,,,,,,380.3451,381.2334,a,0,0.2169,0,381.2361,381.7238,,,,,,38,MAS,NOWORD,AGR,150,gaco,,el,,0.2169,,381.724,381.7246,0.013157895,-0.367872807,0,0,0,,0,197,197,37,1,rato,,,,
,,,,,,6075e94a6bed1dc64e9d34c7,676192165fb32c2e1fb7aee6,67d155978fddf9e6523bef7c,2025-03-12_02h36.41.487,Tarea de decisión léxica,2024.2.5,Win32,59.17159763,,,,,,,,,,,,,,,,,,,,,,,,381.7287,382.4913,l,1,0.0871,1,382.4952,382.9918,,,,,,114,FEM,NOWORD,AGR,150,tada,,la,,0.0871,,382.992,382.9928,0.013157895,-0.367872807,0,0,0,,0,198,198,113,1,miel,,,,
,,,,,,6075e94a6bed1dc64e9d34c7,676192165fb32c2e1fb7aee6,67d155978fddf9e6523bef7c,2025-03-12_02h36.41.487,Tarea de decisión léxica,2024.2.5,Win32,59.17159763,,,,,,,,,,,,,,,,,,,,,,,,382.9968,383.8522,l,0,0.1844,0,383.8546,384.3426,,,,,,59,FEM,WORD,DIS,150,sala,,el,,0.1844,,384.3478,384.3505,0.013157895,-0.367872807,0,0,0,,0,199,199,58,1,tafa,,,,
,,,,,,6075e94a6bed1dc64e9d34c7,676192165fb32c2e1fb7aee6,67d155978fddf9e6523bef7c,2025-03-12_02h36.41.487,Tarea de decisión léxica,2024.2.5,Win32,59.17159763,,,,,,,,,,,,,,,,,,,,,,,,384.3535,385.2269,a,0,0.195,0,385.2279,385.7264,,,,,,318,FEM,NOWORD,AGR,150,plaad,,la,,0.195,,385.7266,385.7278,0.013157895,-0.367872807,0,0,0,,0,200,200,317,1,playa,,,,
,,,,,,6075e94a6bed1dc64e9d34c7,676192165fb32c2e1fb7aee6,67d155978fddf9e6523bef7c,2025-03-12_02h36.41.487,Tarea de decisión léxica,2024.2.5,Win32,59.17159763,,,,,,,,,,,,,,,,,,,,,,,,385.7324,386.4527,l,0,0.0484,0,386.4529,386.9442,,,,,,293,MAS,WORD,DIS,150,campo,,la,,0.0484,,386.9445,386.9457,0.013157895,-0.367872807,0,0,0,,0,201,201,292,1,cacso,,,,
,,,,,,6075e94a6bed1dc64e9d34c7,676192165fb32c2e1fb7aee6,67d155978fddf9e6523bef7c,2025-03-12_02h36.41.487,Tarea de decisión léxica,2024.2.5,Win32,59.17159763,,,,,,,,,,,,,,,,,,,,,,,,386.9495,387.6881,l,0,0.0522,0,387.6884,388.1783,,,,,,161,MAS,WORD,DIS,150,coro,,la,,0.0522,,388.1787,388.1797,0.013157895,-0.367872807,0,0,0,,0,202,202,160,1,bopo,,,,
,,,,,,6075e94a6bed1dc64e9d34c7,676192165fb32c2e1fb7aee6,67d155978fddf9e6523bef7c,2025-03-12_02h36.41.487,Tarea de decisión léxica,2024.2.5,Win32,59.17159763,,,,,,,,,,,,,,,,,,,,,,,,388.1841,389.2554,a,1,0.4017,1,389.2579,389.7458,,,,,,357,FEM,WORD,DIS,150,bruja,,el,,0.4017,,389.751,389.754,0.013157895,-0.367872807,0,0,0,,0,203,203,356,1,gruba,,,,
,,,,,,6075e94a6bed1dc64e9d34c7,676192165fb32c2e1fb7aee6,67d155978fddf9e6523bef7c,2025-03-12_02h36.41.487,Tarea de decisión léxica,2024.2.5,Win32,59.17159763,,,,,,,,,,,,,,,,,,,,,,,,389.7571,390.4726,a,0,0.0494,0,390.4751,390.9634,,,,,,186,MAS,NOWORD,AGR,150,raol,,el,,0.0494,,390.9636,390.9644,0.013157895,-0.367872807,0,0,0,,0,204,204,185,1,baúl,,,,
,,,,,,6075e94a6bed1dc64e9d34c7,676192165fb32c2e1fb7aee6,67d155978fddf9e6523bef7c,2025-03-12_02h36.41.487,Tarea de decisión léxica,2024.2.5,Win32,59.17159763,,,,,,,,,,,,,,,,,,,,,,,,390.9683,391.8703,a,0,0.2313,0,391.8704,392.3643,,,,,,464,FEM,NOWORD,DIS,150,matla,,el,,0.2313,,392.3647,392.3653,0.013157895,-0.367872807,0,0,0,,0,205,205,463,1,cabra,,,,
,,,,,,6075e94a6bed1dc64e9d34c7,676192165fb32c2e1fb7aee6,67d155978fddf9e6523bef7c,2025-03-12_02h36.41.487,Tarea de decisión léxica,2024.2.5,Win32,59.17159763,,,,,,,,,,,,,,,,,,,,,,,,392.3688,393.065,l,1,0.0221,1,393.0681,393.5654,,,,,,336,FEM,NOWORD,DIS,150,pesta,,el,,0.0221,,393.5658,393.5667,0.013157895,-0.367872807,0,0,0,,0,206,206,335,1,costa,,,,
,,,,,,6075e94a6bed1dc64e9d34c7,676192165fb32c2e1fb7aee6,67d155978fddf9e6523bef7c,2025-03-12_02h36.41.487,Tarea de decisión léxica,2024.2.5,Win32,59.17159763,,,,,,,,,,,,,,,,,,,,,,,,393.5713,394.7428,a,1,0.4992,1,394.743,395.2342,,,,,,457,MAS,WORD,DIS,150,plato,,la,,0.4992,,395.2344,395.2352,0.013157895,-0.367872807,0,0,0,,0,207,207,456,1,glaco,,,,
,,,,,,6075e94a6bed1dc64e9d34c7,676192165fb32c2e1fb7aee6,67d155978fddf9e6523bef7c,2025-03-12_02h36.41.487,Tarea de decisión léxica,2024.2.5,Win32,59.17159763,,,,,,,,,,,,,,,,,,,,,,,,395.2396,396.3713,a,0,0.4609,0,396.3735,396.8725,,,,,,344,FEM,NOWORD,DIS,150,trada,,el,,0.4609,,396.8775,396.8798,0.013157895,-0.367872807,0,0,0,,0,208,208,343,1,plata,,,,
,,,,,,6075e94a6bed1dc64e9d34c7,676192165fb32c2e1fb7aee6,67d155978fddf9e6523bef7c,2025-03-12_02h36.41.487,Tarea de decisión léxica,2024.2.5,Win32,59.17159763,,,,,,,,,,,,,,,,,,,,,,,,396.8838,398.0185,a,1,0.4701,1,398.0225,398.5191,,,,,,355,FEM,WORD,AGR,150,regla,,la,,0.4701,,398.5195,398.5204,0.013157895,-0.367872807,0,0,0,,0,209,209,354,1,bepla,,,,
,,,,,,6075e94a6bed1dc64e9d34c7,676192165fb32c2e1fb7aee6,67d155978fddf9e6523bef7c,2025-03-12_02h36.41.487,Tarea de decisión léxica,2024.2.5,Win32,59.17159763,,,,,,,,,,,,,,,,,,,,,,,,398.5242,399.4595,l,0,0.2649,0,399.4612,399.9519,,,,,,237,MAS,WORD,DIS,150,nudo,,la,,0.2649,,399.952,399.9524,0.013157895,-0.367872807,0,0,0,,0,210,210,236,1,huco,,,,
,,,,,,6075e94a6bed1dc64e9d34c7,676192165fb32c2e1fb7aee6,67d155978fddf9e6523bef7c,2025-03-12_02h36.41.487,Tarea de decisión léxica,2024.2.5,Win32,59.17159763,,,,,,,,,,,,,,,,,,,,,,,,399.9553,401.2871,l,1,0.6582,1,401.2908,401.7877,,,,,,352,MAS,NOWORD,DIS,150,duepo,,la,,0.6582,,401.7882,401.7892,0.013157895,-0.367872807,0,0,0,,0,211,211,351,1,vuelo,,,,
,,,,,,6075e94a6bed1dc64e9d34c7,676192165fb32c2e1fb7aee6,67d155978fddf9e6523bef7c,2025-03-12_02h36.41.487,Tarea de decisión léxica,2024.2.5,Win32,59.17159763,,,,,,,,,,,,,,,,,,,,,,,,401.7935,402.7659,a,0,0.3007,0,402.7682,403.2555,,,,,,40,MAS,NOWORD,DIS,150,redo,,la,,0.3007,,403.2558,403.2562,0.013157895,-0.367872807,0,0,0,,0,212,212,39,1,voto,,,,
,,,,,,6075e94a6bed1dc64e9d34c7,676192165fb32c2e1fb7aee6,67d155978fddf9e6523bef7c,2025-03-12_02h36.41.487,Tarea de decisión léxica,2024.2.5,Win32,59.17159763,,,,,,,,,,,,,,,,,,,,,,,,403.2603,404.0826,l,0,0.1589,0,404.0828,404.5728,,,,,,333,FEM,WORD,AGR,150,tarea,,la,,0.1589,,404.5785,404.5808,0.013157895,-0.367872807,0,0,0,,0,213,213,332,1,dalea,,,,
,,,,,,6075e94a6bed1dc64e9d34c7,676192165fb32c2e1fb7aee6,67d155978fddf9e6523bef7c,2025-03-12_02h36.41.487,Tarea de decisión léxica,2024.2.5,Win32,59.17159763,,,,,,,,,,,,,,,,,,,,,,,,404.5838,405.4804,l,0,0.231,0,405.4806,405.9745,,,,,,325,FEM,WORD,DIS,150,magia,,el,,0.231,,405.9748,405.9757,0.013157895,-0.367872807,0,0,0,,0,214,214,324,1,mabia,,,,
,,,,,,6075e94a6bed1dc64e9d34c7,676192165fb32c2e1fb7aee6,67d155978fddf9e6523bef7c,2025-03-12_02h36.41.487,Tarea de decisión léxica,2024.2.5,Win32,59.17159763,,,,,,,,,,,,,,,,,,,,,,,,405.9799,406.7605,a,1,0.0966,1,406.7628,407.2581,,,,,,155,FEM,WORD,AGR,150,fuga,,la,,0.0966,,407.2583,407.2596,0.013157895,-0.367872807,0,0,0,,0,215,215,154,1,luma,,,,
,,,,,,6075e94a6bed1dc64e9d34c7,676192165fb32c2e1fb7aee6,67d155978fddf9e6523bef7c,2025-03-12_02h36.41.487,Tarea de decisión léxica,2024.2.5,Win32,59.17159763,,,,,,,,,,,,,,,,,,,,,,,,407.265,408.1753,a,1,0.2483,1,408.1757,408.6759,,,,,,231,FEM,WORD,AGR,150,bota,,la,,0.2483,,408.6765,408.6775,0.013157895,-0.367872807,0,0,0,,0,216,216,230,1,heta,,,,
,,,,,,6075e94a6bed1dc64e9d34c7,676192165fb32c2e1fb7aee6,67d155978fddf9e6523bef7c,2025-03-12_02h36.41.487,Tarea de decisión léxica,2024.2.5,Win32,59.17159763,,,,,,,,,,,,,,,,,,,,,,,,408.6824,409.5431,a,0,0.1957,0,409.547,410.0437,,,,,,62,FEM,NOWORD,AGR,150,efla,,la,,0.1957,,410.0439,410.0448,0.013157895,-0.367872807,0,0,0,,0,217,217,61,1,obra,,,,
,,,,,,6075e94a6bed1dc64e9d34c7,676192165fb32c2e1fb7aee6,67d155978fddf9e6523bef7c,2025-03-12_02h36.41.487,Tarea de decisión léxica,2024.2.5,Win32,59.17159763,,,,,,,,,,,,,,,,,,,,,,,,410.0494,410.9963,l,1,0.2741,1,410.9996,411.4945,,,,,,340,MAS,NOWORD,DIS,150,plajo,,la,,0.2741,,411.4987,411.5008,0.013157895,-0.367872807,0,0,0,,0,218,218,339,1,brazo,,,,
,,,,,,6075e94a6bed1dc64e9d34c7,676192165fb32c2e1fb7aee6,67d155978fddf9e6523bef7c,2025-03-12_02h36.41.487,Tarea de decisión léxica,2024.2.5,Win32,59.17159763,,,,,,,,,,,,,,,,,,,,,,,,411.5031,412.3138,l,1,0.1422,1,412.314,412.8117,,,,,,86,MAS,NOWORD,AGR,150,babo,,el,,0.1422,,412.8119,412.8126,0.013157895,-0.367872807,0,0,0,,0,219,219,85,1,lago,,,,
,,,,,,6075e94a6bed1dc64e9d34c7,676192165fb32c2e1fb7aee6,67d155978fddf9e6523bef7c,2025-03-12_02h36.41.487,Tarea de decisión léxica,2024.2.5,Win32,59.17159763,,,,,,,,,,,,,,,,,,,,,,,,412.8166,413.6956,l,0,0.2025,0,413.6995,414.1965,,,,,,143,MAS,WORD,AGR,150,pavo,,el,,0.2025,,414.1967,414.1977,0.013157895,-0.367872807,0,0,0,,0,220,220,142,1,pezo,,,,
,,,,,,6075e94a6bed1dc64e9d34c7,676192165fb32c2e1fb7aee6,67d155978fddf9e6523bef7c,2025-03-12_02h36.41.487,Tarea de decisión léxica,2024.2.5,Win32,59.17159763,,,,,,,,,,,,,,,,,,,,,,,,414.2016,415.0138,a,0,0.1379,0,415.0142,415.5142,,,,,,332,MAS,NOWORD,DIS,150,erato,,la,,0.1379,,415.5145,415.5154,0.013157895,-0.367872807,0,0,0,,0,221,221,331,1,éxito,,,,
,,,,,,6075e94a6bed1dc64e9d34c7,676192165fb32c2e1fb7aee6,67d155978fddf9e6523bef7c,2025-03-12_02h36.41.487,Tarea de decisión léxica,2024.2.5,Win32,59.17159763,,,,,,,,,,,,,,,,,,,,,,,,415.5196,416.2647,l,1,0.0686,1,416.2688,416.7648,,,,,,258,FEM,NOWORD,AGR,150,asama,,la,,0.0686,,416.7651,416.766,0.013157895,-0.367872807,0,0,0,,0,222,222,257,1,amiga,,,,
,,,,,,6075e94a6bed1dc64e9d34c7,676192165fb32c2e1fb7aee6,67d155978fddf9e6523bef7c,2025-03-12_02h36.41.487,Tarea de decisión léxica,2024.2.5,Win32,59.17159763,,,,,,,,,,,,,,,,,,,,,,,,416.7703,417.7644,a,0,0.3161,0,417.7674,418.2657,,,,,,108,MAS,NOWORD,DIS,150,raot,,la,,0.3161,,418.2712,418.2735,0.013157895,-0.367872807,0,0,0,,0,223,223,107,1,saco,,,,
,,,,,,6075e94a6bed1dc64e9d34c7,676192165fb32c2e1fb7aee6,67d155978fddf9e6523bef7c,2025-03-12_02h36.41.487,Tarea de decisión léxica,2024.2.5,Win32,59.17159763,,,,,,,,,,,,,,,,,,,,,,,,418.2784,419.1257,l,0,0.1851,0,419.126,419.6167,,,,,,99,MAS,WORD,AGR,150,lobo,,el,,0.1851,,419.617,419.6178,0.013157895,-0.367872807,0,0,0,,0,224,224,98,1,soro,,,,
,,,,,,6075e94a6bed1dc64e9d34c7,676192165fb32c2e1fb7aee6,67d155978fddf9e6523bef7c,2025-03-12_02h36.41.487,Tarea de decisión léxica,2024.2.5,Win32,59.17159763,,,,,,,,,,,,,,,,,,,,,,,,419.6217,420.4342,a,1,0.1355,1,420.4381,420.9344,,,,,,133,FEM,WORD,DIS,150,vaca,,el,,0.1355,,420.9347,420.9355,0.013157895,-0.367872807,0,0,0,,0,225,225,132,1,vesa,,,,
,,,,,,6075e94a6bed1dc64e9d34c7,676192165fb32c2e1fb7aee6,67d155978fddf9e6523bef7c,2025-03-12_02h36.41.487,Tarea de decisión léxica,2024.2.5,Win32,59.17159763,,,,,,,,,,,,,,,,,,,,,,,,420.9401,421.7518,a,1,0.1391,1,421.7523,422.2521,,,,,,295,MAS,WORD,AGR,150,dolor,,el,,0.1391,,422.2523,422.2532,0.013157895,-0.367872807,0,0,0,,0,226,226,294,1,goler,,,,
,,,,,,6075e94a6bed1dc64e9d34c7,676192165fb32c2e1fb7aee6,67d155978fddf9e6523bef7c,2025-03-12_02h36.41.487,Tarea de decisión léxica,2024.2.5,Win32,59.17159763,,,,,,,,,,,,,,,,,,,,,,,,422.2574,423.1123,a,0,0.1838,0,423.1151,423.6031,,,,,,120,MAS,NOWORD,DIS,150,hooy,,la,,0.1838,,423.6087,423.6122,0.013157895,-0.367872807,0,0,0,,0,227,227,119,1,pozo,,,,
,,,,,,6075e94a6bed1dc64e9d34c7,676192165fb32c2e1fb7aee6,67d155978fddf9e6523bef7c,2025-03-12_02h36.41.487,Tarea de decisión léxica,2024.2.5,Win32,59.17159763,,,,,,,,,,,,,,,,,,,,,,,,423.6149,424.3866,l,1,0.0939,1,424.3907,424.8773,,,,,,268,MAS,NOWORD,DIS,150,figro,,la,,0.0939,,424.8775,424.878,0.013157895,-0.367872807,0,0,0,,0,228,228,267,1,libro,,,,
,,,,,,6075e94a6bed1dc64e9d34c7,676192165fb32c2e1fb7aee6,67d155978fddf9e6523bef7c,2025-03-12_02h36.41.487,Tarea de decisión léxica,2024.2.5,Win32,59.17159763,,,,,,,,,,,,,,,,,,,,,,,,424.8823,425.7377,l,1,0.1879,1,425.7381,426.2378,,,,,,278,MAS,NOWORD,AGR,150,vuemo,,el,,0.1879,,426.2381,426.239,0.013157895,-0.367872807,0,0,0,,0,229,229,277,1,fuego,,,,
,,,,,,6075e94a6bed1dc64e9d34c7,676192165fb32c2e1fb7aee6,67d155978fddf9e6523bef7c,2025-03-12_02h36.41.487,Tarea de decisión léxica,2024.2.5,Win32,59.17159763,,,,,,,,,,,,,,,,,,,,,,,,426.2434,427.0884,l,0,0.1842,0,427.0922,427.5889,,,,,,157,MAS,WORD,DIS,150,nido,,la,,0.1842,,427.5891,427.5901,0.013157895,-0.367872807,0,0,0,,0,230,230,156,1,hico,,,,
,,,,,,6075e94a6bed1dc64e9d34c7,676192165fb32c2e1fb7aee6,67d155978fddf9e6523bef7c,2025-03-12_02h36.41.487,Tarea de decisión léxica,2024.2.5,Win32,59.17159763,,,,,,,,,,,,,,,,,,,,,,,,427.5942,428.3672,a,0,0.1017,0,428.3674,428.8562,,,,,,436,MAS,NOWORD,DIS,150,ricno,,la,,0.1017,,428.8564,428.8573,0.013157895,-0.367872807,0,0,0,,0,231,231,435,1,ritmo,,,,
,,,,,,6075e94a6bed1dc64e9d34c7,676192165fb32c2e1fb7aee6,67d155978fddf9e6523bef7c,2025-03-12_02h36.41.487,Tarea de decisión léxica,2024.2.5,Win32,59.17159763,,,,,,,,,,,,,,,,,,,,,,,,428.8622,429.557,l,0,0.0226,0,429.5574,430.0571,,,,,,31,FEM,WORD,DIS,150,ropa,,el,,0.0226,,430.0633,430.0659,0.013157895,-0.367872807,0,0,0,,0,232,232,30,1,bova,,,,
,,,,,,6075e94a6bed1dc64e9d34c7,676192165fb32c2e1fb7aee6,67d155978fddf9e6523bef7c,2025-03-12_02h36.41.487,Tarea de decisión léxica,2024.2.5,Win32,59.17159763,,,,,,,,,,,,,,,,,,,,,,,,430.0687,430.8772,a,1,0.1416,1,430.8802,431.3749,,,,,,121,MAS,WORD,DIS,150,hoyo,,la,,0.1416,,431.3752,431.3761,0.013157895,-0.367872807,0,0,0,,0,233,233,120,1,bomo,,,,
,,,,,,6075e94a6bed1dc64e9d34c7,676192165fb32c2e1fb7aee6,67d155978fddf9e6523bef7c,2025-03-12_02h36.41.487,Tarea de decisión léxica,2024.2.5,Win32,59.17159763,,,,,,,,,,,,,,,,,,,,,,,,431.3805,432.3818,a,1,0.3295,1,432.3822,432.8756,,,,,,129,MAS,WORD,AGR,150,oído,,el,,0.3295,,432.8758,432.8768,0.013157895,-0.367872807,0,0,0,,0,234,234,128,1,pima,,,,
,,,,,,6075e94a6bed1dc64e9d34c7,676192165fb32c2e1fb7aee6,67d155978fddf9e6523bef7c,2025-03-12_02h36.41.487,Tarea de decisión léxica,2024.2.5,Win32,59.17159763,,,,,,,,,,,,,,,,,,,,,,,,432.881,433.7934,a,0,0.2377,0,433.7976,434.3023,,,,,,22,MAS,NOWORD,AGR,150,blan,,el,,0.2377,,434.3025,434.303,0.013157895,-0.367872807,0,0,0,,0,235,235,21,1,plan,,,,
,,,,,,6075e94a6bed1dc64e9d34c7,676192165fb32c2e1fb7aee6,67d155978fddf9e6523bef7c,2025-03-12_02h36.41.487,Tarea de decisión léxica,2024.2.5,Win32,59.17159763,,,,,,,,,,,,,,,,,,,,,,,,434.3072,435.1446,a,0,0.1704,0,435.1455,435.6446,,,,,,250,FEM,NOWORD,AGR,150,plane,,la,,0.1704,,435.6451,435.6463,0.013157895,-0.367872807,0,0,0,,0,236,236,249,1,clase,,,,
,,,,,,6075e94a6bed1dc64e9d34c7,676192165fb32c2e1fb7aee6,67d155978fddf9e6523bef7c,2025-03-12_02h36.41.487,Tarea de decisión léxica,2024.2.5,Win32,59.17159763,,,,,,,,,,,,,,,,,,,,,,,,435.6508,437.2551,l,1,0.9345,1,437.2572,437.7453,,,,,,222,FEM,NOWORD,AGR,150,puca,,la,,0.9345,,437.7503,437.7524,0.013157895,-0.367872807,0,0,0,,0,237,237,221,1,mula,,,,
,,,,,,6075e94a6bed1dc64e9d34c7,676192165fb32c2e1fb7aee6,67d155978fddf9e6523bef7c,2025-03-12_02h36.41.487,Tarea de decisión léxica,2024.2.5,Win32,59.17159763,,,,,,,,,,,,,,,,,,,,,,,,437.755,438.4873,l,0,0.0672,0,438.4895,438.9799,,,,,,419,MAS,WORD,DIS,150,truco,,la,,0.0672,,438.9802,438.9811,0.013157895,-0.367872807,0,0,0,,0,238,238,418,1,chudo,,,,
,,,,,,6075e94a6bed1dc64e9d34c7,676192165fb32c2e1fb7aee6,67d155978fddf9e6523bef7c,2025-03-12_02h36.41.487,Tarea de decisión léxica,2024.2.5,Win32,59.17159763,,,,,,,,,,,,,,,,,,,,,,,,438.9858,439.8072,a,0,0.151,0,439.8074,440.2974,,,,,,368,MAS,NOWORD,DIS,150,rerob,,la,,0.151,,440.2975,440.2984,0.013157895,-0.367872807,0,0,0,,0,239,239,367,1,reloj,,,,
,,,,,,6075e94a6bed1dc64e9d34c7,676192165fb32c2e1fb7aee6,67d155978fddf9e6523bef7c,2025-03-12_02h36.41.487,Tarea de decisión léxica,2024.2.5,Win32,59.17159763,,,,,,,,,,,,,,,,,,,,,,,,440.3036,440.9979,l,1,0.0154,1,441.0021,441.498,,,,,,78,MAS,NOWORD,AGR,150,fodo,,el,,0.0154,,441.4982,441.4991,0.013157895,-0.367872807,0,0,0,,0,240,240,77,1,loco,,,,
,,,,,,6075e94a6bed1dc64e9d34c7,676192165fb32c2e1fb7aee6,67d155978fddf9e6523bef7c,2025-03-12_02h36.41.487,Tarea de decisión léxica,2024.2.5,Win32,59.17159763,,,,,,,,,,,,,,,,,,,,,,,,441.5035,442.3493,l,0,0.1594,0,442.3534,442.8566,,,,,,35,MAS,WORD,AGR,150,pelo,,el,,0.1594,,442.8569,442.8572,0.013157895,-0.367872807,0,0,0,,0,241,241,34,1,meno,,,,
,,,,,,6075e94a6bed1dc64e9d34c7,676192165fb32c2e1fb7aee6,67d155978fddf9e6523bef7c,2025-03-12_02h36.41.487,Tarea de decisión léxica,2024.2.5,Win32,59.17159763,,,,,,,,,,,,,,,,,,,,,,,,442.8604,443.5833,a,0,0.0566,0,443.5837,444.0837,,,,,,408,FEM,NOWORD,DIS,150,cauba,,el,,0.0566,,444.0896,444.0919,0.013157895,-0.367872807,0,0,0,,0,242,242,407,1,cueva,,,,
,,,,,,6075e94a6bed1dc64e9d34c7,676192165fb32c2e1fb7aee6,67d155978fddf9e6523bef7c,2025-03-12_02h36.41.487,Tarea de decisión léxica,2024.2.5,Win32,59.17159763,,,,,,,,,,,,,,,,,,,,,,,,444.095,444.8169,l,1,0.0582,1,444.8203,445.3169,,,,,,248,FEM,NOWORD,DIS,150,trida,,el,,0.0582,,445.3172,445.3178,0.013157895,-0.367872807,0,0,0,,0,243,243,247,1,chica,,,,
,,,,,,6075e94a6bed1dc64e9d34c7,676192165fb32c2e1fb7aee6,67d155978fddf9e6523bef7c,2025-03-12_02h36.41.487,Tarea de decisión léxica,2024.2.5,Win32,59.17159763,,,,,,,,,,,,,,,,,,,,,,,,445.3216,446.1607,l,1,0.1666,1,446.161,446.6518,,,,,,188,MAS,NOWORD,DIS,150,suto,,la,,0.1666,,446.6521,446.6529,0.013157895,-0.367872807,0,0,0,,0,244,244,187,1,mito,,,,
,,,,,,6075e94a6bed1dc64e9d34c7,676192165fb32c2e1fb7aee6,67d155978fddf9e6523bef7c,2025-03-12_02h36.41.487,Tarea de decisión léxica,2024.2.5,Win32,59.17159763,,,,,,,,,,,,,,,,,,,,,,,,446.6575,447.4365,l,0,0.1073,0,447.4401,447.9359,,,,,,29,MAS,WORD,DIS,150,modo,,la,,0.1073,,447.9361,447.9369,0.013157895,-0.367872807,0,0,0,,0,245,245,28,1,pono,,,,
,,,,,,6075e94a6bed1dc64e9d34c7,676192165fb32c2e1fb7aee6,67d155978fddf9e6523bef7c,2025-03-12_02h36.41.487,Tarea de decisión léxica,2024.2.5,Win32,59.17159763,,,,,,,,,,,,,,,,,,,,,,,,447.9416,449.8236,a,0,1.1987,0,449.8238,450.3212,,,,,,164,FEM,NOWORD,DIS,150,laga,,el,,1.1987,,450.3216,450.3224,0.013157895,-0.367872807,0,0,0,,0,246,246,163,1,fama,,,,
,,,,,,6075e94a6bed1dc64e9d34c7,676192165fb32c2e1fb7aee6,67d155978fddf9e6523bef7c,2025-03-12_02h36.41.487,Tarea de decisión léxica,2024.2.5,Win32,59.17159763,,,,,,,,,,,,,,,,,,,,,,,,450.3271,451.2487,a,1,0.2429,1,451.2511,451.7381,,,,,,475,FEM,WORD,AGR,150,manta,,la,,0.2429,,451.7415,451.7438,0.013157895,-0.367872807,0,0,0,,0,247,247,474,1,mucta,,,,
,,,,,,6075e94a6bed1dc64e9d34c7,676192165fb32c2e1fb7aee6,67d155978fddf9e6523bef7c,2025-03-12_02h36.41.487,Tarea de decisión léxica,2024.2.5,Win32,59.17159763,,,,,,,,,,,,,,,,,,,,,,,,451.7456,452.5225,l,0,0.1046,0,452.5252,453.0227,,,,,,199,MAS,WORD,AGR,150,lazo,,el,,0.1046,,453.0231,453.0238,0.013157895,-0.367872807,0,0,0,,0,248,248,198,1,fano,,,,
,,,,,,6075e94a6bed1dc64e9d34c7,676192165fb32c2e1fb7aee6,67d155978fddf9e6523bef7c,2025-03-12_02h36.41.487,Tarea de decisión léxica,2024.2.5,Win32,59.17159763,,,,,,,,,,,,,,,,,,,,,,,,453.0276,453.7903,a,0,0.0865,0,453.7907,454.2902,,,,,,304,MAS,NOWORD,DIS,150,lanco,,la,,0.0865,,454.2903,454.2911,0.013157895,-0.367872807,0,0,0,,0,249,249,303,1,barco,,,,
,,,,,,6075e94a6bed1dc64e9d34c7,676192165fb32c2e1fb7aee6,67d155978fddf9e6523bef7c,2025-03-12_02h36.41.487,Tarea de decisión léxica,2024.2.5,Win32,59.17159763,,,,,,,,,,,,,,,,,,,,,,,,454.2954,454.9937,l,1,0.0269,1,454.9959,455.4914,,,,,,158,MAS,NOWORD,AGR,150,hico,,el,,0.0269,,455.4916,455.4923,0.013157895,-0.367872807,0,0,0,,0,250,250,157,1,nido,,,,
,,,,,,6075e94a6bed1dc64e9d34c7,676192165fb32c2e1fb7aee6,67d155978fddf9e6523bef7c,2025-03-12_02h36.41.487,Tarea de decisión léxica,2024.2.5,Win32,59.17159763,,,,,,,,,,,,,,,,,,,,,,,,455.4962,456.3417,l,0,0.1729,0,456.3453,456.8424,,,,,,177,MAS,WORD,AGR,150,reto,,el,,0.1729,,456.8475,456.8494,0.013157895,-0.367872807,0,0,0,,0,251,251,176,1,bito,,,,
,,,,,,6075e94a6bed1dc64e9d34c7,676192165fb32c2e1fb7aee6,67d155978fddf9e6523bef7c,2025-03-12_02h36.41.487,Tarea de decisión léxica,2024.2.5,Win32,59.17159763,,,,,,,,,,,,,,,,,,,,,,,,456.852,457.6943,l,0,0.1746,0,457.6947,458.1929,,,,,,451,FEM,WORD,DIS,150,fruta,,el,,0.1746,,458.193,458.1937,0.013157895,-0.367872807,0,0,0,,0,252,252,450,1,clita,,,,
,,,,,,6075e94a6bed1dc64e9d34c7,676192165fb32c2e1fb7aee6,67d155978fddf9e6523bef7c,2025-03-12_02h36.41.487,Tarea de decisión léxica,2024.2.5,Win32,59.17159763,,,,,,,,,,,,,,,,,,,,,,,,458.198,459.0093,a,0,0.1354,0,459.0096,459.5103,,,,,,364,FEM,NOWORD,DIS,150,veida,,el,,0.1354,,459.5105,459.5111,0.013157895,-0.367872807,0,0,0,,0,253,253,363,1,deuda,,,,
,,,,,,6075e94a6bed1dc64e9d34c7,676192165fb32c2e1fb7aee6,67d155978fddf9e6523bef7c,2025-03-12_02h36.41.487,Tarea de decisión léxica,2024.2.5,Win32,59.17159763,,,,,,,,,,,,,,,,,,,,,,,,459.5149,460.2051,a,1,0.0021,1,460.2074,460.694,,,,,,425,FEM,WORD,AGR,150,viuda,,la,,0.0021,,460.6941,460.6945,0.013157895,-0.367872807,0,0,0,,0,254,254,424,1,virca,,,,
,,,,,,6075e94a6bed1dc64e9d34c7,676192165fb32c2e1fb7aee6,67d155978fddf9e6523bef7c,2025-03-12_02h36.41.487,Tarea de decisión léxica,2024.2.5,Win32,59.17159763,,,,,,,,,,,,,,,,,,,,,,,,460.6971,462.363,a,0,0.999,0,462.3672,462.8631,,,,,,288,FEM,NOWORD,DIS,150,fosta,,el,,0.999,,462.8632,462.8646,0.013157895,-0.367872807,0,0,0,,0,255,255,287,1,lista,,,,
,,,,,,6075e94a6bed1dc64e9d34c7,676192165fb32c2e1fb7aee6,67d155978fddf9e6523bef7c,2025-03-12_02h36.41.487,Tarea de decisión léxica,2024.2.5,Win32,59.17159763,,,,,,,,,,,,,,,,,,,,,,,,462.8684,463.7136,a,0,0.1666,0,463.7143,464.2127,,,,,,162,MAS,NOWORD,AGR,150,bopo,,el,,0.1666,,464.2157,464.2165,0.013157895,-0.367872807,0,0,0,,0,256,256,161,1,coro,,,,
,,,,,,6075e94a6bed1dc64e9d34c7,676192165fb32c2e1fb7aee6,67d155978fddf9e6523bef7c,2025-03-12_02h36.41.487,Tarea de decisión léxica,2024.2.5,Win32,59.17159763,,,,,,,,,,,,,,,,,,,,,,,,464.2174,465.0648,l,0,0.1701,0,465.0655,465.5554,,,,,,345,FEM,WORD,DIS,150,arena,,el,,0.1701,,465.5555,465.556,0.013157895,-0.367872807,0,0,0,,0,257,257,344,1,anera,,,,
,,,,,,6075e94a6bed1dc64e9d34c7,676192165fb32c2e1fb7aee6,67d155978fddf9e6523bef7c,2025-03-12_02h36.41.487,Tarea de decisión léxica,2024.2.5,Win32,59.17159763,,,,,,,,,,,,,,,,,,,,,,,,465.5592,466.4749,a,0,0.2512,0,466.4751,466.9655,,,,,,32,FEM,NOWORD,DIS,150,bova,,el,,0.2512,,466.9657,466.9666,0.013157895,-0.367872807,0,0,0,,0,258,258,31,1,ropa,,,,
,,,,,,6075e94a6bed1dc64e9d34c7,676192165fb32c2e1fb7aee6,67d155978fddf9e6523bef7c,2025-03-12_02h36.41.487,Tarea de decisión léxica,2024.2.5,Win32,59.17159763,,,,,,,,,,,,,,,,,,,,,,,,466.9701,467.733,a,0,0.0883,0,467.7334,468.2332,,,,,,84,FEM,NOWORD,DIS,150,taga,,el,,0.0883,,468.2334,468.2346,0.013157895,-0.367872807,0,0,0,,0,259,259,83,1,bala,,,,
,,,,,,6075e94a6bed1dc64e9d34c7,676192165fb32c2e1fb7aee6,67d155978fddf9e6523bef7c,2025-03-12_02h36.41.487,Tarea de decisión léxica,2024.2.5,Win32,59.17159763,,,,,,,,,,,,,,,,,,,,,,,,468.2385,469.0175,l,1,0.1015,1,469.0209,469.5176,,,,,,334,FEM,NOWORD,AGR,150,dalea,,la,,0.1015,,469.5177,469.5182,0.013157895,-0.367872807,0,0,0,,0,260,260,333,1,tarea,,,,
,,,,,,6075e94a6bed1dc64e9d34c7,676192165fb32c2e1fb7aee6,67d155978fddf9e6523bef7c,2025-03-12_02h36.41.487,Tarea de decisión léxica,2024.2.5,Win32,59.17159763,,,,,,,,,,,,,,,,,,,,,,,,469.5224,470.5849,l,1,0.3903,1,470.5852,471.0844,,,,,,350,MAS,NOWORD,AGR,150,cosir,,el,,0.3903,,471.0878,471.0887,0.013157895,-0.367872807,0,0,0,,0,261,261,349,1,color,,,,
,,,,,,6075e94a6bed1dc64e9d34c7,676192165fb32c2e1fb7aee6,67d155978fddf9e6523bef7c,2025-03-12_02h36.41.487,Tarea de decisión léxica,2024.2.5,Win32,59.17159763,,,,,,,,,,,,,,,,,,,,,,,,471.0896,471.908,l,0,0.1444,0,471.9108,472.4029,,,,,,277,MAS,WORD,DIS,150,fuego,,la,,0.1444,,472.4032,472.4047,0.013157895,-0.367872807,0,0,0,,0,262,262,276,1,vuemo,,,,
