counterbalancing_condition,consent_prescreening.block_1/gender,consent_prescreening.block_1/age_years,consent_prescreening.block_1/declare_consent,consent_prescreening.block_1/language_disorder,consent_prescreening.block_1/first_language,PROLIFIC_PID,STUDY_ID,SESSION_ID,date,expName,psychopyVersion,OS,frameRate,check_prescreening_answers.started,check_prescreening_answers.stopped,Instructions.started,Instructions.stopped,instr_done_keyboard.keys,instr_done_keyboard.rt,instr_done_keyboard.duration,instr_done_touch.x,instr_done_touch.y,instr_done_touch.leftButton,instr_done_touch.midButton,instr_done_touch.rightButton,instruction_pages.thisRepN,instruction_pages.thisTrialN,instruction_pages.thisN,instruction_pages.thisIndex,instruction_pages.ran,pageN,phase,instruct_text,has_image,instruct_image,presentTrial.started,presentTrial.stopped,response.keys,response.corr,rt,corr,feedback.started,feedback.stopped,practice_trials.thisRepN,practice_trials.thisTrialN,practice_trials.thisN,practice_trials.thisIndex,practice_trials.ran,TrialID,Gender,StimulusType,Condition,PrimeDuration,Prime,len,Flanker,corrAns,response.rt,response.duration,Break.started,Break.stopped,break_done_touch.x,break_done_touch.y,break_done_touch.leftButton,break_done_touch.midButton,break_done_touch.rightButton,break_done_keyboard.keys,experiment_trials.thisRepN,experiment_trials.thisTrialN,experiment_trials.thisN,experiment_trials.thisIndex,experiment_trials.ran,PairedWith,break_done_keyboard.rt,break_done_keyboard.duration,End.started,End.stopped
0,F,40,"[""over_18"",""comfortable"",""read_info"",""consent_given""]","[""none""]","[""spanish""]",60984a1b0cce76d16c4ca781,676192165fb32c2e1fb7aee6,67d15f060b104b8efb4e800f,2025-03-12_11h18.08.031,Tarea de decisión léxica,2024.2.5,Win32,60.24096386,,,,,,,,,,,,,,,,,,,,,,,,,,,,,,,,,,,,,,,,,,,,,,,,,,,,,,,,,,,,,,,,
,,,,,,60984a1b0cce76d16c4ca781,676192165fb32c2e1fb7aee6,67d15f060b104b8efb4e800f,2025-03-12_11h18.08.031,Tarea de decisión léxica,2024.2.5,Win32,60.24096386,13.6345,13.6345,,,,,,,,,,,,,,,,,,,,,,,,,,,,,,,,,,,,,,,,,,,,,,,,,,,,,,,,,,,,,,
,,,,,,60984a1b0cce76d16c4ca781,676192165fb32c2e1fb7aee6,67d15f060b104b8efb4e800f,2025-03-12_11h18.08.031,Tarea de decisión léxica,2024.2.5,Win32,60.24096386,,,13.6558,14.6315,space,0.9283,,-0.094195519,-0.385946985,0,0,0,0,0,0,0,1,1,instructions,"INSTRUCCIONES
Va a realizar una prueba de decisión léxica. Desde el comienzo de la prueba mire siempre al centro de la pantalla. Se presentará una serie de cadenas de letras, una a la vez, en la pantalla. Su tarea consiste en determinar si cada cadena de letras constituye una palabra real en español o una no-palabra (una secuencia de letras que no constituye una palabra real). 

Pulse la tecla ESPACIO para continuar.",0,keyboardresponseNW.png,,,,,,,,,,,,,,,,,,,,,,,,,,,,,,,,,,,,,,,,,,
,,,,,,60984a1b0cce76d16c4ca781,676192165fb32c2e1fb7aee6,67d15f060b104b8efb4e800f,2025-03-12_11h18.08.031,Tarea de decisión léxica,2024.2.5,Win32,60.24096386,,,14.6344,14.9312,space,0.2842,,-0.094195519,-0.385946985,0,0,0,0,1,1,1,1,2,instructions,"El procedimiento es el siguiente: Aparecerán dos barras verticales posicionadas en el centro de la pantalla, separadas por un pequeño espacio.Por favor, enfoque su atención en el espacio entre las barras. Esto preparará sus ojos para la siguiente cadena de letras, que aparecerá entre las dos barras durante un instante.

Pulse la tecla ESPACIO para continuar.",0,keyboardresponseNW.png,,,,,,,,,,,,,,,,,,,,,,,,,,,,,,,,,,,,,,,,,,
,,,,,,60984a1b0cce76d16c4ca781,676192165fb32c2e1fb7aee6,67d15f060b104b8efb4e800f,2025-03-12_11h18.08.031,Tarea de decisión léxica,2024.2.5,Win32,60.24096386,,,14.9332,15.4479,space,0.4461,,-0.094195519,-0.385946985,0,0,0,0,2,2,2,1,3,instructions,"En el teclado de su dispositivo, pulse la tecla ""L"" si la cadena de letras es una palabra real en español (por ejemplo: ""mano"") y la tecla ""A"" si la cadena de letras es una no-palabra (por ejemplo: ""minu"").
Pulse la tecla ESPACIO para continuar.",1,keyboardresponseNW.png,,,,,,,,,,,,,,,,,,,,,,,,,,,,,,,,,,,,,,,,,,
,,,,,,60984a1b0cce76d16c4ca781,676192165fb32c2e1fb7aee6,67d15f060b104b8efb4e800f,2025-03-12_11h18.08.031,Tarea de decisión léxica,2024.2.5,Win32,60.24096386,,,15.4509,17.3312,space,1.8682,,-0.094195519,-0.385946985,0,0,0,0,3,3,3,1,4,instructions,"Es muy importante que responda con la mayor rapidez y precisión posibles. Si no responde dentro de 2 segundos, aparecerá el mensaje ""Muy lento"" y el experimento pasará a la siguiente palabra. Inmediatamente después de su respuesta se indicará si fue correcta o no. Los primeros 15 intentos serán de práctica y habrá dos descansos durante la prueba.

Pulse la tecla ESPACIO  para iniciar la parte de práctica.",0,keyboardresponseNW.png,,,,,,,,,,,,,,,,,,,,,,,,,,,,,,,,,,,,,,,,,,
,,,,,,60984a1b0cce76d16c4ca781,676192165fb32c2e1fb7aee6,67d15f060b104b8efb4e800f,2025-03-12_11h18.08.031,Tarea de decisión léxica,2024.2.5,Win32,60.24096386,,,,,,,,,,,,,,,,,,,,,,,17.3466,19.9982,,0,,-1,19.9985,20.4983,0,0,0,0,1,1001,FEM,NOWORD,AGR,150,croz,4,la,a,,,,,,,,,,,,,,,,,,,,
,,,,,,60984a1b0cce76d16c4ca781,676192165fb32c2e1fb7aee6,67d15f060b104b8efb4e800f,2025-03-12_11h18.08.031,Tarea de decisión léxica,2024.2.5,Win32,60.24096386,,,,,,,,,,,,,,,,,,,,,,,20.5001,21.9813,l,1,0.8088,1,21.9944,22.4814,0,1,1,9,1,1010,MAS,WORD,DIS,150,video,5,la,l,0.8088,,,,,,,,,,,,,,,,,,,
,,,,,,60984a1b0cce76d16c4ca781,676192165fb32c2e1fb7aee6,67d15f060b104b8efb4e800f,2025-03-12_11h18.08.031,Tarea de decisión léxica,2024.2.5,Win32,60.24096386,,,,,,,,,,,,,,,,,,,,,,,22.4825,23.9315,a,1,0.7773,1,23.9315,24.4315,0,2,2,3,1,1004,FEM,NOWORD,AGR,150,bireo,5,la,a,0.7773,,,,,,,,,,,,,,,,,,,
,,,,,,60984a1b0cce76d16c4ca781,676192165fb32c2e1fb7aee6,67d15f060b104b8efb4e800f,2025-03-12_11h18.08.031,Tarea de decisión léxica,2024.2.5,Win32,60.24096386,,,,,,,,,,,,,,,,,,,,,,,24.4324,25.7816,l,1,0.6671,1,25.7817,26.2815,0,3,3,5,1,1006,FEM,WORD,AGR,150,cara,4,la,l,0.6671,,,,,,,,,,,,,,,,,,,
,,,,,,60984a1b0cce76d16c4ca781,676192165fb32c2e1fb7aee6,67d15f060b104b8efb4e800f,2025-03-12_11h18.08.031,Tarea de decisión léxica,2024.2.5,Win32,60.24096386,,,,,,,,,,,,,,,,,,,,,,,26.2828,27.5817,a,1,0.6249,1,27.5818,28.0819,0,4,4,1,1,1002,FEM,NOWORD,DIS,150,mabo,4,el,a,0.6249,,,,,,,,,,,,,,,,,,,
,,,,,,60984a1b0cce76d16c4ca781,676192165fb32c2e1fb7aee6,67d15f060b104b8efb4e800f,2025-03-12_11h18.08.031,Tarea de decisión léxica,2024.2.5,Win32,60.24096386,,,,,,,,,,,,,,,,,,,,,,,28.0831,29.2652,l,1,0.5048,1,29.2653,29.7652,0,5,5,8,1,1009,FEM,WORD,AGR,150,viejo,5,la,l,0.5048,,,,,,,,,,,,,,,,,,,
,,,,,,60984a1b0cce76d16c4ca781,676192165fb32c2e1fb7aee6,67d15f060b104b8efb4e800f,2025-03-12_11h18.08.031,Tarea de decisión léxica,2024.2.5,Win32,60.24096386,,,,,,,,,,,,,,,,,,,,,,,29.7663,30.9151,a,1,0.4774,1,30.9151,31.4152,0,6,6,4,1,1005,MAS,NOWORD,DIS,150,nobad,5,la,a,0.4774,,,,,,,,,,,,,,,,,,,
,,,,,,60984a1b0cce76d16c4ca781,676192165fb32c2e1fb7aee6,67d15f060b104b8efb4e800f,2025-03-12_11h18.08.031,Tarea de decisión léxica,2024.2.5,Win32,60.24096386,,,,,,,,,,,,,,,,,,,,,,,31.4163,32.3986,l,1,0.3078,1,32.3987,32.8985,0,7,7,6,1,1007,MAS,WORD,DIS,150,masa,4,la,l,0.3078,,,,,,,,,,,,,,,,,,,
,,,,,,60984a1b0cce76d16c4ca781,676192165fb32c2e1fb7aee6,67d15f060b104b8efb4e800f,2025-03-12_11h18.08.031,Tarea de decisión léxica,2024.2.5,Win32,60.24096386,,,,,,,,,,,,,,,,,,,,,,,32.8998,33.9487,l,1,0.3679,1,33.9488,34.4486,0,8,8,7,1,1008,MAS,WORD,DIS,150,frío,4,la,l,0.3679,,,,,,,,,,,,,,,,,,,
,,,,,,60984a1b0cce76d16c4ca781,676192165fb32c2e1fb7aee6,67d15f060b104b8efb4e800f,2025-03-12_11h18.08.031,Tarea de decisión léxica,2024.2.5,Win32,60.24096386,,,,,,,,,,,,,,,,,,,,,,,34.4498,35.532,a,1,0.4009,1,35.5321,36.0321,0,9,9,2,1,1003,FEM,NOWORD,DIS,150,muvor,5,el,a,0.4009,,,,,,,,,,,,,,,,,,,
,,,,,,60984a1b0cce76d16c4ca781,676192165fb32c2e1fb7aee6,67d15f060b104b8efb4e800f,2025-03-12_11h18.08.031,Tarea de decisión léxica,2024.2.5,Win32,60.24096386,,,39.7513,41.149,space,1.3655,,-0.094195519,-0.385946985,0,0,0,,,,,,,,,,,41.2043,42.7657,a,0,0.8837,0,42.7668,43.2658,,,,,,307,MAS,WORD,DIS,150,hotel,,la,,0.8837,,43.266,43.2697,-0.094195519,-0.385946985,0,0,0,,0,0,0,306,1,holol,,,,
,,,,,,60984a1b0cce76d16c4ca781,676192165fb32c2e1fb7aee6,67d15f060b104b8efb4e800f,2025-03-12_11h18.08.031,Tarea de decisión léxica,2024.2.5,Win32,60.24096386,,,,,,,,,,,,,,,,,,,,,,,43.2704,44.2825,l,1,0.336,1,44.2833,44.7825,,,,,,147,FEM,WORD,AGR,150,hoja,,la,,0.336,,44.7825,44.7827,-0.094195519,-0.385946985,0,0,0,,0,1,1,146,1,pama,,,,
,,,,,,60984a1b0cce76d16c4ca781,676192165fb32c2e1fb7aee6,67d15f060b104b8efb4e800f,2025-03-12_11h18.08.031,Tarea de decisión léxica,2024.2.5,Win32,60.24096386,,,,,,,,,,,,,,,,,,,,,,,44.7837,45.7661,l,0,0.3002,0,45.7669,46.2659,,,,,,56,MAS,NOWORD,AGR,150,jado,,el,,0.3002,,46.2671,46.2676,-0.094195519,-0.385946985,0,0,0,,0,2,2,55,1,gato,,,,
,,,,,,60984a1b0cce76d16c4ca781,676192165fb32c2e1fb7aee6,67d15f060b104b8efb4e800f,2025-03-12_11h18.08.031,Tarea de decisión léxica,2024.2.5,Win32,60.24096386,,,,,,,,,,,,,,,,,,,,,,,46.2682,47.3327,l,0,0.3836,0,47.3328,47.8327,,,,,,88,MAS,NOWORD,AGR,150,damo,,el,,0.3836,,47.8328,47.8329,-0.094195519,-0.385946985,0,0,0,,0,3,3,87,1,vaso,,,,
,,,,,,60984a1b0cce76d16c4ca781,676192165fb32c2e1fb7aee6,67d15f060b104b8efb4e800f,2025-03-12_11h18.08.031,Tarea de decisión léxica,2024.2.5,Win32,60.24096386,,,,,,,,,,,,,,,,,,,,,,,47.8338,48.8326,l,1,0.3211,1,48.8333,49.3326,,,,,,181,FEM,WORD,DIS,150,seda,,el,,0.3211,,49.3326,49.3328,-0.094195519,-0.385946985,0,0,0,,0,4,4,180,1,teda,,,,
,,,,,,60984a1b0cce76d16c4ca781,676192165fb32c2e1fb7aee6,67d15f060b104b8efb4e800f,2025-03-12_11h18.08.031,Tarea de decisión léxica,2024.2.5,Win32,60.24096386,,,,,,,,,,,,,,,,,,,,,,,49.3339,50.5495,a,1,0.5411,1,50.5495,51.0494,,,,,,358,FEM,NOWORD,DIS,150,gruba,,el,,0.5411,,51.0495,51.0496,-0.094195519,-0.385946985,0,0,0,,0,5,5,357,1,bruja,,,,
,,,,,,60984a1b0cce76d16c4ca781,676192165fb32c2e1fb7aee6,67d15f060b104b8efb4e800f,2025-03-12_11h18.08.031,Tarea de decisión léxica,2024.2.5,Win32,60.24096386,,,,,,,,,,,,,,,,,,,,,,,51.0508,52.2494,a,1,0.5169,1,52.2495,52.7495,,,,,,2,FEM,NOWORD,DIS,150,mada,,el,,0.5169,,52.7496,52.7497,-0.094195519,-0.385946985,0,0,0,,0,6,6,1,1,casa,,,,
,,,,,,60984a1b0cce76d16c4ca781,676192165fb32c2e1fb7aee6,67d15f060b104b8efb4e800f,2025-03-12_11h18.08.031,Tarea de decisión léxica,2024.2.5,Win32,60.24096386,,,,,,,,,,,,,,,,,,,,,,,52.7507,53.8664,a,1,0.4339,1,53.8665,54.3663,,,,,,350,MAS,NOWORD,DIS,150,cosir,,la,,0.4339,,54.3676,54.368,-0.094195519,-0.385946985,0,0,0,,0,7,7,349,1,color,,,,
,,,,,,60984a1b0cce76d16c4ca781,676192165fb32c2e1fb7aee6,67d15f060b104b8efb4e800f,2025-03-12_11h18.08.031,Tarea de decisión léxica,2024.2.5,Win32,60.24096386,,,,,,,,,,,,,,,,,,,,,,,54.3686,55.3497,l,1,0.3072,1,55.3497,55.8495,,,,,,383,FEM,WORD,DIS,150,frase,,el,,0.3072,,55.8496,55.8497,-0.094195519,-0.385946985,0,0,0,,0,8,8,382,1,brame,,,,
,,,,,,60984a1b0cce76d16c4ca781,676192165fb32c2e1fb7aee6,67d15f060b104b8efb4e800f,2025-03-12_11h18.08.031,Tarea de decisión léxica,2024.2.5,Win32,60.24096386,,,,,,,,,,,,,,,,,,,,,,,55.8505,56.9163,a,1,0.3919,1,56.9164,57.4163,,,,,,382,MAS,NOWORD,DIS,150,nusor,,la,,0.3919,,57.4163,57.4165,-0.094195519,-0.385946985,0,0,0,,0,9,9,381,1,humor,,,,
,,,,,,60984a1b0cce76d16c4ca781,676192165fb32c2e1fb7aee6,67d15f060b104b8efb4e800f,2025-03-12_11h18.08.031,Tarea de decisión léxica,2024.2.5,Win32,60.24096386,,,,,,,,,,,,,,,,,,,,,,,57.4178,58.4663,l,1,0.3773,1,58.4664,58.9665,,,,,,317,FEM,WORD,AGR,150,playa,,la,,0.3773,,58.9665,58.9667,-0.094195519,-0.385946985,0,0,0,,0,10,10,316,1,plaad,,,,
,,,,,,60984a1b0cce76d16c4ca781,676192165fb32c2e1fb7aee6,67d15f060b104b8efb4e800f,2025-03-12_11h18.08.031,Tarea de decisión léxica,2024.2.5,Win32,60.24096386,,,,,,,,,,,,,,,,,,,,,,,58.9674,59.9999,a,1,0.3551,1,60,60.4999,,,,,,242,MAS,NOWORD,DIS,150,mirdo,,la,,0.3551,,60.5011,60.5016,-0.094195519,-0.385946985,0,0,0,,0,11,11,241,1,mundo,,,,
,,,,,,60984a1b0cce76d16c4ca781,676192165fb32c2e1fb7aee6,67d15f060b104b8efb4e800f,2025-03-12_11h18.08.031,Tarea de decisión léxica,2024.2.5,Win32,60.24096386,,,,,,,,,,,,,,,,,,,,,,,60.5021,61.6332,a,1,0.4536,1,61.6333,62.1332,,,,,,304,MAS,NOWORD,AGR,150,lanco,,el,,0.4536,,62.1333,62.1333,-0.094195519,-0.385946985,0,0,0,,0,12,12,303,1,barco,,,,
,,,,,,60984a1b0cce76d16c4ca781,676192165fb32c2e1fb7aee6,67d15f060b104b8efb4e800f,2025-03-12_11h18.08.031,Tarea de decisión léxica,2024.2.5,Win32,60.24096386,,,,,,,,,,,,,,,,,,,,,,,62.1343,63.2832,l,1,0.4683,1,63.2834,63.7834,,,,,,55,MAS,WORD,DIS,150,gato,,la,,0.4683,,63.7834,63.7835,-0.094195519,-0.385946985,0,0,0,,0,13,13,54,1,jado,,,,
,,,,,,60984a1b0cce76d16c4ca781,676192165fb32c2e1fb7aee6,67d15f060b104b8efb4e800f,2025-03-12_11h18.08.031,Tarea de decisión léxica,2024.2.5,Win32,60.24096386,,,,,,,,,,,,,,,,,,,,,,,63.7843,64.9167,a,1,0.4582,1,64.9168,65.4168,,,,,,28,MAS,NOWORD,AGR,150,ravo,,el,,0.4582,,65.4169,65.4169,-0.094195519,-0.385946985,0,0,0,,0,14,14,27,1,baño,,,,
,,,,,,60984a1b0cce76d16c4ca781,676192165fb32c2e1fb7aee6,67d15f060b104b8efb4e800f,2025-03-12_11h18.08.031,Tarea de decisión léxica,2024.2.5,Win32,60.24096386,,,,,,,,,,,,,,,,,,,,,,,65.4177,66.5502,a,1,0.4569,1,66.5503,67.0502,,,,,,272,FEM,NOWORD,AGR,150,refal,,la,,0.4569,,67.0503,67.0503,-0.094195519,-0.385946985,0,0,0,,0,15,15,271,1,señal,,,,
,,,,,,60984a1b0cce76d16c4ca781,676192165fb32c2e1fb7aee6,67d15f060b104b8efb4e800f,2025-03-12_11h18.08.031,Tarea de decisión léxica,2024.2.5,Win32,60.24096386,,,,,,,,,,,,,,,,,,,,,,,67.0512,68.1002,a,1,0.3754,1,68.1003,68.6002,,,,,,394,FEM,NOWORD,DIS,150,ashea,,el,,0.3754,,68.6014,68.602,-0.094195519,-0.385946985,0,0,0,,0,16,16,393,1,aldea,,,,
,,,,,,60984a1b0cce76d16c4ca781,676192165fb32c2e1fb7aee6,67d15f060b104b8efb4e800f,2025-03-12_11h18.08.031,Tarea de decisión léxica,2024.2.5,Win32,60.24096386,,,,,,,,,,,,,,,,,,,,,,,68.6027,69.8336,a,1,0.5531,1,69.8338,70.3335,,,,,,240,MAS,NOWORD,AGR,150,poño,,el,,0.5531,,70.3337,70.3338,-0.094195519,-0.385946985,0,0,0,,0,17,17,239,1,mozo,,,,
,,,,,,60984a1b0cce76d16c4ca781,676192165fb32c2e1fb7aee6,67d15f060b104b8efb4e800f,2025-03-12_11h18.08.031,Tarea de decisión léxica,2024.2.5,Win32,60.24096386,,,,,,,,,,,,,,,,,,,,,,,70.3346,71.3837,a,1,0.3717,1,71.3838,71.8838,,,,,,92,FEM,NOWORD,AGR,150,sava,,la,,0.3717,,71.8838,71.8839,-0.094195519,-0.385946985,0,0,0,,0,18,18,91,1,taza,,,,
,,,,,,60984a1b0cce76d16c4ca781,676192165fb32c2e1fb7aee6,67d15f060b104b8efb4e800f,2025-03-12_11h18.08.031,Tarea de decisión léxica,2024.2.5,Win32,60.24096386,,,,,,,,,,,,,,,,,,,,,,,71.8846,73.0171,a,1,0.4537,1,73.0172,73.5171,,,,,,474,FEM,NOWORD,DIS,150,felia,,el,,0.4537,,73.5172,73.5173,-0.094195519,-0.385946985,0,0,0,,0,19,19,473,1,feria,,,,
,,,,,,60984a1b0cce76d16c4ca781,676192165fb32c2e1fb7aee6,67d15f060b104b8efb4e800f,2025-03-12_11h18.08.031,Tarea de decisión léxica,2024.2.5,Win32,60.24096386,,,,,,,,,,,,,,,,,,,,,,,73.5181,74.8006,a,1,0.6043,1,74.8006,75.3005,,,,,,254,MAS,NOWORD,DIS,150,trido,,la,,0.6043,,75.3006,75.3007,-0.094195519,-0.385946985,0,0,0,,0,20,20,253,1,chico,,,,
,,,,,,60984a1b0cce76d16c4ca781,676192165fb32c2e1fb7aee6,67d15f060b104b8efb4e800f,2025-03-12_11h18.08.031,Tarea de decisión léxica,2024.2.5,Win32,60.24096386,,,,,,,,,,,,,,,,,,,,,,,75.3016,76.2006,l,0,0.2211,0,76.2014,76.7006,,,,,,14,FEM,NOWORD,DIS,150,nola,,el,,0.2211,,76.7018,76.7023,-0.094195519,-0.385946985,0,0,0,,0,21,21,13,1,hora,,,,
,,,,,,60984a1b0cce76d16c4ca781,676192165fb32c2e1fb7aee6,67d15f060b104b8efb4e800f,2025-03-12_11h18.08.031,Tarea de decisión léxica,2024.2.5,Win32,60.24096386,,,,,,,,,,,,,,,,,,,,,,,76.7028,77.734,l,1,0.3569,1,77.7348,78.234,,,,,,369,MAS,WORD,AGR,150,ruido,,el,,0.3569,,78.234,78.2342,-0.094195519,-0.385946985,0,0,0,,0,22,22,368,1,rioco,,,,
,,,,,,60984a1b0cce76d16c4ca781,676192165fb32c2e1fb7aee6,67d15f060b104b8efb4e800f,2025-03-12_11h18.08.031,Tarea de decisión léxica,2024.2.5,Win32,60.24096386,,,,,,,,,,,,,,,,,,,,,,,78.235,79.4507,a,1,0.5434,1,79.4508,79.9507,,,,,,156,FEM,NOWORD,AGR,150,luma,,la,,0.5434,,79.9508,79.9509,-0.094195519,-0.385946985,0,0,0,,0,23,23,155,1,fuga,,,,
,,,,,,60984a1b0cce76d16c4ca781,676192165fb32c2e1fb7aee6,67d15f060b104b8efb4e800f,2025-03-12_11h18.08.031,Tarea de decisión léxica,2024.2.5,Win32,60.24096386,,,,,,,,,,,,,,,,,,,,,,,79.9519,81.0174,l,1,0.3865,1,81.0175,81.5174,,,,,,107,MAS,WORD,DIS,150,saco,,la,,0.3865,,81.5175,81.5177,-0.094195519,-0.385946985,0,0,0,,0,24,24,106,1,raot,,,,
,,,,,,60984a1b0cce76d16c4ca781,676192165fb32c2e1fb7aee6,67d15f060b104b8efb4e800f,2025-03-12_11h18.08.031,Tarea de decisión léxica,2024.2.5,Win32,60.24096386,,,,,,,,,,,,,,,,,,,,,,,81.5185,82.6008,a,1,0.4039,1,82.601,83.1009,,,,,,302,FEM,NOWORD,DIS,150,ranga,,el,,0.4039,,83.101,83.101,-0.094195519,-0.385946985,0,0,0,,0,25,25,301,1,banda,,,,
,,,,,,60984a1b0cce76d16c4ca781,676192165fb32c2e1fb7aee6,67d15f060b104b8efb4e800f,2025-03-12_11h18.08.031,Tarea de decisión léxica,2024.2.5,Win32,60.24096386,,,,,,,,,,,,,,,,,,,,,,,83.1019,84.2177,a,1,0.4338,1,84.2178,84.7176,,,,,,480,MAS,NOWORD,AGR,150,rimpo,,el,,0.4338,,84.7189,84.7194,-0.094195519,-0.385946985,0,0,0,,0,26,26,479,1,rumbo,,,,
,,,,,,60984a1b0cce76d16c4ca781,676192165fb32c2e1fb7aee6,67d15f060b104b8efb4e800f,2025-03-12_11h18.08.031,Tarea de decisión léxica,2024.2.5,Win32,60.24096386,,,,,,,,,,,,,,,,,,,,,,,84.72,85.7676,l,1,0.3718,1,85.7678,86.2676,,,,,,231,FEM,WORD,DIS,150,bota,,el,,0.3718,,86.2678,86.2679,-0.094195519,-0.385946985,0,0,0,,0,27,27,230,1,heta,,,,
,,,,,,60984a1b0cce76d16c4ca781,676192165fb32c2e1fb7aee6,67d15f060b104b8efb4e800f,2025-03-12_11h18.08.031,Tarea de decisión léxica,2024.2.5,Win32,60.24096386,,,,,,,,,,,,,,,,,,,,,,,86.2689,87.4344,a,1,0.4857,1,87.4345,87.9344,,,,,,58,MAS,NOWORD,DIS,150,heco,,la,,0.4857,,87.9344,87.9345,-0.094195519,-0.385946985,0,0,0,,0,28,28,57,1,dedo,,,,
,,,,,,60984a1b0cce76d16c4ca781,676192165fb32c2e1fb7aee6,67d15f060b104b8efb4e800f,2025-03-12_11h18.08.031,Tarea de decisión léxica,2024.2.5,Win32,60.24096386,,,,,,,,,,,,,,,,,,,,,,,87.9354,89.0178,l,1,0.4003,1,89.0179,89.5179,,,,,,363,FEM,WORD,AGR,150,deuda,,la,,0.4003,,89.5179,89.518,-0.094195519,-0.385946985,0,0,0,,0,29,29,362,1,veida,,,,
,,,,,,60984a1b0cce76d16c4ca781,676192165fb32c2e1fb7aee6,67d15f060b104b8efb4e800f,2025-03-12_11h18.08.031,Tarea de decisión léxica,2024.2.5,Win32,60.24096386,,,,,,,,,,,,,,,,,,,,,,,89.519,90.5845,l,1,0.3837,1,90.5847,91.0845,,,,,,469,MAS,WORD,DIS,150,patio,,la,,0.3837,,91.0846,91.0847,-0.094195519,-0.385946985,0,0,0,,0,30,30,468,1,matia,,,,
,,,,,,60984a1b0cce76d16c4ca781,676192165fb32c2e1fb7aee6,67d15f060b104b8efb4e800f,2025-03-12_11h18.08.031,Tarea de decisión léxica,2024.2.5,Win32,60.24096386,,,,,,,,,,,,,,,,,,,,,,,91.0856,92.1347,a,0,0.3727,0,92.1354,92.6348,,,,,,375,FEM,WORD,AGR,150,salsa,,la,,0.3727,,92.6359,92.6364,-0.094195519,-0.385946985,0,0,0,,0,31,31,374,1,sasna,,,,
,,,,,,60984a1b0cce76d16c4ca781,676192165fb32c2e1fb7aee6,67d15f060b104b8efb4e800f,2025-03-12_11h18.08.031,Tarea de decisión léxica,2024.2.5,Win32,60.24096386,,,,,,,,,,,,,,,,,,,,,,,92.6369,93.7347,l,0,0.417,0,93.7348,94.2347,,,,,,362,FEM,NOWORD,DIS,150,solle,,el,,0.417,,94.2348,94.2349,-0.094195519,-0.385946985,0,0,0,,0,32,32,361,1,torre,,,,
,,,,,,60984a1b0cce76d16c4ca781,676192165fb32c2e1fb7aee6,67d15f060b104b8efb4e800f,2025-03-12_11h18.08.031,Tarea de decisión léxica,2024.2.5,Win32,60.24096386,,,,,,,,,,,,,,,,,,,,,,,94.2357,95.3848,a,1,0.467,1,95.3855,95.8848,,,,,,160,MAS,NOWORD,AGR,150,bilo,,el,,0.467,,95.8849,95.885,-0.094195519,-0.385946985,0,0,0,,0,33,33,159,1,giro,,,,
,,,,,,60984a1b0cce76d16c4ca781,676192165fb32c2e1fb7aee6,67d15f060b104b8efb4e800f,2025-03-12_11h18.08.031,Tarea de decisión léxica,2024.2.5,Win32,60.24096386,,,,,,,,,,,,,,,,,,,,,,,95.886,96.9182,l,1,0.3503,1,96.9183,97.4183,,,,,,455,MAS,WORD,DIS,150,reino,,la,,0.3503,,97.4183,97.4185,-0.094195519,-0.385946985,0,0,0,,0,34,34,454,1,riaso,,,,
,,,,,,60984a1b0cce76d16c4ca781,676192165fb32c2e1fb7aee6,67d15f060b104b8efb4e800f,2025-03-12_11h18.08.031,Tarea de decisión léxica,2024.2.5,Win32,60.24096386,,,,,,,,,,,,,,,,,,,,,,,97.4194,98.4183,l,1,0.3192,1,98.4184,98.9183,,,,,,277,MAS,WORD,AGR,150,fuego,,el,,0.3192,,98.9196,98.9202,-0.094195519,-0.385946985,0,0,0,,0,35,35,276,1,vuemo,,,,
,,,,,,60984a1b0cce76d16c4ca781,676192165fb32c2e1fb7aee6,67d15f060b104b8efb4e800f,2025-03-12_11h18.08.031,Tarea de decisión léxica,2024.2.5,Win32,60.24096386,,,,,,,,,,,,,,,,,,,,,,,98.9208,99.9184,a,1,0.3167,1,99.9185,100.4184,,,,,,224,FEM,NOWORD,AGR,150,cira,,la,,0.3167,,100.4184,100.4186,-0.094195519,-0.385946985,0,0,0,,0,36,36,223,1,cera,,,,
,,,,,,60984a1b0cce76d16c4ca781,676192165fb32c2e1fb7aee6,67d15f060b104b8efb4e800f,2025-03-12_11h18.08.031,Tarea de decisión léxica,2024.2.5,Win32,60.24096386,,,,,,,,,,,,,,,,,,,,,,,100.4194,101.5518,a,1,0.4502,1,101.5519,102.0518,,,,,,288,FEM,NOWORD,AGR,150,fosta,,la,,0.4502,,102.0518,102.0519,-0.094195519,-0.385946985,0,0,0,,0,37,37,287,1,lista,,,,
,,,,,,60984a1b0cce76d16c4ca781,676192165fb32c2e1fb7aee6,67d15f060b104b8efb4e800f,2025-03-12_11h18.08.031,Tarea de decisión léxica,2024.2.5,Win32,60.24096386,,,,,,,,,,,,,,,,,,,,,,,102.0528,103.1852,l,1,0.4504,1,103.1853,103.6852,,,,,,217,MAS,WORD,AGR,150,luto,,el,,0.4504,,103.6853,103.6853,-0.094195519,-0.385946985,0,0,0,,0,38,38,216,1,budo,,,,
,,,,,,60984a1b0cce76d16c4ca781,676192165fb32c2e1fb7aee6,67d15f060b104b8efb4e800f,2025-03-12_11h18.08.031,Tarea de decisión léxica,2024.2.5,Win32,60.24096386,,,,,,,,,,,,,,,,,,,,,,,103.6862,104.752,l,1,0.3836,1,104.7521,105.252,,,,,,1,FEM,WORD,AGR,150,casa,,la,,0.3836,,105.2521,105.2522,-0.094195519,-0.385946985,0,0,0,,0,39,39,0,1,mada,,,,
,,,,,,60984a1b0cce76d16c4ca781,676192165fb32c2e1fb7aee6,67d15f060b104b8efb4e800f,2025-03-12_11h18.08.031,Tarea de decisión léxica,2024.2.5,Win32,60.24096386,,,,,,,,,,,,,,,,,,,,,,,105.2531,106.2686,a,0,0.3415,0,106.2692,106.7687,,,,,,143,MAS,WORD,DIS,150,pavo,,la,,0.3415,,106.7698,106.7703,-0.094195519,-0.385946985,0,0,0,,0,40,40,142,1,pezo,,,,
,,,,,,60984a1b0cce76d16c4ca781,676192165fb32c2e1fb7aee6,67d15f060b104b8efb4e800f,2025-03-12_11h18.08.031,Tarea de decisión léxica,2024.2.5,Win32,60.24096386,,,,,,,,,,,,,,,,,,,,,,,106.771,108.0192,l,1,0.5709,1,108.0202,108.5188,,,,,,193,FEM,WORD,AGR,150,loca,,la,,0.5709,,108.5188,108.519,-0.094195519,-0.385946985,0,0,0,,0,41,41,192,1,foda,,,,
,,,,,,60984a1b0cce76d16c4ca781,676192165fb32c2e1fb7aee6,67d15f060b104b8efb4e800f,2025-03-12_11h18.08.031,Tarea de decisión léxica,2024.2.5,Win32,60.24096386,,,,,,,,,,,,,,,,,,,,,,,108.5198,109.7021,a,1,0.5002,1,109.7022,110.2021,,,,,,38,MAS,NOWORD,DIS,150,gaco,,la,,0.5002,,110.2022,110.2023,-0.094195519,-0.385946985,0,0,0,,0,42,42,37,1,rato,,,,
,,,,,,60984a1b0cce76d16c4ca781,676192165fb32c2e1fb7aee6,67d15f060b104b8efb4e800f,2025-03-12_11h18.08.031,Tarea de decisión léxica,2024.2.5,Win32,60.24096386,,,,,,,,,,,,,,,,,,,,,,,110.2031,111.1858,l,1,0.3112,1,111.1858,111.6856,,,,,,81,FEM,WORD,DIS,150,dama,,el,,0.3112,,111.6857,111.6857,-0.094195519,-0.385946985,0,0,0,,0,43,43,80,1,vasa,,,,
,,,,,,60984a1b0cce76d16c4ca781,676192165fb32c2e1fb7aee6,67d15f060b104b8efb4e800f,2025-03-12_11h18.08.031,Tarea de decisión léxica,2024.2.5,Win32,60.24096386,,,,,,,,,,,,,,,,,,,,,,,111.6866,112.6857,l,0,0.3172,0,112.6865,113.1857,,,,,,336,FEM,NOWORD,AGR,150,pesta,,la,,0.3172,,113.1858,113.1859,-0.094195519,-0.385946985,0,0,0,,0,44,44,335,1,costa,,,,
,,,,,,60984a1b0cce76d16c4ca781,676192165fb32c2e1fb7aee6,67d15f060b104b8efb4e800f,2025-03-12_11h18.08.031,Tarea de decisión léxica,2024.2.5,Win32,60.24096386,,,,,,,,,,,,,,,,,,,,,,,113.1868,114.3023,a,1,0.4396,1,114.303,114.8023,,,,,,408,FEM,NOWORD,AGR,150,cauba,,la,,0.4396,,114.8034,114.804,-0.094195519,-0.385946985,0,0,0,,0,45,45,407,1,cueva,,,,
,,,,,,60984a1b0cce76d16c4ca781,676192165fb32c2e1fb7aee6,67d15f060b104b8efb4e800f,2025-03-12_11h18.08.031,Tarea de decisión léxica,2024.2.5,Win32,60.24096386,,,,,,,,,,,,,,,,,,,,,,,114.8045,115.8524,a,1,0.3671,1,115.8525,116.3524,,,,,,190,MAS,NOWORD,DIS,150,muvo,,la,,0.3671,,116.3525,116.3526,-0.094195519,-0.385946985,0,0,0,,0,46,46,189,1,puño,,,,
,,,,,,60984a1b0cce76d16c4ca781,676192165fb32c2e1fb7aee6,67d15f060b104b8efb4e800f,2025-03-12_11h18.08.031,Tarea de decisión léxica,2024.2.5,Win32,60.24096386,,,,,,,,,,,,,,,,,,,,,,,116.3535,117.3192,l,1,0.2888,1,117.3193,117.8192,,,,,,299,FEM,WORD,AGR,150,bolsa,,la,,0.2888,,117.8193,117.8194,-0.094195519,-0.385946985,0,0,0,,0,47,47,298,1,bosga,,,,
,,,,,,60984a1b0cce76d16c4ca781,676192165fb32c2e1fb7aee6,67d15f060b104b8efb4e800f,2025-03-12_11h18.08.031,Tarea de decisión léxica,2024.2.5,Win32,60.24096386,,,,,,,,,,,,,,,,,,,,,,,117.8203,119.0192,a,1,0.5178,1,119.0194,119.5193,,,,,,204,FEM,NOWORD,AGR,150,beja,,la,,0.5178,,119.5193,119.5193,-0.094195519,-0.385946985,0,0,0,,0,48,48,203,1,leña,,,,
,,,,,,60984a1b0cce76d16c4ca781,676192165fb32c2e1fb7aee6,67d15f060b104b8efb4e800f,2025-03-12_11h18.08.031,Tarea de decisión léxica,2024.2.5,Win32,60.24096386,,,,,,,,,,,,,,,,,,,,,,,119.5204,120.5027,l,0,0.306,0,120.5034,121.0026,,,,,,114,FEM,NOWORD,DIS,150,tada,,el,,0.306,,121.0027,121.0027,-0.094195519,-0.385946985,0,0,0,,0,49,49,113,1,miel,,,,
,,,,,,60984a1b0cce76d16c4ca781,676192165fb32c2e1fb7aee6,67d15f060b104b8efb4e800f,2025-03-12_11h18.08.031,Tarea de decisión léxica,2024.2.5,Win32,60.24096386,,,,,,,,,,,,,,,,,,,,,,,121.0036,122.0193,a,1,0.3425,1,122.02,122.5195,,,,,,108,MAS,NOWORD,AGR,150,raot,,el,,0.3425,,122.5205,122.5211,-0.094195519,-0.385946985,0,0,0,,0,50,50,107,1,saco,,,,
,,,,,,60984a1b0cce76d16c4ca781,676192165fb32c2e1fb7aee6,67d15f060b104b8efb4e800f,2025-03-12_11h18.08.031,Tarea de decisión léxica,2024.2.5,Win32,60.24096386,,,,,,,,,,,,,,,,,,,,,,,122.5216,123.7029,l,1,0.5004,1,123.703,124.2028,,,,,,183,FEM,WORD,AGR,150,raya,,la,,0.5004,,124.2028,124.2029,-0.094195519,-0.385946985,0,0,0,,0,51,51,182,1,raad,,,,
,,,,,,60984a1b0cce76d16c4ca781,676192165fb32c2e1fb7aee6,67d15f060b104b8efb4e800f,2025-03-12_11h18.08.031,Tarea de decisión léxica,2024.2.5,Win32,60.24096386,,,,,,,,,,,,,,,,,,,,,,,124.2039,125.2695,l,1,0.3902,1,125.2696,125.7695,,,,,,269,MAS,WORD,AGR,150,perro,,el,,0.3902,,125.7697,125.7697,-0.094195519,-0.385946985,0,0,0,,0,52,52,268,1,mello,,,,
,,,,,,60984a1b0cce76d16c4ca781,676192165fb32c2e1fb7aee6,67d15f060b104b8efb4e800f,2025-03-12_11h18.08.031,Tarea de decisión léxica,2024.2.5,Win32,60.24096386,,,,,,,,,,,,,,,,,,,,,,,125.7705,126.7696,a,1,0.3276,1,126.7698,127.2696,,,,,,346,FEM,NOWORD,DIS,150,anera,,el,,0.3276,,127.2697,127.2698,-0.094195519,-0.385946985,0,0,0,,0,53,53,345,1,arena,,,,
,,,,,,60984a1b0cce76d16c4ca781,676192165fb32c2e1fb7aee6,67d15f060b104b8efb4e800f,2025-03-12_11h18.08.031,Tarea de decisión léxica,2024.2.5,Win32,60.24096386,,,,,,,,,,,,,,,,,,,,,,,127.2707,128.3198,l,1,0.3714,1,128.3199,128.8197,,,,,,287,FEM,WORD,DIS,150,lista,,el,,0.3714,,128.8197,128.8198,-0.094195519,-0.385946985,0,0,0,,0,54,54,286,1,fosta,,,,
,,,,,,60984a1b0cce76d16c4ca781,676192165fb32c2e1fb7aee6,67d15f060b104b8efb4e800f,2025-03-12_11h18.08.031,Tarea de decisión léxica,2024.2.5,Win32,60.24096386,,,,,,,,,,,,,,,,,,,,,,,128.8208,129.8532,a,1,0.3572,1,129.8532,130.353,,,,,,328,MAS,NOWORD,AGR,150,lendo,,el,,0.3572,,130.3541,130.3546,-0.094195519,-0.385946985,0,0,0,,0,55,55,327,1,fondo,,,,
,,,,,,60984a1b0cce76d16c4ca781,676192165fb32c2e1fb7aee6,67d15f060b104b8efb4e800f,2025-03-12_11h18.08.031,Tarea de decisión léxica,2024.2.5,Win32,60.24096386,,,,,,,,,,,,,,,,,,,,,,,130.3551,131.4698,l,1,0.4401,1,131.4699,131.97,,,,,,479,MAS,WORD,DIS,150,rumbo,,la,,0.4401,,131.97,131.9701,-0.094195519,-0.385946985,0,0,0,,0,56,56,478,1,rimpo,,,,
,,,,,,60984a1b0cce76d16c4ca781,676192165fb32c2e1fb7aee6,67d15f060b104b8efb4e800f,2025-03-12_11h18.08.031,Tarea de decisión léxica,2024.2.5,Win32,60.24096386,,,,,,,,,,,,,,,,,,,,,,,131.9709,133.0866,a,0,0.4393,0,133.0872,133.5866,,,,,,135,MAS,WORD,AGR,150,tubo,,el,,0.4393,,133.5867,133.5868,-0.094195519,-0.385946985,0,0,0,,0,57,57,134,1,geso,,,,
,,,,,,60984a1b0cce76d16c4ca781,676192165fb32c2e1fb7aee6,67d15f060b104b8efb4e800f,2025-03-12_11h18.08.031,Tarea de decisión léxica,2024.2.5,Win32,60.24096386,,,,,,,,,,,,,,,,,,,,,,,133.5876,134.7033,l,1,0.4385,1,134.7041,135.2034,,,,,,373,FEM,WORD,DIS,150,pizza,,el,,0.4385,,135.2034,135.2035,-0.094195519,-0.385946985,0,0,0,,0,58,58,372,1,pogza,,,,
,,,,,,60984a1b0cce76d16c4ca781,676192165fb32c2e1fb7aee6,67d15f060b104b8efb4e800f,2025-03-12_11h18.08.031,Tarea de decisión léxica,2024.2.5,Win32,60.24096386,,,,,,,,,,,,,,,,,,,,,,,135.2044,136.2201,l,1,0.3338,1,136.2202,136.7201,,,,,,459,MAS,WORD,DIS,150,grado,,la,,0.3338,,136.7211,136.7217,-0.094195519,-0.385946985,0,0,0,,0,59,59,458,1,fraco,,,,
,,,,,,60984a1b0cce76d16c4ca781,676192165fb32c2e1fb7aee6,67d15f060b104b8efb4e800f,2025-03-12_11h18.08.031,Tarea de decisión léxica,2024.2.5,Win32,60.24096386,,,,,,,,,,,,,,,,,,,,,,,136.7222,137.6868,l,1,0.289,1,137.6869,138.1868,,,,,,37,MAS,WORD,AGR,150,rato,,el,,0.289,,138.1869,138.187,-0.094195519,-0.385946985,0,0,0,,0,60,60,36,1,gaco,,,,
,,,,,,60984a1b0cce76d16c4ca781,676192165fb32c2e1fb7aee6,67d15f060b104b8efb4e800f,2025-03-12_11h18.08.031,Tarea de decisión léxica,2024.2.5,Win32,60.24096386,,,,,,,,,,,,,,,,,,,,,,,138.1879,139.2035,l,1,0.3424,1,139.2035,139.7036,,,,,,125,MAS,WORD,DIS,150,lujo,,la,,0.3424,,139.7037,139.7037,-0.094195519,-0.385946985,0,0,0,,0,61,61,124,1,vudo,,,,
,,,,,,60984a1b0cce76d16c4ca781,676192165fb32c2e1fb7aee6,67d15f060b104b8efb4e800f,2025-03-12_11h18.08.031,Tarea de decisión léxica,2024.2.5,Win32,60.24096386,,,,,,,,,,,,,,,,,,,,,,,139.7045,140.7703,l,1,0.3851,1,140.7704,141.2703,,,,,,167,FEM,WORD,AGR,150,jefa,,la,,0.3851,,141.2703,141.2703,-0.094195519,-0.385946985,0,0,0,,0,62,62,166,1,zifa,,,,
,,,,,,60984a1b0cce76d16c4ca781,676192165fb32c2e1fb7aee6,67d15f060b104b8efb4e800f,2025-03-12_11h18.08.031,Tarea de decisión léxica,2024.2.5,Win32,60.24096386,,,,,,,,,,,,,,,,,,,,,,,141.2713,142.3704,a,1,0.4188,1,142.3705,142.8704,,,,,,104,FEM,NOWORD,AGR,150,rova,,la,,0.4188,,142.8705,142.8705,-0.094195519,-0.385946985,0,0,0,,0,63,63,103,1,ruta,,,,
,,,,,,60984a1b0cce76d16c4ca781,676192165fb32c2e1fb7aee6,67d15f060b104b8efb4e800f,2025-03-12_11h18.08.031,Tarea de decisión léxica,2024.2.5,Win32,60.24096386,,,,,,,,,,,,,,,,,,,,,,,142.8713,144.0538,a,1,0.5066,1,144.0539,144.5538,,,,,,384,FEM,NOWORD,AGR,150,brame,,la,,0.5066,,144.5548,144.5553,-0.094195519,-0.385946985,0,0,0,,0,64,64,383,1,frase,,,,
,,,,,,60984a1b0cce76d16c4ca781,676192165fb32c2e1fb7aee6,67d15f060b104b8efb4e800f,2025-03-12_11h18.08.031,Tarea de decisión léxica,2024.2.5,Win32,60.24096386,,,,,,,,,,,,,,,,,,,,,,,144.5559,145.5537,a,1,0.3272,1,145.5537,146.0538,,,,,,70,FEM,NOWORD,DIS,150,ñola,,el,,0.3272,,146.0539,146.0541,-0.094195519,-0.385946985,0,0,0,,0,65,65,69,1,zona,,,,
,,,,,,60984a1b0cce76d16c4ca781,676192165fb32c2e1fb7aee6,67d15f060b104b8efb4e800f,2025-03-12_11h18.08.031,Tarea de decisión léxica,2024.2.5,Win32,60.24096386,,,,,,,,,,,,,,,,,,,,,,,146.0549,147.0873,l,1,0.3552,1,147.0874,147.5872,,,,,,359,MAS,WORD,AGR,150,calor,,el,,0.3552,,147.5873,147.5874,-0.094195519,-0.385946985,0,0,0,,0,66,66,358,1,cacer,,,,
,,,,,,60984a1b0cce76d16c4ca781,676192165fb32c2e1fb7aee6,67d15f060b104b8efb4e800f,2025-03-12_11h18.08.031,Tarea de decisión léxica,2024.2.5,Win32,60.24096386,,,,,,,,,,,,,,,,,,,,,,,147.5882,148.604,l,1,0.3337,1,148.604,149.104,,,,,,221,FEM,WORD,DIS,150,mula,,el,,0.3337,,149.1041,149.1042,-0.094195519,-0.385946985,0,0,0,,0,67,67,220,1,puca,,,,
,,,,,,60984a1b0cce76d16c4ca781,676192165fb32c2e1fb7aee6,67d15f060b104b8efb4e800f,2025-03-12_11h18.08.031,Tarea de decisión léxica,2024.2.5,Win32,60.24096386,,,,,,,,,,,,,,,,,,,,,,,149.1051,150.2207,a,1,0.4411,1,150.2207,150.7207,,,,,,234,FEM,NOWORD,DIS,150,fasa,,el,,0.4411,,150.7207,150.7209,-0.094195519,-0.385946985,0,0,0,,0,68,68,233,1,lana,,,,
,,,,,,60984a1b0cce76d16c4ca781,676192165fb32c2e1fb7aee6,67d15f060b104b8efb4e800f,2025-03-12_11h18.08.031,Tarea de decisión léxica,2024.2.5,Win32,60.24096386,,,,,,,,,,,,,,,,,,,,,,,150.7217,152.2374,l,0,0.8402,0,152.2382,152.7375,,,,,,444,MAS,NOWORD,AGR,150,taron,,el,,0.8402,,152.7385,152.7391,-0.094195519,-0.385946985,0,0,0,,0,69,69,443,1,salón,,,,
,,,,,,60984a1b0cce76d16c4ca781,676192165fb32c2e1fb7aee6,67d15f060b104b8efb4e800f,2025-03-12_11h18.08.031,Tarea de decisión léxica,2024.2.5,Win32,60.24096386,,,,,,,,,,,,,,,,,,,,,,,152.7396,153.8376,a,1,0.4235,1,153.8383,154.3376,,,,,,36,MAS,NOWORD,AGR,150,meno,,el,,0.4235,,154.3377,154.3377,-0.094195519,-0.385946985,0,0,0,,0,70,70,35,1,pelo,,,,
,,,,,,60984a1b0cce76d16c4ca781,676192165fb32c2e1fb7aee6,67d15f060b104b8efb4e800f,2025-03-12_11h18.08.031,Tarea de decisión léxica,2024.2.5,Win32,60.24096386,,,,,,,,,,,,,,,,,,,,,,,154.3386,155.371,a,1,0.3512,1,155.3711,155.871,,,,,,402,MAS,NOWORD,DIS,150,pirvo,,la,,0.3512,,155.871,155.8711,-0.094195519,-0.385946985,0,0,0,,0,71,71,401,1,polvo,,,,
,,,,,,60984a1b0cce76d16c4ca781,676192165fb32c2e1fb7aee6,67d15f060b104b8efb4e800f,2025-03-12_11h18.08.031,Tarea de decisión léxica,2024.2.5,Win32,60.24096386,,,,,,,,,,,,,,,,,,,,,,,155.8721,156.921,l,1,0.3704,1,156.9212,157.421,,,,,,153,MAS,WORD,DIS,150,pato,,la,,0.3704,,157.4211,157.4212,-0.094195519,-0.385946985,0,0,0,,0,72,72,152,1,tado,,,,
,,,,,,60984a1b0cce76d16c4ca781,676192165fb32c2e1fb7aee6,67d15f060b104b8efb4e800f,2025-03-12_11h18.08.031,Tarea de decisión léxica,2024.2.5,Win32,60.24096386,,,,,,,,,,,,,,,,,,,,,,,157.4221,158.4546,a,1,0.3504,1,158.4547,158.9545,,,,,,396,FEM,NOWORD,AGR,150,paeda,,la,,0.3504,,158.9545,158.9546,-0.094195519,-0.385946985,0,0,0,,0,73,73,395,1,caída,,,,
,,,,,,60984a1b0cce76d16c4ca781,676192165fb32c2e1fb7aee6,67d15f060b104b8efb4e800f,2025-03-12_11h18.08.031,Tarea de decisión léxica,2024.2.5,Win32,60.24096386,,,,,,,,,,,,,,,,,,,,,,,158.9556,160.1045,l,1,0.4671,1,160.1046,160.6046,,,,,,75,MAS,WORD,DIS,150,olor,,la,,0.4671,,160.6056,160.6062,-0.094195519,-0.385946985,0,0,0,,0,74,74,74,1,ocer,,,,
,,,,,,60984a1b0cce76d16c4ca781,676192165fb32c2e1fb7aee6,67d15f060b104b8efb4e800f,2025-03-12_11h18.08.031,Tarea de decisión léxica,2024.2.5,Win32,60.24096386,,,,,,,,,,,,,,,,,,,,,,,160.6067,161.6879,l,1,0.4006,1,161.688,162.1879,,,,,,387,FEM,WORD,DIS,150,crema,,el,,0.4006,,162.188,162.1881,-0.094195519,-0.385946985,0,0,0,,0,75,75,386,1,bresa,,,,
,,,,,,60984a1b0cce76d16c4ca781,676192165fb32c2e1fb7aee6,67d15f060b104b8efb4e800f,2025-03-12_11h18.08.031,Tarea de decisión léxica,2024.2.5,Win32,60.24096386,,,,,,,,,,,,,,,,,,,,,,,162.189,163.1881,a,1,0.3171,1,163.1882,163.688,,,,,,158,MAS,NOWORD,DIS,150,hico,,la,,0.3171,,163.688,163.6881,-0.094195519,-0.385946985,0,0,0,,0,76,76,157,1,nido,,,,
,,,,,,60984a1b0cce76d16c4ca781,676192165fb32c2e1fb7aee6,67d15f060b104b8efb4e800f,2025-03-12_11h18.08.031,Tarea de decisión léxica,2024.2.5,Win32,60.24096386,,,,,,,,,,,,,,,,,,,,,,,163.6889,165.0048,l,1,0.6336,1,165.0049,165.5047,,,,,,313,MAS,WORD,DIS,150,novio,,la,,0.6336,,165.5048,165.5048,-0.094195519,-0.385946985,0,0,0,,0,77,77,312,1,govio,,,,
,,,,,,60984a1b0cce76d16c4ca781,676192165fb32c2e1fb7aee6,67d15f060b104b8efb4e800f,2025-03-12_11h18.08.031,Tarea de decisión léxica,2024.2.5,Win32,60.24096386,,,,,,,,,,,,,,,,,,,,,,,165.5057,166.5881,a,1,0.408,1,166.5881,167.0881,,,,,,120,MAS,NOWORD,AGR,150,hooy,,el,,0.408,,167.0882,167.0884,-0.094195519,-0.385946985,0,0,0,,0,78,78,119,1,pozo,,,,
,,,,,,60984a1b0cce76d16c4ca781,676192165fb32c2e1fb7aee6,67d15f060b104b8efb4e800f,2025-03-12_11h18.08.031,Tarea de decisión léxica,2024.2.5,Win32,60.24096386,,,,,,,,,,,,,,,,,,,,,,,167.0893,168.1549,a,1,0.3845,1,168.155,168.6549,,,,,,78,MAS,NOWORD,DIS,150,fodo,,la,,0.3845,,168.656,168.6565,-0.094195519,-0.385946985,0,0,0,,0,79,79,77,1,loco,,,,
,,,,,,60984a1b0cce76d16c4ca781,676192165fb32c2e1fb7aee6,67d15f060b104b8efb4e800f,2025-03-12_11h18.08.031,Tarea de decisión léxica,2024.2.5,Win32,60.24096386,,,,,,,,,,,,,,,,,,,,,,,168.6571,169.655,l,1,0.3224,1,169.6551,170.155,,,,,,367,MAS,WORD,DIS,150,reloj,,la,,0.3224,,170.155,170.1552,-0.094195519,-0.385946985,0,0,0,,0,80,80,366,1,rerob,,,,
,,,,,,60984a1b0cce76d16c4ca781,676192165fb32c2e1fb7aee6,67d15f060b104b8efb4e800f,2025-03-12_11h18.08.031,Tarea de decisión léxica,2024.2.5,Win32,60.24096386,,,,,,,,,,,,,,,,,,,,,,,170.1561,171.1383,a,1,0.3018,1,171.1384,171.6384,,,,,,220,FEM,NOWORD,AGR,150,miva,,la,,0.3018,,171.6385,171.6385,-0.094195519,-0.385946985,0,0,0,,0,81,81,219,1,pipa,,,,
,,,,,,60984a1b0cce76d16c4ca781,676192165fb32c2e1fb7aee6,67d15f060b104b8efb4e800f,2025-03-12_11h18.08.031,Tarea de decisión léxica,2024.2.5,Win32,60.24096386,,,,,,,,,,,,,,,,,,,,,,,171.6394,172.7219,a,1,0.4023,1,172.722,173.2219,,,,,,318,FEM,NOWORD,DIS,150,plaad,,el,,0.4023,,173.222,173.2221,-0.094195519,-0.385946985,0,0,0,,0,82,82,317,1,playa,,,,
,,,,,,60984a1b0cce76d16c4ca781,676192165fb32c2e1fb7aee6,67d15f060b104b8efb4e800f,2025-03-12_11h18.08.031,Tarea de decisión léxica,2024.2.5,Win32,60.24096386,,,,,,,,,,,,,,,,,,,,,,,173.223,174.3385,l,1,0.4349,1,174.3386,174.8386,,,,,,251,MAS,WORD,AGR,150,señor,,el,,0.4349,,174.8396,174.84,-0.094195519,-0.385946985,0,0,0,,0,83,83,250,1,refor,,,,
,,,,,,60984a1b0cce76d16c4ca781,676192165fb32c2e1fb7aee6,67d15f060b104b8efb4e800f,2025-03-12_11h18.08.031,Tarea de decisión léxica,2024.2.5,Win32,60.24096386,,,,,,,,,,,,,,,,,,,,,,,174.8405,175.8551,l,1,0.3337,1,175.8553,176.3553,,,,,,239,MAS,WORD,DIS,150,mozo,,la,,0.3337,,176.3553,176.3554,-0.094195519,-0.385946985,0,0,0,,0,84,84,238,1,poño,,,,
,,,,,,60984a1b0cce76d16c4ca781,676192165fb32c2e1fb7aee6,67d15f060b104b8efb4e800f,2025-03-12_11h18.08.031,Tarea de decisión léxica,2024.2.5,Win32,60.24096386,,,,,,,,,,,,,,,,,,,,,,,176.3564,177.4053,a,1,0.3735,1,177.4054,177.9054,,,,,,378,MAS,NOWORD,DIS,150,gaulo,,la,,0.3735,,177.9054,177.9054,-0.094195519,-0.385946985,0,0,0,,0,85,85,377,1,hielo,,,,
,,,,,,60984a1b0cce76d16c4ca781,676192165fb32c2e1fb7aee6,67d15f060b104b8efb4e800f,2025-03-12_11h18.08.031,Tarea de decisión léxica,2024.2.5,Win32,60.24096386,,,,,,,,,,,,,,,,,,,,,,,177.9064,178.9388,l,1,0.3513,1,178.9389,179.4387,,,,,,261,MAS,WORD,AGR,150,sitio,,el,,0.3513,,179.4387,179.4389,-0.094195519,-0.385946985,0,0,0,,0,86,86,260,1,titio,,,,
,,,,,,60984a1b0cce76d16c4ca781,676192165fb32c2e1fb7aee6,67d15f060b104b8efb4e800f,2025-03-12_11h18.08.031,Tarea de decisión léxica,2024.2.5,Win32,60.24096386,,,,,,,,,,,,,,,,,,,,,,,179.4398,180.5554,l,1,0.4341,1,180.5556,181.0556,,,,,,421,MAS,WORD,DIS,150,primo,,la,,0.4341,,181.0557,181.0557,-0.094195519,-0.385946985,0,0,0,,0,87,87,420,1,griso,,,,
,,,,,,60984a1b0cce76d16c4ca781,676192165fb32c2e1fb7aee6,67d15f060b104b8efb4e800f,2025-03-12_11h18.08.031,Tarea de decisión léxica,2024.2.5,Win32,60.24096386,,,,,,,,,,,,,,,,,,,,,,,181.0567,182.0617,a,1,0.3338,1,182.0618,182.5557,,,,,,180,MAS,NOWORD,AGR,150,sono,,el,,0.3338,,182.5568,182.5573,-0.094195519,-0.385946985,0,0,0,,0,88,88,179,1,toro,,,,
,,,,,,60984a1b0cce76d16c4ca781,676192165fb32c2e1fb7aee6,67d15f060b104b8efb4e800f,2025-03-12_11h18.08.031,Tarea de decisión léxica,2024.2.5,Win32,60.24096386,,,,,,,,,,,,,,,,,,,,,,,182.5579,183.689,a,1,0.4505,1,183.6891,184.189,,,,,,68,FEM,NOWORD,AGR,150,gesa,,la,,0.4505,,184.189,184.1891,-0.094195519,-0.385946985,0,0,0,,0,89,89,67,1,nena,,,,
,,,,,,60984a1b0cce76d16c4ca781,676192165fb32c2e1fb7aee6,67d15f060b104b8efb4e800f,2025-03-12_11h18.08.031,Tarea de decisión léxica,2024.2.5,Win32,60.24096386,,,,,,,,,,,,,,,,,,,,,,,184.1904,185.189,a,0,0.3239,0,185.1897,185.689,,,,,,235,FEM,WORD,DIS,150,grúa,,el,,0.3239,,185.689,185.6891,-0.094195519,-0.385946985,0,0,0,,0,90,90,234,1,tria,,,,
,,,,,,60984a1b0cce76d16c4ca781,676192165fb32c2e1fb7aee6,67d15f060b104b8efb4e800f,2025-03-12_11h18.08.031,Tarea de decisión léxica,2024.2.5,Win32,60.24096386,,,,,,,,,,,,,,,,,,,,,,,185.69,186.8391,l,1,0.4719,1,186.8399,187.339,,,,,,425,FEM,WORD,DIS,150,viuda,,el,,0.4719,,187.3391,187.3391,-0.094195519,-0.385946985,0,0,0,,0,91,91,424,1,virca,,,,
,,,,,,60984a1b0cce76d16c4ca781,676192165fb32c2e1fb7aee6,67d15f060b104b8efb4e800f,2025-03-12_11h18.08.031,Tarea de decisión léxica,2024.2.5,Win32,60.24096386,,,,,,,,,,,,,,,,,,,,,,,187.3402,188.4059,l,1,0.3837,1,188.4061,188.9059,,,,,,45,FEM,WORD,AGR,150,mesa,,la,,0.3837,,188.906,188.9061,-0.094195519,-0.385946985,0,0,0,,0,92,92,44,1,pema,,,,
,,,,,,60984a1b0cce76d16c4ca781,676192165fb32c2e1fb7aee6,67d15f060b104b8efb4e800f,2025-03-12_11h18.08.031,Tarea de decisión léxica,2024.2.5,Win32,60.24096386,,,,,,,,,,,,,,,,,,,,,,,188.907,189.9559,l,1,0.367,1,189.9561,190.4559,,,,,,13,FEM,WORD,DIS,150,hora,,el,,0.367,,190.4577,190.4582,-0.094195519,-0.385946985,0,0,0,,0,93,93,12,1,nola,,,,
,,,,,,60984a1b0cce76d16c4ca781,676192165fb32c2e1fb7aee6,67d15f060b104b8efb4e800f,2025-03-12_11h18.08.031,Tarea de decisión léxica,2024.2.5,Win32,60.24096386,,,,,,,,,,,,,,,,,,,,,,,190.4587,191.3893,l,1,0.2503,1,191.3894,191.8893,,,,,,381,MAS,WORD,DIS,150,humor,,la,,0.2503,,191.8893,191.8895,-0.094195519,-0.385946985,0,0,0,,0,94,94,380,1,nusor,,,,
,,,,,,60984a1b0cce76d16c4ca781,676192165fb32c2e1fb7aee6,67d15f060b104b8efb4e800f,2025-03-12_11h18.08.031,Tarea de decisión léxica,2024.2.5,Win32,60.24096386,,,,,,,,,,,,,,,,,,,,,,,191.8903,193.1726,a,1,0.6002,1,193.1728,193.6728,,,,,,270,MAS,NOWORD,DIS,150,mello,,la,,0.6002,,193.6728,193.673,-0.094195519,-0.385946985,0,0,0,,0,95,95,269,1,perro,,,,
,,,,,,60984a1b0cce76d16c4ca781,676192165fb32c2e1fb7aee6,67d15f060b104b8efb4e800f,2025-03-12_11h18.08.031,Tarea de decisión léxica,2024.2.5,Win32,60.24096386,,,,,,,,,,,,,,,,,,,,,,,193.6738,194.7394,l,1,0.3919,1,194.7395,195.2395,,,,,,27,MAS,WORD,DIS,150,baño,,la,,0.3919,,195.2395,195.2396,-0.094195519,-0.385946985,0,0,0,,0,96,96,26,1,ravo,,,,
,,,,,,60984a1b0cce76d16c4ca781,676192165fb32c2e1fb7aee6,67d15f060b104b8efb4e800f,2025-03-12_11h18.08.031,Tarea de decisión léxica,2024.2.5,Win32,60.24096386,,,,,,,,,,,,,,,,,,,,,,,195.2404,196.2896,l,1,0.3692,1,196.2897,196.7896,,,,,,133,FEM,WORD,AGR,150,vaca,,la,,0.3692,,196.7896,196.7897,-0.094195519,-0.385946985,0,0,0,,0,97,97,132,1,vesa,,,,
,,,,,,60984a1b0cce76d16c4ca781,676192165fb32c2e1fb7aee6,67d15f060b104b8efb4e800f,2025-03-12_11h18.08.031,Tarea de decisión léxica,2024.2.5,Win32,60.24096386,,,,,,,,,,,,,,,,,,,,,,,196.7907,197.7729,l,1,0.3073,1,197.773,198.2728,,,,,,255,MAS,WORD,AGR,150,miedo,,el,,0.3073,,198.274,198.2745,-0.094195519,-0.385946985,0,0,0,,0,98,98,254,1,mauco,,,,
,,,,,,60984a1b0cce76d16c4ca781,676192165fb32c2e1fb7aee6,67d15f060b104b8efb4e800f,2025-03-12_11h18.08.031,Tarea de decisión léxica,2024.2.5,Win32,60.24096386,,,,,,,,,,,,,,,,,,,,,,,198.2751,199.3897,l,1,0.4398,1,199.3897,199.8897,,,,,,109,MAS,WORD,AGR,150,rayo,,el,,0.4398,,199.8898,199.8898,-0.094195519,-0.385946985,0,0,0,,0,99,99,108,1,suno,,,,
,,,,,,60984a1b0cce76d16c4ca781,676192165fb32c2e1fb7aee6,67d15f060b104b8efb4e800f,2025-03-12_11h18.08.031,Tarea de decisión léxica,2024.2.5,Win32,60.24096386,,,,,,,,,,,,,,,,,,,,,,,199.8907,200.8731,l,0,0.3107,0,200.8737,201.3731,,,,,,226,MAS,NOWORD,DIS,150,boco,,la,,0.3107,,201.3731,201.3732,-0.094195519,-0.385946985,0,0,0,,0,100,100,225,1,lodo,,,,
,,,,,,60984a1b0cce76d16c4ca781,676192165fb32c2e1fb7aee6,67d15f060b104b8efb4e800f,2025-03-12_11h18.08.031,Tarea de decisión léxica,2024.2.5,Win32,60.24096386,,,,,,,,,,,,,,,,,,,,,,,201.3741,202.3231,l,1,0.2755,1,202.3238,202.8233,,,,,,315,FEM,WORD,DIS,150,reina,,el,,0.2755,,202.8234,202.8234,-0.094195519,-0.385946985,0,0,0,,0,101,101,314,1,riosa,,,,
,,,,,,60984a1b0cce76d16c4ca781,676192165fb32c2e1fb7aee6,67d15f060b104b8efb4e800f,2025-03-12_11h18.08.031,Tarea de decisión léxica,2024.2.5,Win32,60.24096386,,,,,,,,,,,,,,,,,,,,,,,202.8243,203.9399,a,1,0.4334,1,203.94,204.4399,,,,,,414,FEM,NOWORD,DIS,150,bieda,,el,,0.4334,,204.44,204.4401,-0.094195519,-0.385946985,0,0,0,,0,102,102,413,1,rueda,,,,
,,,,,,60984a1b0cce76d16c4ca781,676192165fb32c2e1fb7aee6,67d15f060b104b8efb4e800f,2025-03-12_11h18.08.031,Tarea de decisión léxica,2024.2.5,Win32,60.24096386,,,,,,,,,,,,,,,,,,,,,,,204.4408,205.64,l,1,0.517,1,205.6401,206.1401,,,,,,205,FEM,WORD,AGR,150,rana,,la,,0.517,,206.1411,206.1417,-0.094195519,-0.385946985,0,0,0,,0,103,103,204,1,bara,,,,
,,,,,,60984a1b0cce76d16c4ca781,676192165fb32c2e1fb7aee6,67d15f060b104b8efb4e800f,2025-03-12_11h18.08.031,Tarea de decisión léxica,2024.2.5,Win32,60.24096386,,,,,,,,,,,,,,,,,,,,,,,206.1422,207.1567,l,1,0.3405,1,207.1569,207.6568,,,,,,355,FEM,WORD,DIS,150,regla,,el,,0.3405,,207.6568,207.6569,-0.094195519,-0.385946985,0,0,0,,0,104,104,354,1,bepla,,,,
,,,,,,60984a1b0cce76d16c4ca781,676192165fb32c2e1fb7aee6,67d15f060b104b8efb4e800f,2025-03-12_11h18.08.031,Tarea de decisión léxica,2024.2.5,Win32,60.24096386,,,,,,,,,,,,,,,,,,,,,,,207.6579,208.6902,l,1,0.3519,1,208.6902,209.1902,,,,,,247,FEM,WORD,DIS,150,chica,,el,,0.3519,,209.1902,209.1903,-0.094195519,-0.385946985,0,0,0,,0,105,105,246,1,trida,,,,
,,,,,,60984a1b0cce76d16c4ca781,676192165fb32c2e1fb7aee6,67d15f060b104b8efb4e800f,2025-03-12_11h18.08.031,Tarea de decisión léxica,2024.2.5,Win32,60.24096386,,,,,,,,,,,,,,,,,,,,,,,209.1912,210.3736,a,1,0.5064,1,210.3736,210.8736,,,,,,268,MAS,NOWORD,AGR,150,figro,,el,,0.5064,,210.8736,210.8738,-0.094195519,-0.385946985,0,0,0,,0,106,106,267,1,libro,,,,
,,,,,,60984a1b0cce76d16c4ca781,676192165fb32c2e1fb7aee6,67d15f060b104b8efb4e800f,2025-03-12_11h18.08.031,Tarea de decisión léxica,2024.2.5,Win32,60.24096386,,,,,,,,,,,,,,,,,,,,,,,210.8746,212.3736,a,1,0.8231,1,212.3736,212.8735,,,,,,74,MAS,NOWORD,DIS,150,omio,,la,,0.8231,,212.8746,212.875,-0.094195519,-0.385946985,0,0,0,,0,107,107,73,1,odio,,,,
,,,,,,60984a1b0cce76d16c4ca781,676192165fb32c2e1fb7aee6,67d15f060b104b8efb4e800f,2025-03-12_11h18.08.031,Tarea de decisión léxica,2024.2.5,Win32,60.24096386,,,,,,,,,,,,,,,,,,,,,,,212.8756,213.9738,l,1,0.4171,1,213.9739,214.4739,,,,,,377,MAS,WORD,DIS,150,hielo,,la,,0.4171,,214.4739,214.4741,-0.094195519,-0.385946985,0,0,0,,0,108,108,376,1,gaulo,,,,
,,,,,,60984a1b0cce76d16c4ca781,676192165fb32c2e1fb7aee6,67d15f060b104b8efb4e800f,2025-03-12_11h18.08.031,Tarea de decisión léxica,2024.2.5,Win32,60.24096386,,,,,,,,,,,,,,,,,,,,,,,214.4749,215.5405,a,1,0.3837,1,215.5406,216.0405,,,,,,212,FEM,NOWORD,AGR,150,joad,,la,,0.3837,,216.0405,216.0406,-0.094195519,-0.385946985,0,0,0,,0,109,109,211,1,joya,,,,
,,,,,,60984a1b0cce76d16c4ca781,676192165fb32c2e1fb7aee6,67d15f060b104b8efb4e800f,2025-03-12_11h18.08.031,Tarea de decisión léxica,2024.2.5,Win32,60.24096386,,,,,,,,,,,,,,,,,,,,,,,216.0414,217.2904,a,1,0.576,1,217.2905,217.7906,,,,,,468,MAS,NOWORD,AGR,150,peiso,,el,,0.576,,217.7907,217.7908,-0.094195519,-0.385946985,0,0,0,,0,110,110,467,1,piano,,,,
,,,,,,60984a1b0cce76d16c4ca781,676192165fb32c2e1fb7aee6,67d15f060b104b8efb4e800f,2025-03-12_11h18.08.031,Tarea de decisión léxica,2024.2.5,Win32,60.24096386,,,,,,,,,,,,,,,,,,,,,,,217.7916,218.9073,a,1,0.4341,1,218.9073,219.4072,,,,,,126,MAS,NOWORD,DIS,150,vudo,,la,,0.4341,,219.4073,219.4074,-0.094195519,-0.385946985,0,0,0,,0,111,111,125,1,lujo,,,,
,,,,,,60984a1b0cce76d16c4ca781,676192165fb32c2e1fb7aee6,67d15f060b104b8efb4e800f,2025-03-12_11h18.08.031,Tarea de decisión léxica,2024.2.5,Win32,60.24096386,,,,,,,,,,,,,,,,,,,,,,,219.4083,220.5573,l,1,0.4733,1,220.5574,221.0574,,,,,,473,FEM,WORD,AGR,150,feria,,la,,0.4733,,221.0585,221.059,-0.094195519,-0.385946985,0,0,0,,0,112,112,472,1,felia,,,,
,,,,,,60984a1b0cce76d16c4ca781,676192165fb32c2e1fb7aee6,67d15f060b104b8efb4e800f,2025-03-12_11h18.08.031,Tarea de decisión léxica,2024.2.5,Win32,60.24096386,,,,,,,,,,,,,,,,,,,,,,,221.0594,222.0906,a,1,0.3591,1,222.0907,222.5908,,,,,,42,FEM,NOWORD,DIS,150,haje,,el,,0.3591,,222.5908,222.5909,-0.094195519,-0.385946985,0,0,0,,0,113,113,41,1,nave,,,,
,,,,,,60984a1b0cce76d16c4ca781,676192165fb32c2e1fb7aee6,67d15f060b104b8efb4e800f,2025-03-12_11h18.08.031,Tarea de decisión léxica,2024.2.5,Win32,60.24096386,,,,,,,,,,,,,,,,,,,,,,,222.5919,223.8241,l,1,0.5503,1,223.8242,224.3241,,,,,,25,FEM,WORD,DIS,150,cama,,el,,0.5503,,224.3242,224.3243,-0.094195519,-0.385946985,0,0,0,,0,114,114,24,1,paza,,,,
,,,,,,60984a1b0cce76d16c4ca781,676192165fb32c2e1fb7aee6,67d15f060b104b8efb4e800f,2025-03-12_11h18.08.031,Tarea de decisión léxica,2024.2.5,Win32,60.24096386,,,,,,,,,,,,,,,,,,,,,,,224.3253,225.4742,l,1,0.4763,1,225.4743,225.9743,,,,,,267,MAS,WORD,DIS,150,libro,,la,,0.4763,,225.9743,225.9745,-0.094195519,-0.385946985,0,0,0,,0,115,115,266,1,figro,,,,
,,,,,,60984a1b0cce76d16c4ca781,676192165fb32c2e1fb7aee6,67d15f060b104b8efb4e800f,2025-03-12_11h18.08.031,Tarea de decisión léxica,2024.2.5,Win32,60.24096386,,,,,,,,,,,,,,,,,,,,,,,225.9753,227.1576,l,1,0.5004,1,227.1578,227.6577,,,,,,335,FEM,WORD,AGR,150,costa,,la,,0.5004,,227.6577,227.6578,-0.094195519,-0.385946985,0,0,0,,0,116,116,334,1,pesta,,,,
,,,,,,60984a1b0cce76d16c4ca781,676192165fb32c2e1fb7aee6,67d15f060b104b8efb4e800f,2025-03-12_11h18.08.031,Tarea de decisión léxica,2024.2.5,Win32,60.24096386,,,,,,,,,,,,,,,,,,,,,,,227.6586,228.9411,a,1,0.6069,1,228.9412,229.4412,,,,,,372,FEM,NOWORD,AGR,150,mosta,,la,,0.6069,,229.4422,229.4427,-0.094195519,-0.385946985,0,0,0,,0,117,117,371,1,pasta,,,,
,,,,,,60984a1b0cce76d16c4ca781,676192165fb32c2e1fb7aee6,67d15f060b104b8efb4e800f,2025-03-12_11h18.08.031,Tarea de decisión léxica,2024.2.5,Win32,60.24096386,,,,,,,,,,,,,,,,,,,,,,,229.4432,230.4245,l,1,0.3033,1,230.4246,230.9245,,,,,,357,FEM,WORD,AGR,150,bruja,,la,,0.3033,,230.9246,230.9246,-0.094195519,-0.385946985,0,0,0,,0,118,118,356,1,gruba,,,,
,,,,,,60984a1b0cce76d16c4ca781,676192165fb32c2e1fb7aee6,67d15f060b104b8efb4e800f,2025-03-12_11h18.08.031,Tarea de decisión léxica,2024.2.5,Win32,60.24096386,,,,,,,,,,,,,,,,,,,,,,,230.9256,232.0079,a,0,0.4038,0,232.0086,232.508,,,,,,157,MAS,WORD,AGR,150,nido,,el,,0.4038,,232.508,232.5082,-0.094195519,-0.385946985,0,0,0,,0,119,119,156,1,hico,,,,
,,,,,,60984a1b0cce76d16c4ca781,676192165fb32c2e1fb7aee6,67d15f060b104b8efb4e800f,2025-03-12_11h18.08.031,Tarea de decisión léxica,2024.2.5,Win32,60.24096386,,,,,,,,,,,,,,,,,,,,,,,232.509,233.5081,l,1,0.3169,1,233.5087,234.0079,,,,,,119,MAS,WORD,DIS,150,pozo,,la,,0.3169,,234.0079,234.0081,-0.094195519,-0.385946985,0,0,0,,0,120,120,118,1,hooy,,,,
,,,,,,60984a1b0cce76d16c4ca781,676192165fb32c2e1fb7aee6,67d15f060b104b8efb4e800f,2025-03-12_11h18.08.031,Tarea de decisión léxica,2024.2.5,Win32,60.24096386,,,,,,,,,,,,,,,,,,,,,,,234.009,235.0414,l,1,0.3523,1,235.0415,235.5413,,,,,,439,FEM,WORD,DIS,150,presa,,el,,0.3523,,235.5414,235.5415,-0.094195519,-0.385946985,0,0,0,,0,121,121,438,1,prema,,,,
,,,,,,60984a1b0cce76d16c4ca781,676192165fb32c2e1fb7aee6,67d15f060b104b8efb4e800f,2025-03-12_11h18.08.031,Tarea de decisión léxica,2024.2.5,Win32,60.24096386,,,,,,,,,,,,,,,,,,,,,,,235.5424,236.7081,l,1,0.491,1,236.7082,237.2081,,,,,,225,MAS,WORD,DIS,150,lodo,,la,,0.491,,237.2092,237.2096,-0.094195519,-0.385946985,0,0,0,,0,122,122,224,1,boco,,,,
,,,,,,60984a1b0cce76d16c4ca781,676192165fb32c2e1fb7aee6,67d15f060b104b8efb4e800f,2025-03-12_11h18.08.031,Tarea de decisión léxica,2024.2.5,Win32,60.24096386,,,,,,,,,,,,,,,,,,,,,,,237.2102,238.4748,a,1,0.5922,1,238.4749,238.9749,,,,,,398,FEM,NOWORD,DIS,150,trigi,,el,,0.5922,,238.975,238.975,-0.094195519,-0.385946985,0,0,0,,0,123,123,397,1,tribu,,,,
,,,,,,60984a1b0cce76d16c4ca781,676192165fb32c2e1fb7aee6,67d15f060b104b8efb4e800f,2025-03-12_11h18.08.031,Tarea de decisión léxica,2024.2.5,Win32,60.24096386,,,,,,,,,,,,,,,,,,,,,,,238.976,240.0416,l,1,0.3936,1,240.0416,240.5417,,,,,,457,MAS,WORD,AGR,150,plato,,el,,0.3936,,240.5417,240.5418,-0.094195519,-0.385946985,0,0,0,,0,124,124,456,1,glaco,,,,
,,,,,,60984a1b0cce76d16c4ca781,676192165fb32c2e1fb7aee6,67d15f060b104b8efb4e800f,2025-03-12_11h18.08.031,Tarea de decisión léxica,2024.2.5,Win32,60.24096386,,,,,,,,,,,,,,,,,,,,,,,240.5429,241.5917,l,0,0.367,0,241.5925,242.0917,,,,,,116,FEM,NOWORD,AGR,150,haca,,la,,0.367,,242.0917,242.0919,-0.094195519,-0.385946985,0,0,0,,0,125,125,115,1,pata,,,,
,,,,,,60984a1b0cce76d16c4ca781,676192165fb32c2e1fb7aee6,67d15f060b104b8efb4e800f,2025-03-12_11h18.08.031,Tarea de decisión léxica,2024.2.5,Win32,60.24096386,,,,,,,,,,,,,,,,,,,,,,,242.0927,243.2584,a,1,0.4845,1,243.2591,243.7584,,,,,,98,MAS,NOWORD,DIS,150,fopo,,la,,0.4845,,243.7585,243.7586,-0.094195519,-0.385946985,0,0,0,,0,126,126,97,1,mono,,,,
,,,,,,60984a1b0cce76d16c4ca781,676192165fb32c2e1fb7aee6,67d15f060b104b8efb4e800f,2025-03-12_11h18.08.031,Tarea de decisión léxica,2024.2.5,Win32,60.24096386,,,,,,,,,,,,,,,,,,,,,,,243.7595,244.8918,l,1,0.4579,1,244.8919,245.3918,,,,,,227,MAS,WORD,AGR,150,faro,,el,,0.4579,,245.3929,245.3935,-0.094195519,-0.385946985,0,0,0,,0,127,127,226,1,laro,,,,
,,,,,,60984a1b0cce76d16c4ca781,676192165fb32c2e1fb7aee6,67d15f060b104b8efb4e800f,2025-03-12_11h18.08.031,Tarea de decisión léxica,2024.2.5,Win32,60.24096386,,,,,,,,,,,,,,,,,,,,,,,245.394,246.3752,l,1,0.3043,1,246.3753,246.8752,,,,,,379,MAS,WORD,AGR,150,turno,,el,,0.3043,,246.8753,246.8753,-0.094195519,-0.385946985,0,0,0,,0,128,128,378,1,tunso,,,,
,,,,,,60984a1b0cce76d16c4ca781,676192165fb32c2e1fb7aee6,67d15f060b104b8efb4e800f,2025-03-12_11h18.08.031,Tarea de decisión léxica,2024.2.5,Win32,60.24096386,,,,,,,,,,,,,,,,,,,,,,,246.8763,248.0753,a,1,0.5171,1,248.0754,248.5753,,,,,,178,MAS,NOWORD,DIS,150,bito,,la,,0.5171,,248.5754,248.5755,-0.094195519,-0.385946985,0,0,0,,0,129,129,177,1,reto,,,,
,,,,,,60984a1b0cce76d16c4ca781,676192165fb32c2e1fb7aee6,67d15f060b104b8efb4e800f,2025-03-12_11h18.08.031,Tarea de decisión léxica,2024.2.5,Win32,60.24096386,,,,,,,,,,,,,,,,,,,,,,,248.5763,249.6088,l,1,0.3611,1,249.6089,250.1087,,,,,,35,MAS,WORD,DIS,150,pelo,,la,,0.3611,,250.1088,250.1089,-0.094195519,-0.385946985,0,0,0,,0,130,130,34,1,meno,,,,
,,,,,,60984a1b0cce76d16c4ca781,676192165fb32c2e1fb7aee6,67d15f060b104b8efb4e800f,2025-03-12_11h18.08.031,Tarea de decisión léxica,2024.2.5,Win32,60.24096386,,,,,,,,,,,,,,,,,,,,,,,250.1097,251.1255,a,1,0.3339,1,251.1255,251.6255,,,,,,186,MAS,NOWORD,DIS,150,raol,,la,,0.3339,,251.6265,251.627,-0.094195519,-0.385946985,0,0,0,,0,131,131,185,1,baúl,,,,
,,,,,,60984a1b0cce76d16c4ca781,676192165fb32c2e1fb7aee6,67d15f060b104b8efb4e800f,2025-03-12_11h18.08.031,Tarea de decisión léxica,2024.2.5,Win32,60.24096386,,,,,,,,,,,,,,,,,,,,,,,251.6275,252.8255,a,1,0.5188,1,252.8256,253.3255,,,,,,452,FEM,NOWORD,AGR,150,clita,,la,,0.5188,,253.3256,253.3257,-0.094195519,-0.385946985,0,0,0,,0,132,132,451,1,fruta,,,,
,,,,,,60984a1b0cce76d16c4ca781,676192165fb32c2e1fb7aee6,67d15f060b104b8efb4e800f,2025-03-12_11h18.08.031,Tarea de decisión léxica,2024.2.5,Win32,60.24096386,,,,,,,,,,,,,,,,,,,,,,,253.3265,254.3756,l,0,0.3705,0,254.3762,254.8756,,,,,,388,FEM,NOWORD,AGR,150,bresa,,la,,0.3705,,254.8757,254.8758,-0.094195519,-0.385946985,0,0,0,,0,133,133,387,1,crema,,,,
,,,,,,60984a1b0cce76d16c4ca781,676192165fb32c2e1fb7aee6,67d15f060b104b8efb4e800f,2025-03-12_11h18.08.031,Tarea de decisión léxica,2024.2.5,Win32,60.24096386,,,,,,,,,,,,,,,,,,,,,,,254.8767,256.1424,l,1,0.5837,1,256.143,256.6423,,,,,,131,FEM,WORD,DIS,150,mina,,el,,0.5837,,256.6424,256.6426,-0.094195519,-0.385946985,0,0,0,,0,134,134,130,1,fada,,,,
,,,,,,60984a1b0cce76d16c4ca781,676192165fb32c2e1fb7aee6,67d15f060b104b8efb4e800f,2025-03-12_11h18.08.031,Tarea de decisión léxica,2024.2.5,Win32,60.24096386,,,,,,,,,,,,,,,,,,,,,,,256.6434,257.7591,l,1,0.4338,1,257.7592,258.259,,,,,,451,FEM,WORD,AGR,150,fruta,,la,,0.4338,,258.2591,258.2592,-0.094195519,-0.385946985,0,0,0,,0,135,135,450,1,clita,,,,
,,,,,,60984a1b0cce76d16c4ca781,676192165fb32c2e1fb7aee6,67d15f060b104b8efb4e800f,2025-03-12_11h18.08.031,Tarea de decisión léxica,2024.2.5,Win32,60.24096386,,,,,,,,,,,,,,,,,,,,,,,258.2601,259.5259,l,1,0.5837,1,259.5259,260.0261,,,,,,105,FEM,WORD,DIS,150,sopa,,el,,0.5837,,260.027,260.0275,-0.094195519,-0.385946985,0,0,0,,0,136,136,104,1,vina,,,,
,,,,,,60984a1b0cce76d16c4ca781,676192165fb32c2e1fb7aee6,67d15f060b104b8efb4e800f,2025-03-12_11h18.08.031,Tarea de decisión léxica,2024.2.5,Win32,60.24096386,,,,,,,,,,,,,,,,,,,,,,,260.028,261.1592,l,1,0.4505,1,261.1594,261.6593,,,,,,137,MAS,WORD,DIS,150,nene,,la,,0.4505,,261.6594,261.6594,-0.094195519,-0.385946985,0,0,0,,0,137,137,136,1,pamo,,,,
,,,,,,60984a1b0cce76d16c4ca781,676192165fb32c2e1fb7aee6,67d15f060b104b8efb4e800f,2025-03-12_11h18.08.031,Tarea de decisión léxica,2024.2.5,Win32,60.24096386,,,,,,,,,,,,,,,,,,,,,,,261.6604,262.7427,a,1,0.4048,1,262.7428,263.2427,,,,,,222,FEM,NOWORD,DIS,150,puca,,el,,0.4048,,263.2428,263.2429,-0.094195519,-0.385946985,0,0,0,,0,138,138,221,1,mula,,,,
,,,,,,60984a1b0cce76d16c4ca781,676192165fb32c2e1fb7aee6,67d15f060b104b8efb4e800f,2025-03-12_11h18.08.031,Tarea de decisión léxica,2024.2.5,Win32,60.24096386,,,,,,,,,,,,,,,,,,,,,,,263.2439,264.2429,l,1,0.3174,1,264.2429,264.7427,,,,,,77,MAS,WORD,AGR,150,loco,,el,,0.3174,,264.7428,264.7429,-0.094195519,-0.385946985,0,0,0,,0,139,139,76,1,fodo,,,,
,,,,,,60984a1b0cce76d16c4ca781,676192165fb32c2e1fb7aee6,67d15f060b104b8efb4e800f,2025-03-12_11h18.08.031,Tarea de decisión léxica,2024.2.5,Win32,60.24096386,,,,,,,,,,,,,,,,,,,,,,,264.7437,265.8761,a,1,0.4576,1,265.8761,266.3761,,,,,,314,MAS,NOWORD,DIS,150,govio,,la,,0.4576,,266.3762,266.3763,-0.094195519,-0.385946985,0,0,0,,0,140,140,313,1,novio,,,,
,,,,,,60984a1b0cce76d16c4ca781,676192165fb32c2e1fb7aee6,67d15f060b104b8efb4e800f,2025-03-12_11h18.08.031,Tarea de decisión léxica,2024.2.5,Win32,60.24096386,,,,,,,,,,,,,,,,,,,,,,,266.3771,267.4094,l,1,0.3599,1,267.4095,267.9095,,,,,,7,MAS,WORD,AGR,150,hijo,,el,,0.3599,,267.9106,267.9111,-0.094195519,-0.385946985,0,0,0,,0,141,141,6,1,nivo,,,,
,,,,,,60984a1b0cce76d16c4ca781,676192165fb32c2e1fb7aee6,67d15f060b104b8efb4e800f,2025-03-12_11h18.08.031,Tarea de decisión léxica,2024.2.5,Win32,60.24096386,,,,,,,,,,,,,,,,,,,,,,,267.9116,268.9764,l,1,0.3837,1,268.9764,269.4763,,,,,,209,MAS,WORD,DIS,150,velo,,la,,0.3837,,269.4763,269.4765,-0.094195519,-0.385946985,0,0,0,,0,142,142,208,1,dero,,,,
,,,,,,60984a1b0cce76d16c4ca781,676192165fb32c2e1fb7aee6,67d15f060b104b8efb4e800f,2025-03-12_11h18.08.031,Tarea de decisión léxica,2024.2.5,Win32,60.24096386,,,,,,,,,,,,,,,,,,,,,,,269.4773,270.4264,l,1,0.2679,1,270.4265,270.9263,,,,,,213,FEM,WORD,AGR,150,rama,,la,,0.2679,,270.9264,270.9264,-0.094195519,-0.385946985,0,0,0,,0,143,143,212,1,bana,,,,
,,,,,,60984a1b0cce76d16c4ca781,676192165fb32c2e1fb7aee6,67d15f060b104b8efb4e800f,2025-03-12_11h18.08.031,Tarea de decisión léxica,2024.2.5,Win32,60.24096386,,,,,,,,,,,,,,,,,,,,,,,270.9273,271.9265,a,1,0.3171,1,271.9266,272.4265,,,,,,136,MAS,NOWORD,AGR,150,geso,,el,,0.3171,,272.4266,272.4266,-0.094195519,-0.385946985,0,0,0,,0,144,144,135,1,tubo,,,,
,,,,,,60984a1b0cce76d16c4ca781,676192165fb32c2e1fb7aee6,67d15f060b104b8efb4e800f,2025-03-12_11h18.08.031,Tarea de decisión léxica,2024.2.5,Win32,60.24096386,,,,,,,,,,,,,,,,,,,,,,,272.4275,273.5098,a,0,0.4058,0,273.5106,274.0098,,,,,,159,MAS,WORD,DIS,150,giro,,la,,0.4058,,274.0098,274.0099,-0.094195519,-0.385946985,0,0,0,,0,145,145,158,1,bilo,,,,
,,,,,,60984a1b0cce76d16c4ca781,676192165fb32c2e1fb7aee6,67d15f060b104b8efb4e800f,2025-03-12_11h18.08.031,Tarea de decisión léxica,2024.2.5,Win32,60.24096386,,,,,,,,,,,,,,,,,,,,,,,274.0107,274.9768,l,1,0.2945,1,274.9775,275.4766,,,,,,309,FEM,WORD,AGR,150,silla,,la,,0.2945,,275.4776,275.4781,-0.094195519,-0.385946985,0,0,0,,0,146,146,308,1,tirra,,,,
,,,,,,60984a1b0cce76d16c4ca781,676192165fb32c2e1fb7aee6,67d15f060b104b8efb4e800f,2025-03-12_11h18.08.031,Tarea de decisión léxica,2024.2.5,Win32,60.24096386,,,,,,,,,,,,,,,,,,,,,,,275.4786,276.51,l,1,0.3504,1,276.5102,277.01,,,,,,327,MAS,WORD,AGR,150,fondo,,el,,0.3504,,277.01,277.0102,-0.094195519,-0.385946985,0,0,0,,0,147,147,326,1,lendo,,,,
,,,,,,60984a1b0cce76d16c4ca781,676192165fb32c2e1fb7aee6,67d15f060b104b8efb4e800f,2025-03-12_11h18.08.031,Tarea de decisión léxica,2024.2.5,Win32,60.24096386,,,,,,,,,,,,,,,,,,,,,,,277.011,278.1434,l,1,0.4503,1,278.1435,278.6434,,,,,,465,FEM,WORD,AGR,150,aguja,,la,,0.4503,,278.6435,278.6435,-0.094195519,-0.385946985,0,0,0,,0,148,148,464,1,asuba,,,,
,,,,,,60984a1b0cce76d16c4ca781,676192165fb32c2e1fb7aee6,67d15f060b104b8efb4e800f,2025-03-12_11h18.08.031,Tarea de decisión léxica,2024.2.5,Win32,60.24096386,,,,,,,,,,,,,,,,,,,,,,,278.6444,279.6267,l,1,0.3087,1,279.6268,280.1268,,,,,,51,FEM,WORD,AGR,150,caja,,la,,0.3087,,280.1269,280.127,-0.094195519,-0.385946985,0,0,0,,0,149,149,50,1,mava,,,,
,,,,,,60984a1b0cce76d16c4ca781,676192165fb32c2e1fb7aee6,67d15f060b104b8efb4e800f,2025-03-12_11h18.08.031,Tarea de decisión léxica,2024.2.5,Win32,60.24096386,,,,,,,,,,,,,,,,,,,,,,,280.1278,281.0769,l,1,0.2734,1,281.0769,281.5769,,,,,,163,FEM,WORD,AGR,150,fama,,la,,0.2734,,281.5769,281.577,-0.094195519,-0.385946985,0,0,0,,0,150,150,162,1,laga,,,,
,,,,,,60984a1b0cce76d16c4ca781,676192165fb32c2e1fb7aee6,67d15f060b104b8efb4e800f,2025-03-12_11h18.08.031,Tarea de decisión léxica,2024.2.5,Win32,60.24096386,,,,,,,,,,,,,,,,,,,,,,,281.5779,282.677,l,0,0.4171,0,282.6778,283.1769,,,,,,64,FEM,NOWORD,AGR,150,funa,,la,,0.4171,,283.1779,283.1784,-0.094195519,-0.385946985,0,0,0,,0,151,151,63,1,luna,,,,
,,,,,,60984a1b0cce76d16c4ca781,676192165fb32c2e1fb7aee6,67d15f060b104b8efb4e800f,2025-03-12_11h18.08.031,Tarea de decisión léxica,2024.2.5,Win32,60.24096386,,,,,,,,,,,,,,,,,,,,,,,283.1789,284.4603,a,1,0.6071,1,284.461,284.9603,,,,,,308,MAS,NOWORD,AGR,150,holol,,el,,0.6071,,284.9604,284.9605,-0.094195519,-0.385946985,0,0,0,,0,152,152,307,1,hotel,,,,
,,,,,,60984a1b0cce76d16c4ca781,676192165fb32c2e1fb7aee6,67d15f060b104b8efb4e800f,2025-03-12_11h18.08.031,Tarea de decisión léxica,2024.2.5,Win32,60.24096386,,,,,,,,,,,,,,,,,,,,,,,284.9614,286.0438,l,0,0.4004,0,286.0445,286.5438,,,,,,46,FEM,NOWORD,DIS,150,pema,,el,,0.4004,,286.5438,286.5439,-0.094195519,-0.385946985,0,0,0,,0,153,153,45,1,mesa,,,,
,,,,,,60984a1b0cce76d16c4ca781,676192165fb32c2e1fb7aee6,67d15f060b104b8efb4e800f,2025-03-12_11h18.08.031,Tarea de decisión léxica,2024.2.5,Win32,60.24096386,,,,,,,,,,,,,,,,,,,,,,,286.5448,287.6439,l,1,0.417,1,287.6446,288.1438,,,,,,265,FEM,WORD,DIS,150,mitad,,el,,0.417,,288.1439,288.144,-0.094195519,-0.385946985,0,0,0,,0,154,154,264,1,pitat,,,,
,,,,,,60984a1b0cce76d16c4ca781,676192165fb32c2e1fb7aee6,67d15f060b104b8efb4e800f,2025-03-12_11h18.08.031,Tarea de decisión léxica,2024.2.5,Win32,60.24096386,,,,,,,,,,,,,,,,,,,,,,,288.1448,289.3272,a,1,0.5004,1,289.3273,289.8273,,,,,,334,FEM,NOWORD,DIS,150,dalea,,el,,0.5004,,289.8284,289.8288,-0.094195519,-0.385946985,0,0,0,,0,155,155,333,1,tarea,,,,
,,,,,,60984a1b0cce76d16c4ca781,676192165fb32c2e1fb7aee6,67d15f060b104b8efb4e800f,2025-03-12_11h18.08.031,Tarea de decisión léxica,2024.2.5,Win32,60.24096386,,,,,,,,,,,,,,,,,,,,,,,289.8295,290.8774,a,1,0.3669,1,290.8775,291.3774,,,,,,134,FEM,NOWORD,DIS,150,vesa,,el,,0.3669,,291.3775,291.3775,-0.094195519,-0.385946985,0,0,0,,0,156,156,133,1,vaca,,,,
,,,,,,60984a1b0cce76d16c4ca781,676192165fb32c2e1fb7aee6,67d15f060b104b8efb4e800f,2025-03-12_11h18.08.031,Tarea de decisión léxica,2024.2.5,Win32,60.24096386,,,,,,,,,,,,,,,,,,,,,,,291.3782,292.5941,l,0,0.5347,0,292.5947,293.094,,,,,,360,MAS,NOWORD,AGR,150,cacer,,el,,0.5347,,293.0941,293.0942,-0.094195519,-0.385946985,0,0,0,,0,157,157,359,1,calor,,,,
,,,,,,60984a1b0cce76d16c4ca781,676192165fb32c2e1fb7aee6,67d15f060b104b8efb4e800f,2025-03-12_11h18.08.031,Tarea de decisión léxica,2024.2.5,Win32,60.24096386,,,,,,,,,,,,,,,,,,,,,,,293.0951,294.1441,l,1,0.367,1,294.1449,294.6441,,,,,,215,FEM,WORD,DIS,150,raíz,,el,,0.367,,294.6442,294.6443,-0.094195519,-0.385946985,0,0,0,,0,158,158,214,1,raua,,,,
,,,,,,60984a1b0cce76d16c4ca781,676192165fb32c2e1fb7aee6,67d15f060b104b8efb4e800f,2025-03-12_11h18.08.031,Tarea de decisión léxica,2024.2.5,Win32,60.24096386,,,,,,,,,,,,,,,,,,,,,,,294.6451,295.6776,l,1,0.3503,1,295.6776,296.1775,,,,,,129,MAS,WORD,DIS,150,oído,,la,,0.3503,,296.1776,296.1777,-0.094195519,-0.385946985,0,0,0,,0,159,159,128,1,pima,,,,
,,,,,,60984a1b0cce76d16c4ca781,676192165fb32c2e1fb7aee6,67d15f060b104b8efb4e800f,2025-03-12_11h18.08.031,Tarea de decisión léxica,2024.2.5,Win32,60.24096386,,,,,,,,,,,,,,,,,,,,,,,296.1786,297.1776,a,1,0.3186,1,297.1778,297.6776,,,,,,238,MAS,NOWORD,DIS,150,huco,,la,,0.3186,,297.6786,302.6279,-0.094195519,-0.385946985,0,0,0,space,0,160,160,237,1,nudo,4.9225,,,
,,,,,,60984a1b0cce76d16c4ca781,676192165fb32c2e1fb7aee6,67d15f060b104b8efb4e800f,2025-03-12_11h18.08.031,Tarea de decisión léxica,2024.2.5,Win32,60.24096386,,,,,,,,,,,,,,,,,,,,,,,302.6287,304.0112,l,0,0.7005,0,304.012,304.5113,,,,,,248,FEM,NOWORD,AGR,150,trida,,la,,0.7005,,304.5113,304.5113,-0.094195519,-0.385946985,0,0,0,,0,161,161,247,1,chica,,,,
,,,,,,60984a1b0cce76d16c4ca781,676192165fb32c2e1fb7aee6,67d15f060b104b8efb4e800f,2025-03-12_11h18.08.031,Tarea de decisión léxica,2024.2.5,Win32,60.24096386,,,,,,,,,,,,,,,,,,,,,,,304.5121,305.8448,l,1,0.6473,1,305.8454,306.3447,,,,,,449,FEM,WORD,DIS,150,pluma,,el,,0.6473,,306.3448,306.3449,-0.094195519,-0.385946985,0,0,0,,0,162,162,448,1,crusa,,,,
,,,,,,60984a1b0cce76d16c4ca781,676192165fb32c2e1fb7aee6,67d15f060b104b8efb4e800f,2025-03-12_11h18.08.031,Tarea de decisión léxica,2024.2.5,Win32,60.24096386,,,,,,,,,,,,,,,,,,,,,,,306.3458,307.6114,a,1,0.5838,1,307.6116,308.1115,,,,,,214,FEM,NOWORD,DIS,150,bana,,el,,0.5838,,308.1115,308.1116,-0.094195519,-0.385946985,0,0,0,,0,163,163,213,1,rama,,,,
,,,,,,60984a1b0cce76d16c4ca781,676192165fb32c2e1fb7aee6,67d15f060b104b8efb4e800f,2025-03-12_11h18.08.031,Tarea de decisión léxica,2024.2.5,Win32,60.24096386,,,,,,,,,,,,,,,,,,,,,,,308.1125,309.8448,l,1,1.0565,1,309.8449,310.3449,,,,,,333,FEM,WORD,DIS,150,tarea,,el,,1.0565,,310.345,310.345,-0.094195519,-0.385946985,0,0,0,,0,164,164,332,1,dalea,,,,
,,,,,,60984a1b0cce76d16c4ca781,676192165fb32c2e1fb7aee6,67d15f060b104b8efb4e800f,2025-03-12_11h18.08.031,Tarea de decisión léxica,2024.2.5,Win32,60.24096386,,,,,,,,,,,,,,,,,,,,,,,310.3459,311.4282,l,1,0.4071,1,311.4283,311.9283,,,,,,275,MAS,WORD,DIS,150,punto,,la,,0.4071,,311.9293,311.9299,-0.094195519,-0.385946985,0,0,0,,0,165,165,274,1,musto,,,,
,,,,,,60984a1b0cce76d16c4ca781,676192165fb32c2e1fb7aee6,67d15f060b104b8efb4e800f,2025-03-12_11h18.08.031,Tarea de decisión léxica,2024.2.5,Win32,60.24096386,,,,,,,,,,,,,,,,,,,,,,,311.9304,312.945,l,1,0.3436,1,312.945,313.445,,,,,,295,MAS,WORD,DIS,150,dolor,,la,,0.3436,,313.4451,313.4452,-0.094195519,-0.385946985,0,0,0,,0,166,166,294,1,goler,,,,
,,,,,,60984a1b0cce76d16c4ca781,676192165fb32c2e1fb7aee6,67d15f060b104b8efb4e800f,2025-03-12_11h18.08.031,Tarea de decisión léxica,2024.2.5,Win32,60.24096386,,,,,,,,,,,,,,,,,,,,,,,313.446,314.745,a,1,0.6272,1,314.7451,315.2451,,,,,,76,MAS,NOWORD,AGR,150,ocer,,el,,0.6272,,315.2451,315.2453,-0.094195519,-0.385946985,0,0,0,,0,167,167,75,1,olor,,,,
,,,,,,60984a1b0cce76d16c4ca781,676192165fb32c2e1fb7aee6,67d15f060b104b8efb4e800f,2025-03-12_11h18.08.031,Tarea de decisión léxica,2024.2.5,Win32,60.24096386,,,,,,,,,,,,,,,,,,,,,,,315.2461,316.4952,a,1,0.5672,1,316.4953,316.9952,,,,,,82,FEM,NOWORD,DIS,150,vasa,,el,,0.5672,,316.9952,316.9953,-0.094195519,-0.385946985,0,0,0,,0,168,168,81,1,dama,,,,
,,,,,,60984a1b0cce76d16c4ca781,676192165fb32c2e1fb7aee6,67d15f060b104b8efb4e800f,2025-03-12_11h18.08.031,Tarea de decisión léxica,2024.2.5,Win32,60.24096386,,,,,,,,,,,,,,,,,,,,,,,316.9961,319.0953,l,0,1.4207,0,319.0961,319.5952,,,,,,470,MAS,NOWORD,DIS,150,matia,,la,,1.4207,,319.5952,319.5953,-0.094195519,-0.385946985,0,0,0,,0,169,169,469,1,patio,,,,
,,,,,,60984a1b0cce76d16c4ca781,676192165fb32c2e1fb7aee6,67d15f060b104b8efb4e800f,2025-03-12_11h18.08.031,Tarea de decisión léxica,2024.2.5,Win32,60.24096386,,,,,,,,,,,,,,,,,,,,,,,319.5961,320.8954,a,1,0.6204,1,320.896,321.3954,,,,,,426,FEM,NOWORD,DIS,150,virca,,el,,0.6204,,321.3964,321.3968,-0.094195519,-0.385946985,0,0,0,,0,170,170,425,1,viuda,,,,
,,,,,,60984a1b0cce76d16c4ca781,676192165fb32c2e1fb7aee6,67d15f060b104b8efb4e800f,2025-03-12_11h18.08.031,Tarea de decisión léxica,2024.2.5,Win32,60.24096386,,,,,,,,,,,,,,,,,,,,,,,321.3974,322.3955,a,0,0.3171,0,322.3961,322.8955,,,,,,291,FEM,WORD,DIS,150,pista,,el,,0.3171,,322.8956,322.8957,-0.094195519,-0.385946985,0,0,0,,0,171,171,290,1,mesta,,,,
,,,,,,60984a1b0cce76d16c4ca781,676192165fb32c2e1fb7aee6,67d15f060b104b8efb4e800f,2025-03-12_11h18.08.031,Tarea de decisión léxica,2024.2.5,Win32,60.24096386,,,,,,,,,,,,,,,,,,,,,,,322.8965,324.1124,a,1,0.5446,1,324.1131,324.6122,,,,,,194,FEM,NOWORD,DIS,150,foda,,el,,0.5446,,324.6122,324.6124,-0.094195519,-0.385946985,0,0,0,,0,172,172,193,1,loca,,,,
,,,,,,60984a1b0cce76d16c4ca781,676192165fb32c2e1fb7aee6,67d15f060b104b8efb4e800f,2025-03-12_11h18.08.031,Tarea de decisión léxica,2024.2.5,Win32,60.24096386,,,,,,,,,,,,,,,,,,,,,,,324.6131,325.6122,l,1,0.3236,1,325.6123,326.1123,,,,,,47,MAS,WORD,AGR,150,club,,el,,0.3236,,326.1124,326.1125,-0.094195519,-0.385946985,0,0,0,,0,173,173,46,1,chub,,,,
,,,,,,60984a1b0cce76d16c4ca781,676192165fb32c2e1fb7aee6,67d15f060b104b8efb4e800f,2025-03-12_11h18.08.031,Tarea de decisión léxica,2024.2.5,Win32,60.24096386,,,,,,,,,,,,,,,,,,,,,,,326.1133,327.3292,l,1,0.5356,1,327.3292,327.829,,,,,,245,FEM,WORD,AGR,150,madre,,la,,0.5356,,327.8291,327.8292,-0.094195519,-0.385946985,0,0,0,,0,174,174,244,1,pafle,,,,
,,,,,,60984a1b0cce76d16c4ca781,676192165fb32c2e1fb7aee6,67d15f060b104b8efb4e800f,2025-03-12_11h18.08.031,Tarea de decisión léxica,2024.2.5,Win32,60.24096386,,,,,,,,,,,,,,,,,,,,,,,327.8302,328.9957,a,1,0.4908,1,328.9958,329.4958,,,,,,422,MAS,NOWORD,DIS,150,griso,,la,,0.4908,,329.4968,329.4972,-0.094195519,-0.385946985,0,0,0,,0,175,175,421,1,primo,,,,
,,,,,,60984a1b0cce76d16c4ca781,676192165fb32c2e1fb7aee6,67d15f060b104b8efb4e800f,2025-03-12_11h18.08.031,Tarea de decisión léxica,2024.2.5,Win32,60.24096386,,,,,,,,,,,,,,,,,,,,,,,329.4978,330.6625,a,1,0.4836,1,330.6626,331.1626,,,,,,16,FEM,NOWORD,AGR,150,odea,,la,,0.4836,,331.1627,331.1627,-0.094195519,-0.385946985,0,0,0,,0,176,176,15,1,idea,,,,
,,,,,,60984a1b0cce76d16c4ca781,676192165fb32c2e1fb7aee6,67d15f060b104b8efb4e800f,2025-03-12_11h18.08.031,Tarea de decisión léxica,2024.2.5,Win32,60.24096386,,,,,,,,,,,,,,,,,,,,,,,331.1637,332.6126,a,1,0.7731,1,332.6127,333.1126,,,,,,26,FEM,NOWORD,DIS,150,paza,,el,,0.7731,,333.1126,333.1128,-0.094195519,-0.385946985,0,0,0,,0,177,177,25,1,cama,,,,
,,,,,,60984a1b0cce76d16c4ca781,676192165fb32c2e1fb7aee6,67d15f060b104b8efb4e800f,2025-03-12_11h18.08.031,Tarea de decisión léxica,2024.2.5,Win32,60.24096386,,,,,,,,,,,,,,,,,,,,,,,333.1137,334.4128,l,1,0.6172,1,334.4129,334.9127,,,,,,29,MAS,WORD,AGR,150,modo,,el,,0.6172,,334.9128,334.9128,-0.094195519,-0.385946985,0,0,0,,0,178,178,28,1,pono,,,,
,,,,,,60984a1b0cce76d16c4ca781,676192165fb32c2e1fb7aee6,67d15f060b104b8efb4e800f,2025-03-12_11h18.08.031,Tarea de decisión léxica,2024.2.5,Win32,60.24096386,,,,,,,,,,,,,,,,,,,,,,,334.9138,335.8795,l,1,0.2838,1,335.8796,336.3796,,,,,,435,MAS,WORD,DIS,150,ritmo,,la,,0.2838,,336.3805,336.381,-0.094195519,-0.385946985,0,0,0,,0,179,179,434,1,ricno,,,,
,,,,,,60984a1b0cce76d16c4ca781,676192165fb32c2e1fb7aee6,67d15f060b104b8efb4e800f,2025-03-12_11h18.08.031,Tarea de decisión léxica,2024.2.5,Win32,60.24096386,,,,,,,,,,,,,,,,,,,,,,,336.3815,337.6128,l,1,0.5565,1,337.6129,338.1128,,,,,,197,MAS,WORD,AGR,150,bate,,el,,0.5565,,338.1128,338.113,-0.094195519,-0.385946985,0,0,0,,0,180,180,196,1,dade,,,,
,,,,,,60984a1b0cce76d16c4ca781,676192165fb32c2e1fb7aee6,67d15f060b104b8efb4e800f,2025-03-12_11h18.08.031,Tarea de decisión léxica,2024.2.5,Win32,60.24096386,,,,,,,,,,,,,,,,,,,,,,,338.1139,339.2961,a,1,0.5108,1,339.2962,339.7962,,,,,,356,FEM,NOWORD,AGR,150,bepla,,la,,0.5108,,339.7963,339.7964,-0.094195519,-0.385946985,0,0,0,,0,181,181,355,1,regla,,,,
,,,,,,60984a1b0cce76d16c4ca781,676192165fb32c2e1fb7aee6,67d15f060b104b8efb4e800f,2025-03-12_11h18.08.031,Tarea de decisión léxica,2024.2.5,Win32,60.24096386,,,,,,,,,,,,,,,,,,,,,,,339.7973,340.8797,l,1,0.4005,1,340.8798,341.3796,,,,,,345,FEM,WORD,AGR,150,arena,,la,,0.4005,,341.3797,341.3798,-0.094195519,-0.385946985,0,0,0,,0,182,182,344,1,anera,,,,
,,,,,,60984a1b0cce76d16c4ca781,676192165fb32c2e1fb7aee6,67d15f060b104b8efb4e800f,2025-03-12_11h18.08.031,Tarea de decisión léxica,2024.2.5,Win32,60.24096386,,,,,,,,,,,,,,,,,,,,,,,341.3807,342.4131,l,1,0.356,1,342.4131,342.9131,,,,,,339,MAS,WORD,AGR,150,brazo,,el,,0.356,,342.9131,342.9131,-0.094195519,-0.385946985,0,0,0,,0,183,183,338,1,plajo,,,,
,,,,,,60984a1b0cce76d16c4ca781,676192165fb32c2e1fb7aee6,67d15f060b104b8efb4e800f,2025-03-12_11h18.08.031,Tarea de decisión léxica,2024.2.5,Win32,60.24096386,,,,,,,,,,,,,,,,,,,,,,,342.914,344.1965,a,1,0.6004,1,344.1966,344.6966,,,,,,40,MAS,NOWORD,AGR,150,redo,,el,,0.6004,,344.6975,344.698,-0.094195519,-0.385946985,0,0,0,,0,184,184,39,1,voto,,,,
,,,,,,60984a1b0cce76d16c4ca781,676192165fb32c2e1fb7aee6,67d15f060b104b8efb4e800f,2025-03-12_11h18.08.031,Tarea de decisión léxica,2024.2.5,Win32,60.24096386,,,,,,,,,,,,,,,,,,,,,,,344.6986,345.8466,a,1,0.471,1,345.8466,346.3466,,,,,,168,FEM,NOWORD,AGR,150,zifa,,la,,0.471,,346.3466,346.3467,-0.094195519,-0.385946985,0,0,0,,0,185,185,167,1,jefa,,,,
,,,,,,60984a1b0cce76d16c4ca781,676192165fb32c2e1fb7aee6,67d15f060b104b8efb4e800f,2025-03-12_11h18.08.031,Tarea de decisión léxica,2024.2.5,Win32,60.24096386,,,,,,,,,,,,,,,,,,,,,,,346.3476,347.4467,l,1,0.421,1,347.4467,347.9466,,,,,,85,MAS,WORD,DIS,150,lago,,la,,0.421,,347.9467,347.9468,-0.094195519,-0.385946985,0,0,0,,0,186,186,84,1,babo,,,,
,,,,,,60984a1b0cce76d16c4ca781,676192165fb32c2e1fb7aee6,67d15f060b104b8efb4e800f,2025-03-12_11h18.08.031,Tarea de decisión léxica,2024.2.5,Win32,60.24096386,,,,,,,,,,,,,,,,,,,,,,,347.9478,349.5133,a,1,0.8932,1,349.5134,350.0134,,,,,,472,FEM,NOWORD,AGR,150,prana,,la,,0.8932,,350.0134,350.0135,-0.094195519,-0.385946985,0,0,0,,0,187,187,471,1,grasa,,,,
,,,,,,60984a1b0cce76d16c4ca781,676192165fb32c2e1fb7aee6,67d15f060b104b8efb4e800f,2025-03-12_11h18.08.031,Tarea de decisión léxica,2024.2.5,Win32,60.24096386,,,,,,,,,,,,,,,,,,,,,,,350.0144,351.1636,l,1,0.4743,1,351.1637,351.6634,,,,,,353,FEM,WORD,AGR,150,celda,,la,,0.4743,,351.6635,351.6636,-0.094195519,-0.385946985,0,0,0,,0,188,188,352,1,cezca,,,,
,,,,,,60984a1b0cce76d16c4ca781,676192165fb32c2e1fb7aee6,67d15f060b104b8efb4e800f,2025-03-12_11h18.08.031,Tarea de decisión léxica,2024.2.5,Win32,60.24096386,,,,,,,,,,,,,,,,,,,,,,,351.6645,354.1469,a,1,1.8004,1,354.147,354.647,,,,,,228,MAS,NOWORD,AGR,150,laro,,el,,1.8004,,354.6481,354.6486,-0.094195519,-0.385946985,0,0,0,,0,189,189,227,1,faro,,,,
,,,,,,60984a1b0cce76d16c4ca781,676192165fb32c2e1fb7aee6,67d15f060b104b8efb4e800f,2025-03-12_11h18.08.031,Tarea de decisión léxica,2024.2.5,Win32,60.24096386,,,,,,,,,,,,,,,,,,,,,,,354.6491,355.8638,l,1,0.5341,1,355.8638,356.3636,,,,,,329,MAS,WORD,DIS,150,hueso,,la,,0.5341,,356.3637,356.3638,-0.094195519,-0.385946985,0,0,0,,0,190,190,328,1,nueno,,,,
,,,,,,60984a1b0cce76d16c4ca781,676192165fb32c2e1fb7aee6,67d15f060b104b8efb4e800f,2025-03-12_11h18.08.031,Tarea de decisión léxica,2024.2.5,Win32,60.24096386,,,,,,,,,,,,,,,,,,,,,,,356.3646,357.4305,l,1,0.3879,1,357.4305,357.9305,,,,,,83,FEM,WORD,AGR,150,bala,,la,,0.3879,,357.9305,357.9306,-0.094195519,-0.385946985,0,0,0,,0,191,191,82,1,taga,,,,
,,,,,,60984a1b0cce76d16c4ca781,676192165fb32c2e1fb7aee6,67d15f060b104b8efb4e800f,2025-03-12_11h18.08.031,Tarea de decisión léxica,2024.2.5,Win32,60.24096386,,,,,,,,,,,,,,,,,,,,,,,357.9316,359.0867,a,1,0.4838,1,359.0867,359.5805,,,,,,330,MAS,NOWORD,DIS,150,nueno,,la,,0.4838,,359.5806,359.5807,-0.094195519,-0.385946985,0,0,0,,0,192,192,329,1,hueso,,,,
,,,,,,60984a1b0cce76d16c4ca781,676192165fb32c2e1fb7aee6,67d15f060b104b8efb4e800f,2025-03-12_11h18.08.031,Tarea de decisión léxica,2024.2.5,Win32,60.24096386,,,,,,,,,,,,,,,,,,,,,,,359.5816,360.6973,a,1,0.4351,1,360.6973,361.1973,,,,,,276,MAS,NOWORD,AGR,150,musto,,el,,0.4351,,361.1974,361.1974,-0.094195519,-0.385946985,0,0,0,,0,193,193,275,1,punto,,,,
,,,,,,60984a1b0cce76d16c4ca781,676192165fb32c2e1fb7aee6,67d15f060b104b8efb4e800f,2025-03-12_11h18.08.031,Tarea de decisión léxica,2024.2.5,Win32,60.24096386,,,,,,,,,,,,,,,,,,,,,,,361.1983,362.4139,a,1,0.5382,1,362.414,362.914,,,,,,310,FEM,NOWORD,DIS,150,tirra,,el,,0.5382,,362.9152,362.9157,-0.094195519,-0.385946985,0,0,0,,0,194,194,309,1,silla,,,,
,,,,,,60984a1b0cce76d16c4ca781,676192165fb32c2e1fb7aee6,67d15f060b104b8efb4e800f,2025-03-12_11h18.08.031,Tarea de decisión léxica,2024.2.5,Win32,60.24096386,,,,,,,,,,,,,,,,,,,,,,,362.9162,364.164,l,1,0.5734,1,364.1642,364.6641,,,,,,57,MAS,WORD,AGR,150,dedo,,el,,0.5734,,364.6642,364.6643,-0.094195519,-0.385946985,0,0,0,,0,195,195,56,1,heco,,,,
,,,,,,60984a1b0cce76d16c4ca781,676192165fb32c2e1fb7aee6,67d15f060b104b8efb4e800f,2025-03-12_11h18.08.031,Tarea de decisión léxica,2024.2.5,Win32,60.24096386,,,,,,,,,,,,,,,,,,,,,,,364.6652,365.6973,a,1,0.3596,1,365.6975,366.1975,,,,,,286,MAS,NOWORD,DIS,150,echor,,la,,0.3596,,366.1976,366.1977,-0.094195519,-0.385946985,0,0,0,,0,196,196,285,1,error,,,,
,,,,,,60984a1b0cce76d16c4ca781,676192165fb32c2e1fb7aee6,67d15f060b104b8efb4e800f,2025-03-12_11h18.08.031,Tarea de decisión léxica,2024.2.5,Win32,60.24096386,,,,,,,,,,,,,,,,,,,,,,,366.1985,367.2642,l,0,0.3861,0,367.2649,367.7643,,,,,,250,FEM,NOWORD,DIS,150,plane,,el,,0.3861,,367.7644,367.7644,-0.094195519,-0.385946985,0,0,0,,0,197,197,249,1,clase,,,,
,,,,,,60984a1b0cce76d16c4ca781,676192165fb32c2e1fb7aee6,67d15f060b104b8efb4e800f,2025-03-12_11h18.08.031,Tarea de decisión léxica,2024.2.5,Win32,60.24096386,,,,,,,,,,,,,,,,,,,,,,,367.7652,368.7477,a,1,0.3003,1,368.7484,369.2476,,,,,,446,MAS,NOWORD,DIS,150,ascor,,la,,0.3003,,369.2476,369.2478,-0.094195519,-0.385946985,0,0,0,,0,198,198,445,1,actor,,,,
,,,,,,60984a1b0cce76d16c4ca781,676192165fb32c2e1fb7aee6,67d15f060b104b8efb4e800f,2025-03-12_11h18.08.031,Tarea de decisión léxica,2024.2.5,Win32,60.24096386,,,,,,,,,,,,,,,,,,,,,,,369.2486,370.2977,l,1,0.3759,1,370.2977,370.7977,,,,,,3,FEM,WORD,DIS,150,vida,,el,,0.3759,,370.7987,370.7992,-0.094195519,-0.385946985,0,0,0,,0,199,199,2,1,dica,,,,
,,,,,,60984a1b0cce76d16c4ca781,676192165fb32c2e1fb7aee6,67d15f060b104b8efb4e800f,2025-03-12_11h18.08.031,Tarea de decisión léxica,2024.2.5,Win32,60.24096386,,,,,,,,,,,,,,,,,,,,,,,370.7997,371.7977,a,0,0.3171,0,371.7984,372.2978,,,,,,433,MAS,WORD,AGR,150,disco,,el,,0.3171,,372.2978,372.2979,-0.094195519,-0.385946985,0,0,0,,0,200,200,432,1,durco,,,,
,,,,,,60984a1b0cce76d16c4ca781,676192165fb32c2e1fb7aee6,67d15f060b104b8efb4e800f,2025-03-12_11h18.08.031,Tarea de decisión léxica,2024.2.5,Win32,60.24096386,,,,,,,,,,,,,,,,,,,,,,,372.2988,373.2811,l,1,0.3097,1,373.2817,373.7812,,,,,,411,MAS,WORD,DIS,150,pollo,,la,,0.3097,,373.7813,373.7815,-0.094195519,-0.385946985,0,0,0,,0,201,201,410,1,mobro,,,,
,,,,,,60984a1b0cce76d16c4ca781,676192165fb32c2e1fb7aee6,67d15f060b104b8efb4e800f,2025-03-12_11h18.08.031,Tarea de decisión léxica,2024.2.5,Win32,60.24096386,,,,,,,,,,,,,,,,,,,,,,,373.7826,374.8479,a,0,0.3864,0,374.8487,375.3479,,,,,,319,MAS,WORD,AGR,150,suelo,,el,,0.3864,,375.348,375.3481,-0.094195519,-0.385946985,0,0,0,,0,202,202,318,1,tuero,,,,
,,,,,,60984a1b0cce76d16c4ca781,676192165fb32c2e1fb7aee6,67d15f060b104b8efb4e800f,2025-03-12_11h18.08.031,Tarea de decisión léxica,2024.2.5,Win32,60.24096386,,,,,,,,,,,,,,,,,,,,,,,375.349,376.4146,a,1,0.3838,1,376.4153,376.9147,,,,,,342,MAS,NOWORD,DIS,150,daror,,la,,0.3838,,376.9157,376.9162,-0.094195519,-0.385946985,0,0,0,,0,203,203,341,1,valor,,,,
,,,,,,60984a1b0cce76d16c4ca781,676192165fb32c2e1fb7aee6,67d15f060b104b8efb4e800f,2025-03-12_11h18.08.031,Tarea de decisión léxica,2024.2.5,Win32,60.24096386,,,,,,,,,,,,,,,,,,,,,,,376.9166,378.0314,a,1,0.4366,1,378.0314,378.5315,,,,,,100,MAS,NOWORD,AGR,150,soro,,el,,0.4366,,378.5315,378.5316,-0.094195519,-0.385946985,0,0,0,,0,204,204,99,1,lobo,,,,
,,,,,,60984a1b0cce76d16c4ca781,676192165fb32c2e1fb7aee6,67d15f060b104b8efb4e800f,2025-03-12_11h18.08.031,Tarea de decisión léxica,2024.2.5,Win32,60.24096386,,,,,,,,,,,,,,,,,,,,,,,378.5325,379.6649,a,1,0.452,1,379.6649,380.1648,,,,,,324,FEM,NOWORD,AGR,150,certa,,la,,0.452,,380.1649,380.165,-0.094195519,-0.385946985,0,0,0,,0,205,205,323,1,cinta,,,,
,,,,,,60984a1b0cce76d16c4ca781,676192165fb32c2e1fb7aee6,67d15f060b104b8efb4e800f,2025-03-12_11h18.08.031,Tarea de decisión léxica,2024.2.5,Win32,60.24096386,,,,,,,,,,,,,,,,,,,,,,,380.1658,381.2149,l,1,0.3671,1,381.215,381.7149,,,,,,189,MAS,WORD,DIS,150,puño,,la,,0.3671,,381.715,381.7151,-0.094195519,-0.385946985,0,0,0,,0,206,206,188,1,muvo,,,,
,,,,,,60984a1b0cce76d16c4ca781,676192165fb32c2e1fb7aee6,67d15f060b104b8efb4e800f,2025-03-12_11h18.08.031,Tarea de decisión léxica,2024.2.5,Win32,60.24096386,,,,,,,,,,,,,,,,,,,,,,,381.7159,382.7316,l,1,0.3406,1,382.7317,383.2316,,,,,,15,FEM,WORD,AGR,150,idea,,la,,0.3406,,383.2317,383.2318,-0.094195519,-0.385946985,0,0,0,,0,207,207,14,1,odea,,,,
,,,,,,60984a1b0cce76d16c4ca781,676192165fb32c2e1fb7aee6,67d15f060b104b8efb4e800f,2025-03-12_11h18.08.031,Tarea de decisión léxica,2024.2.5,Win32,60.24096386,,,,,,,,,,,,,,,,,,,,,,,383.2327,384.2483,l,1,0.3437,1,384.2483,384.7483,,,,,,91,FEM,WORD,DIS,150,taza,,el,,0.3437,,384.7495,384.7499,-0.094195519,-0.385946985,0,0,0,,0,208,208,90,1,sava,,,,
,,,,,,60984a1b0cce76d16c4ca781,676192165fb32c2e1fb7aee6,67d15f060b104b8efb4e800f,2025-03-12_11h18.08.031,Tarea de decisión léxica,2024.2.5,Win32,60.24096386,,,,,,,,,,,,,,,,,,,,,,,384.7504,385.9151,l,1,0.491,1,385.9152,386.4151,,,,,,441,FEM,WORD,AGR,150,selva,,la,,0.491,,386.4152,386.4153,-0.094195519,-0.385946985,0,0,0,,0,209,209,440,1,telza,,,,
,,,,,,60984a1b0cce76d16c4ca781,676192165fb32c2e1fb7aee6,67d15f060b104b8efb4e800f,2025-03-12_11h18.08.031,Tarea de decisión léxica,2024.2.5,Win32,60.24096386,,,,,,,,,,,,,,,,,,,,,,,386.4162,387.432,l,1,0.3445,1,387.432,387.9319,,,,,,23,FEM,WORD,AGR,150,hija,,la,,0.3445,,387.9319,387.932,-0.094195519,-0.385946985,0,0,0,,0,210,210,22,1,giva,,,,
,,,,,,60984a1b0cce76d16c4ca781,676192165fb32c2e1fb7aee6,67d15f060b104b8efb4e800f,2025-03-12_11h18.08.031,Tarea de decisión léxica,2024.2.5,Win32,60.24096386,,,,,,,,,,,,,,,,,,,,,,,387.9328,389.0319,l,1,0.417,1,389.032,389.5319,,,,,,301,FEM,WORD,DIS,150,banda,,el,,0.417,,389.532,389.5321,-0.094195519,-0.385946985,0,0,0,,0,211,211,300,1,ranga,,,,
,,,,,,60984a1b0cce76d16c4ca781,676192165fb32c2e1fb7aee6,67d15f060b104b8efb4e800f,2025-03-12_11h18.08.031,Tarea de decisión léxica,2024.2.5,Win32,60.24096386,,,,,,,,,,,,,,,,,,,,,,,389.5329,390.6154,l,1,0.4034,1,390.6155,391.1153,,,,,,165,FEM,WORD,DIS,150,vela,,el,,0.4034,,391.1154,391.1154,-0.094195519,-0.385946985,0,0,0,,0,212,212,164,1,dera,,,,
,,,,,,60984a1b0cce76d16c4ca781,676192165fb32c2e1fb7aee6,67d15f060b104b8efb4e800f,2025-03-12_11h18.08.031,Tarea de decisión léxica,2024.2.5,Win32,60.24096386,,,,,,,,,,,,,,,,,,,,,,,391.1163,392.282,a,1,0.4842,1,392.2821,392.7822,,,,,,374,FEM,NOWORD,DIS,150,pogza,,el,,0.4842,,392.7832,392.7837,-0.094195519,-0.385946985,0,0,0,,0,213,213,373,1,pizza,,,,
,,,,,,60984a1b0cce76d16c4ca781,676192165fb32c2e1fb7aee6,67d15f060b104b8efb4e800f,2025-03-12_11h18.08.031,Tarea de decisión léxica,2024.2.5,Win32,60.24096386,,,,,,,,,,,,,,,,,,,,,,,392.7842,394.0988,l,1,0.6416,1,394.0989,394.5988,,,,,,279,FEM,WORD,AGR,150,prisa,,la,,0.6416,,394.5989,394.5989,-0.094195519,-0.385946985,0,0,0,,0,214,214,278,1,grina,,,,
,,,,,,60984a1b0cce76d16c4ca781,676192165fb32c2e1fb7aee6,67d15f060b104b8efb4e800f,2025-03-12_11h18.08.031,Tarea de decisión léxica,2024.2.5,Win32,60.24096386,,,,,,,,,,,,,,,,,,,,,,,394.5998,395.5656,l,1,0.2836,1,395.5657,396.0656,,,,,,117,MAS,WORD,AGR,150,palo,,el,,0.2836,,396.0657,396.0658,-0.094195519,-0.385946985,0,0,0,,0,215,215,116,1,movo,,,,
,,,,,,60984a1b0cce76d16c4ca781,676192165fb32c2e1fb7aee6,67d15f060b104b8efb4e800f,2025-03-12_11h18.08.031,Tarea de decisión léxica,2024.2.5,Win32,60.24096386,,,,,,,,,,,,,,,,,,,,,,,396.0667,397.0158,l,0,0.2779,0,397.0165,397.5156,,,,,,386,FEM,NOWORD,DIS,150,febra,,el,,0.2779,,397.5157,397.5158,-0.094195519,-0.385946985,0,0,0,,0,216,216,385,1,letra,,,,
,,,,,,60984a1b0cce76d16c4ca781,676192165fb32c2e1fb7aee6,67d15f060b104b8efb4e800f,2025-03-12_11h18.08.031,Tarea de decisión léxica,2024.2.5,Win32,60.24096386,,,,,,,,,,,,,,,,,,,,,,,397.5166,398.5324,l,1,0.3396,1,398.5331,399.0324,,,,,,253,MAS,WORD,DIS,150,chico,,la,,0.3396,,399.0325,399.0326,-0.094195519,-0.385946985,0,0,0,,0,217,217,252,1,trido,,,,
,,,,,,60984a1b0cce76d16c4ca781,676192165fb32c2e1fb7aee6,67d15f060b104b8efb4e800f,2025-03-12_11h18.08.031,Tarea de decisión léxica,2024.2.5,Win32,60.24096386,,,,,,,,,,,,,,,,,,,,,,,399.0335,400.1992,l,1,0.4838,1,400.1992,400.6991,,,,,,257,FEM,WORD,DIS,150,amiga,,el,,0.4838,,400.7001,400.7006,-0.094195519,-0.385946985,0,0,0,,0,218,218,256,1,asama,,,,
,,,,,,60984a1b0cce76d16c4ca781,676192165fb32c2e1fb7aee6,67d15f060b104b8efb4e800f,2025-03-12_11h18.08.031,Tarea de decisión léxica,2024.2.5,Win32,60.24096386,,,,,,,,,,,,,,,,,,,,,,,400.7011,401.6824,l,1,0.3082,1,401.6825,402.1824,,,,,,343,FEM,WORD,DIS,150,plata,,el,,0.3082,,402.1826,402.1827,-0.094195519,-0.385946985,0,0,0,,0,219,219,342,1,trada,,,,
,,,,,,60984a1b0cce76d16c4ca781,676192165fb32c2e1fb7aee6,67d15f060b104b8efb4e800f,2025-03-12_11h18.08.031,Tarea de decisión léxica,2024.2.5,Win32,60.24096386,,,,,,,,,,,,,,,,,,,,,,,402.1834,403.2826,a,1,0.417,1,403.2827,403.7825,,,,,,260,MAS,NOWORD,AGR,150,jaumo,,el,,0.417,,403.7826,403.7827,-0.094195519,-0.385946985,0,0,0,,0,220,220,259,1,juego,,,,
,,,,,,60984a1b0cce76d16c4ca781,676192165fb32c2e1fb7aee6,67d15f060b104b8efb4e800f,2025-03-12_11h18.08.031,Tarea de decisión léxica,2024.2.5,Win32,60.24096386,,,,,,,,,,,,,,,,,,,,,,,403.7836,404.7993,a,0,0.3338,0,404.8,405.2993,,,,,,351,MAS,WORD,DIS,150,vuelo,,la,,0.3338,,405.2993,405.2995,-0.094195519,-0.385946985,0,0,0,,0,221,221,350,1,duepo,,,,
,,,,,,60984a1b0cce76d16c4ca781,676192165fb32c2e1fb7aee6,67d15f060b104b8efb4e800f,2025-03-12_11h18.08.031,Tarea de decisión léxica,2024.2.5,Win32,60.24096386,,,,,,,,,,,,,,,,,,,,,,,405.3003,406.3494,l,1,0.3719,1,406.3501,406.8495,,,,,,41,FEM,WORD,AGR,150,nave,,la,,0.3719,,406.8495,406.8496,-0.094195519,-0.385946985,0,0,0,,0,222,222,40,1,haje,,,,
,,,,,,60984a1b0cce76d16c4ca781,676192165fb32c2e1fb7aee6,67d15f060b104b8efb4e800f,2025-03-12_11h18.08.031,Tarea de decisión léxica,2024.2.5,Win32,60.24096386,,,,,,,,,,,,,,,,,,,,,,,406.8504,407.7994,l,1,0.2698,1,407.7996,408.2995,,,,,,325,FEM,WORD,AGR,150,magia,,la,,0.2698,,408.3005,408.3011,-0.094195519,-0.385946985,0,0,0,,0,223,223,324,1,mabia,,,,
,,,,,,60984a1b0cce76d16c4ca781,676192165fb32c2e1fb7aee6,67d15f060b104b8efb4e800f,2025-03-12_11h18.08.031,Tarea de decisión léxica,2024.2.5,Win32,60.24096386,,,,,,,,,,,,,,,,,,,,,,,408.3016,409.3828,a,1,0.4005,1,409.3829,409.8828,,,,,,266,FEM,NOWORD,DIS,150,pitat,,el,,0.4005,,409.8829,409.883,-0.094195519,-0.385946985,0,0,0,,0,224,224,265,1,mitad,,,,
,,,,,,60984a1b0cce76d16c4ca781,676192165fb32c2e1fb7aee6,67d15f060b104b8efb4e800f,2025-03-12_11h18.08.031,Tarea de decisión léxica,2024.2.5,Win32,60.24096386,,,,,,,,,,,,,,,,,,,,,,,409.8839,410.9163,a,1,0.3503,1,410.9164,411.4163,,,,,,174,FEM,NOWORD,DIS,150,boma,,el,,0.3503,,411.4164,411.4165,-0.094195519,-0.385946985,0,0,0,,0,225,225,173,1,rosa,,,,
,,,,,,60984a1b0cce76d16c4ca781,676192165fb32c2e1fb7aee6,67d15f060b104b8efb4e800f,2025-03-12_11h18.08.031,Tarea de decisión léxica,2024.2.5,Win32,60.24096386,,,,,,,,,,,,,,,,,,,,,,,411.4173,412.3997,a,0,0.303,0,412.4006,412.8997,,,,,,151,MAS,WORD,AGR,150,tomo,,el,,0.303,,412.8998,412.8998,-0.094195519,-0.385946985,0,0,0,,0,226,226,150,1,sogo,,,,
,,,,,,60984a1b0cce76d16c4ca781,676192165fb32c2e1fb7aee6,67d15f060b104b8efb4e800f,2025-03-12_11h18.08.031,Tarea de decisión léxica,2024.2.5,Win32,60.24096386,,,,,,,,,,,,,,,,,,,,,,,412.9007,414.0832,a,1,0.5004,1,414.0839,414.5832,,,,,,368,MAS,NOWORD,AGR,150,rerob,,el,,0.5004,,414.5846,414.5852,-0.094195519,-0.385946985,0,0,0,,0,227,227,367,1,reloj,,,,
,,,,,,60984a1b0cce76d16c4ca781,676192165fb32c2e1fb7aee6,67d15f060b104b8efb4e800f,2025-03-12_11h18.08.031,Tarea de decisión léxica,2024.2.5,Win32,60.24096386,,,,,,,,,,,,,,,,,,,,,,,414.5856,415.5831,a,1,0.3202,1,415.5832,416.0831,,,,,,428,FEM,NOWORD,AGR,150,oseva,,la,,0.3202,,416.0832,416.0832,-0.094195519,-0.385946985,0,0,0,,0,228,228,427,1,oreja,,,,
,,,,,,60984a1b0cce76d16c4ca781,676192165fb32c2e1fb7aee6,67d15f060b104b8efb4e800f,2025-03-12_11h18.08.031,Tarea de decisión léxica,2024.2.5,Win32,60.24096386,,,,,,,,,,,,,,,,,,,,,,,416.0841,417.1332,a,1,0.367,1,417.1333,417.6334,,,,,,216,FEM,NOWORD,AGR,150,raua,,la,,0.367,,417.6334,417.6335,-0.094195519,-0.385946985,0,0,0,,0,229,229,215,1,raíz,,,,
,,,,,,60984a1b0cce76d16c4ca781,676192165fb32c2e1fb7aee6,67d15f060b104b8efb4e800f,2025-03-12_11h18.08.031,Tarea de decisión léxica,2024.2.5,Win32,60.24096386,,,,,,,,,,,,,,,,,,,,,,,417.6343,418.8165,a,1,0.5098,1,418.8166,419.3167,,,,,,450,FEM,NOWORD,DIS,150,crusa,,el,,0.5098,,419.3168,419.3169,-0.094195519,-0.385946985,0,0,0,,0,230,230,449,1,pluma,,,,
,,,,,,60984a1b0cce76d16c4ca781,676192165fb32c2e1fb7aee6,67d15f060b104b8efb4e800f,2025-03-12_11h18.08.031,Tarea de decisión léxica,2024.2.5,Win32,60.24096386,,,,,,,,,,,,,,,,,,,,,,,419.3177,420.5335,a,1,0.5383,1,420.5336,421.0333,,,,,,406,FEM,NOWORD,DIS,150,rarra,,el,,0.5383,,421.0334,421.0335,-0.094195519,-0.385946985,0,0,0,,0,231,231,405,1,barra,,,,
,,,,,,60984a1b0cce76d16c4ca781,676192165fb32c2e1fb7aee6,67d15f060b104b8efb4e800f,2025-03-12_11h18.08.031,Tarea de decisión léxica,2024.2.5,Win32,60.24096386,,,,,,,,,,,,,,,,,,,,,,,421.0345,422.1835,l,1,0.4671,1,422.1836,422.6835,,,,,,361,FEM,WORD,DIS,150,torre,,el,,0.4671,,422.6846,422.6851,-0.094195519,-0.385946985,0,0,0,,0,232,232,360,1,solle,,,,
,,,,,,60984a1b0cce76d16c4ca781,676192165fb32c2e1fb7aee6,67d15f060b104b8efb4e800f,2025-03-12_11h18.08.031,Tarea de decisión léxica,2024.2.5,Win32,60.24096386,,,,,,,,,,,,,,,,,,,,,,,422.6856,423.7503,l,1,0.3838,1,423.7504,424.2502,,,,,,283,MAS,WORD,AGR,150,sueño,,el,,0.3838,,424.2502,424.2504,-0.094195519,-0.385946985,0,0,0,,0,233,233,282,1,tuevo,,,,
,,,,,,60984a1b0cce76d16c4ca781,676192165fb32c2e1fb7aee6,67d15f060b104b8efb4e800f,2025-03-12_11h18.08.031,Tarea de decisión léxica,2024.2.5,Win32,60.24096386,,,,,,,,,,,,,,,,,,,,,,,424.2514,425.2336,l,1,0.3008,1,425.2337,425.7337,,,,,,331,MAS,WORD,AGR,150,éxito,,el,,0.3008,,425.7337,425.7338,-0.094195519,-0.385946985,0,0,0,,0,234,234,330,1,erato,,,,
,,,,,,60984a1b0cce76d16c4ca781,676192165fb32c2e1fb7aee6,67d15f060b104b8efb4e800f,2025-03-12_11h18.08.031,Tarea de decisión léxica,2024.2.5,Win32,60.24096386,,,,,,,,,,,,,,,,,,,,,,,425.7346,426.8671,a,1,0.4578,1,426.8672,427.3671,,,,,,12,MAS,NOWORD,AGR,150,bapo,,el,,0.4578,,427.3671,427.3672,-0.094195519,-0.385946985,0,0,0,,0,235,235,11,1,lado,,,,
,,,,,,60984a1b0cce76d16c4ca781,676192165fb32c2e1fb7aee6,67d15f060b104b8efb4e800f,2025-03-12_11h18.08.031,Tarea de decisión léxica,2024.2.5,Win32,60.24096386,,,,,,,,,,,,,,,,,,,,,,,427.3681,428.4504,a,1,0.408,1,428.4505,428.9504,,,,,,460,MAS,NOWORD,AGR,150,fraco,,el,,0.408,,428.9504,428.9505,-0.094195519,-0.385946985,0,0,0,,0,236,236,459,1,grado,,,,
,,,,,,60984a1b0cce76d16c4ca781,676192165fb32c2e1fb7aee6,67d15f060b104b8efb4e800f,2025-03-12_11h18.08.031,Tarea de decisión léxica,2024.2.5,Win32,60.24096386,,,,,,,,,,,,,,,,,,,,,,,428.9515,429.9005,a,1,0.2725,1,429.9006,430.4005,,,,,,24,FEM,NOWORD,AGR,150,giva,,la,,0.2725,,430.4015,430.402,-0.094195519,-0.385946985,0,0,0,,0,237,237,23,1,hija,,,,
,,,,,,60984a1b0cce76d16c4ca781,676192165fb32c2e1fb7aee6,67d15f060b104b8efb4e800f,2025-03-12_11h18.08.031,Tarea de decisión léxica,2024.2.5,Win32,60.24096386,,,,,,,,,,,,,,,,,,,,,,,430.4024,431.3839,a,1,0.3106,1,431.3839,431.8839,,,,,,172,MAS,NOWORD,AGR,150,niro,,el,,0.3106,,431.8839,431.8841,-0.094195519,-0.385946985,0,0,0,,0,238,238,171,1,hilo,,,,
,,,,,,60984a1b0cce76d16c4ca781,676192165fb32c2e1fb7aee6,67d15f060b104b8efb4e800f,2025-03-12_11h18.08.031,Tarea de decisión léxica,2024.2.5,Win32,60.24096386,,,,,,,,,,,,,,,,,,,,,,,431.8849,433.434,l,0,0.8753,0,433.4347,433.934,,,,,,366,FEM,NOWORD,DIS,150,gulla,,el,,0.8753,,433.934,433.9341,-0.094195519,-0.385946985,0,0,0,,0,239,239,365,1,ducha,,,,
,,,,,,60984a1b0cce76d16c4ca781,676192165fb32c2e1fb7aee6,67d15f060b104b8efb4e800f,2025-03-12_11h18.08.031,Tarea de decisión léxica,2024.2.5,Win32,60.24096386,,,,,,,,,,,,,,,,,,,,,,,433.9351,435.0174,a,1,0.4011,1,435.0181,435.5174,,,,,,44,FEM,NOWORD,AGR,150,meda,,la,,0.4011,,435.5175,435.5176,-0.094195519,-0.385946985,0,0,0,,0,240,240,43,1,pena,,,,
,,,,,,60984a1b0cce76d16c4ca781,676192165fb32c2e1fb7aee6,67d15f060b104b8efb4e800f,2025-03-12_11h18.08.031,Tarea de decisión léxica,2024.2.5,Win32,60.24096386,,,,,,,,,,,,,,,,,,,,,,,435.5184,436.4842,a,1,0.2897,1,436.4843,436.9842,,,,,,86,MAS,NOWORD,DIS,150,babo,,la,,0.2897,,436.9842,436.9843,-0.094195519,-0.385946985,0,0,0,,0,241,241,85,1,lago,,,,
,,,,,,60984a1b0cce76d16c4ca781,676192165fb32c2e1fb7aee6,67d15f060b104b8efb4e800f,2025-03-12_11h18.08.031,Tarea de decisión léxica,2024.2.5,Win32,60.24096386,,,,,,,,,,,,,,,,,,,,,,,436.9852,438.1009,l,1,0.439,1,438.101,438.6009,,,,,,31,FEM,WORD,AGR,150,ropa,,la,,0.439,,438.6019,438.6024,-0.094195519,-0.385946985,0,0,0,,0,242,242,30,1,bova,,,,
,,,,,,60984a1b0cce76d16c4ca781,676192165fb32c2e1fb7aee6,67d15f060b104b8efb4e800f,2025-03-12_11h18.08.031,Tarea de decisión léxica,2024.2.5,Win32,60.24096386,,,,,,,,,,,,,,,,,,,,,,,438.6028,439.5509,l,1,0.2701,1,439.551,440.0509,,,,,,413,FEM,WORD,AGR,150,rueda,,la,,0.2701,,440.051,440.0511,-0.094195519,-0.385946985,0,0,0,,0,243,243,412,1,bieda,,,,
,,,,,,60984a1b0cce76d16c4ca781,676192165fb32c2e1fb7aee6,67d15f060b104b8efb4e800f,2025-03-12_11h18.08.031,Tarea de decisión léxica,2024.2.5,Win32,60.24096386,,,,,,,,,,,,,,,,,,,,,,,440.0521,441.0344,l,1,0.3081,1,441.0345,441.5344,,,,,,347,FEM,WORD,DIS,150,pieza,,el,,0.3081,,441.5344,441.5344,-0.094195519,-0.385946985,0,0,0,,0,244,244,346,1,mueza,,,,
,,,,,,60984a1b0cce76d16c4ca781,676192165fb32c2e1fb7aee6,67d15f060b104b8efb4e800f,2025-03-12_11h18.08.031,Tarea de decisión léxica,2024.2.5,Win32,60.24096386,,,,,,,,,,,,,,,,,,,,,,,441.5354,442.5843,a,1,0.3768,1,442.5844,443.0844,,,,,,60,FEM,NOWORD,AGR,150,tafa,,la,,0.3768,,443.0845,443.0845,-0.094195519,-0.385946985,0,0,0,,0,245,245,59,1,sala,,,,
,,,,,,60984a1b0cce76d16c4ca781,676192165fb32c2e1fb7aee6,67d15f060b104b8efb4e800f,2025-03-12_11h18.08.031,Tarea de decisión léxica,2024.2.5,Win32,60.24096386,,,,,,,,,,,,,,,,,,,,,,,443.0855,444.1846,a,1,0.4185,1,444.1847,444.6845,,,,,,102,MAS,NOWORD,DIS,150,gito,,la,,0.4185,,444.6846,444.6847,-0.094195519,-0.385946985,0,0,0,,0,246,246,101,1,tono,,,,
,,,,,,60984a1b0cce76d16c4ca781,676192165fb32c2e1fb7aee6,67d15f060b104b8efb4e800f,2025-03-12_11h18.08.031,Tarea de decisión léxica,2024.2.5,Win32,60.24096386,,,,,,,,,,,,,,,,,,,,,,,444.6855,445.7179,a,1,0.3503,1,445.718,446.2179,,,,,,106,FEM,NOWORD,DIS,150,vina,,el,,0.3503,,446.2189,446.2195,-0.094195519,-0.385946985,0,0,0,,0,247,247,105,1,sopa,,,,
,,,,,,60984a1b0cce76d16c4ca781,676192165fb32c2e1fb7aee6,67d15f060b104b8efb4e800f,2025-03-12_11h18.08.031,Tarea de decisión léxica,2024.2.5,Win32,60.24096386,,,,,,,,,,,,,,,,,,,,,,,446.2199,447.3013,l,1,0.4003,1,447.3014,447.8013,,,,,,419,MAS,WORD,AGR,150,truco,,el,,0.4003,,447.8013,447.8014,-0.094195519,-0.385946985,0,0,0,,0,248,248,418,1,chudo,,,,
,,,,,,60984a1b0cce76d16c4ca781,676192165fb32c2e1fb7aee6,67d15f060b104b8efb4e800f,2025-03-12_11h18.08.031,Tarea de decisión léxica,2024.2.5,Win32,60.24096386,,,,,,,,,,,,,,,,,,,,,,,447.8023,448.8014,a,1,0.3258,1,448.8014,449.3014,,,,,,332,MAS,NOWORD,AGR,150,erato,,el,,0.3258,,449.3015,449.3016,-0.094195519,-0.385946985,0,0,0,,0,249,249,331,1,éxito,,,,
,,,,,,60984a1b0cce76d16c4ca781,676192165fb32c2e1fb7aee6,67d15f060b104b8efb4e800f,2025-03-12_11h18.08.031,Tarea de decisión léxica,2024.2.5,Win32,60.24096386,,,,,,,,,,,,,,,,,,,,,,,449.3024,450.4348,a,1,0.4503,1,450.4349,450.9348,,,,,,96,FEM,NOWORD,AGR,151,neda,,la,,0.4503,,450.9348,450.935,-0.094195519,-0.385946985,0,0,0,,0,250,250,95,1,moda,,,,
,,,,,,60984a1b0cce76d16c4ca781,676192165fb32c2e1fb7aee6,67d15f060b104b8efb4e800f,2025-03-12_11h18.08.031,Tarea de decisión léxica,2024.2.5,Win32,60.24096386,,,,,,,,,,,,,,,,,,,,,,,450.9359,451.9515,a,1,0.3361,1,451.9517,452.4515,,,,,,436,MAS,NOWORD,AGR,150,ricno,,el,,0.3361,,452.4526,452.4531,-0.094195519,-0.385946985,0,0,0,,0,251,251,435,1,ritmo,,,,
,,,,,,60984a1b0cce76d16c4ca781,676192165fb32c2e1fb7aee6,67d15f060b104b8efb4e800f,2025-03-12_11h18.08.031,Tarea de decisión léxica,2024.2.5,Win32,60.24096386,,,,,,,,,,,,,,,,,,,,,,,452.4536,453.4849,a,1,0.3504,1,453.4851,453.985,,,,,,198,MAS,NOWORD,DIS,150,dade,,la,,0.3504,,453.985,453.9851,-0.094195519,-0.385946985,0,0,0,,0,252,252,197,1,bate,,,,
,,,,,,60984a1b0cce76d16c4ca781,676192165fb32c2e1fb7aee6,67d15f060b104b8efb4e800f,2025-03-12_11h18.08.031,Tarea de decisión léxica,2024.2.5,Win32,60.24096386,,,,,,,,,,,,,,,,,,,,,,,453.9861,455.1185,l,1,0.4504,1,455.1186,455.6183,,,,,,179,MAS,WORD,AGR,150,toro,,el,,0.4504,,455.6184,455.6185,-0.094195519,-0.385946985,0,0,0,,0,253,253,178,1,sono,,,,
,,,,,,60984a1b0cce76d16c4ca781,676192165fb32c2e1fb7aee6,67d15f060b104b8efb4e800f,2025-03-12_11h18.08.031,Tarea de decisión léxica,2024.2.5,Win32,60.24096386,,,,,,,,,,,,,,,,,,,,,,,455.6194,456.8017,a,1,0.5085,1,456.8018,457.3018,,,,,,30,MAS,NOWORD,DIS,150,pono,,la,,0.5085,,457.3018,457.3019,-0.094195519,-0.385946985,0,0,0,,0,254,254,29,1,modo,,,,
,,,,,,60984a1b0cce76d16c4ca781,676192165fb32c2e1fb7aee6,67d15f060b104b8efb4e800f,2025-03-12_11h18.08.031,Tarea de decisión léxica,2024.2.5,Win32,60.24096386,,,,,,,,,,,,,,,,,,,,,,,457.3028,458.4685,l,1,0.4892,1,458.4686,458.9685,,,,,,431,MAS,WORD,DIS,150,motor,,la,,0.4892,,458.9686,458.9687,-0.094195519,-0.385946985,0,0,0,,0,255,255,430,1,tetor,,,,
,,,,,,60984a1b0cce76d16c4ca781,676192165fb32c2e1fb7aee6,67d15f060b104b8efb4e800f,2025-03-12_11h18.08.031,Tarea de decisión léxica,2024.2.5,Win32,60.24096386,,,,,,,,,,,,,,,,,,,,,,,458.9696,460.0019,l,1,0.3505,1,460.002,460.502,,,,,,337,MAS,WORD,DIS,150,huevo,,la,,0.3505,,460.5032,460.5037,-0.094195519,-0.385946985,0,0,0,,0,256,256,336,1,nuejo,,,,
,,,,,,60984a1b0cce76d16c4ca781,676192165fb32c2e1fb7aee6,67d15f060b104b8efb4e800f,2025-03-12_11h18.08.031,Tarea de decisión léxica,2024.2.5,Win32,60.24096386,,,,,,,,,,,,,,,,,,,,,,,460.5042,461.5519,l,1,0.3771,1,461.552,462.0521,,,,,,187,MAS,WORD,AGR,150,mito,,el,,0.3771,,462.0521,462.0522,-0.094195519,-0.385946985,0,0,0,,0,257,257,186,1,suto,,,,
,,,,,,60984a1b0cce76d16c4ca781,676192165fb32c2e1fb7aee6,67d15f060b104b8efb4e800f,2025-03-12_11h18.08.031,Tarea de decisión léxica,2024.2.5,Win32,60.24096386,,,,,,,,,,,,,,,,,,,,,,,462.053,462.9853,a,1,0.2589,1,462.9853,463.4854,,,,,,166,FEM,NOWORD,DIS,150,dera,,el,,0.2589,,463.4855,463.4855,-0.094195519,-0.385946985,0,0,0,,0,258,258,165,1,vela,,,,
,,,,,,60984a1b0cce76d16c4ca781,676192165fb32c2e1fb7aee6,67d15f060b104b8efb4e800f,2025-03-12_11h18.08.031,Tarea de decisión léxica,2024.2.5,Win32,60.24096386,,,,,,,,,,,,,,,,,,,,,,,463.4864,464.6021,l,1,0.4416,1,464.6021,465.1021,,,,,,407,FEM,WORD,DIS,150,cueva,,el,,0.4416,,465.1022,465.1024,-0.094195519,-0.385946985,0,0,0,,0,259,259,406,1,cauba,,,,
,,,,,,60984a1b0cce76d16c4ca781,676192165fb32c2e1fb7aee6,67d15f060b104b8efb4e800f,2025-03-12_11h18.08.031,Tarea de decisión léxica,2024.2.5,Win32,60.24096386,,,,,,,,,,,,,,,,,,,,,,,465.1032,466.2188,a,1,0.4338,1,466.219,466.7188,,,,,,430,FEM,NOWORD,DIS,150,tenta,,el,,0.4338,,466.7189,466.719,-0.094195519,-0.385946985,0,0,0,,0,260,260,429,1,tarta,,,,
,,,,,,60984a1b0cce76d16c4ca781,676192165fb32c2e1fb7aee6,67d15f060b104b8efb4e800f,2025-03-12_11h18.08.031,Tarea de decisión léxica,2024.2.5,Win32,60.24096386,,,,,,,,,,,,,,,,,,,,,,,466.7197,467.7192,a,1,0.3278,1,467.7193,468.2189,,,,,,218,MAS,NOWORD,DIS,150,budo,,la,,0.3278,,468.22,468.2205,-0.094195519,-0.385946985,0,0,0,,0,261,261,217,1,luto,,,,
,,,,,,60984a1b0cce76d16c4ca781,676192165fb32c2e1fb7aee6,67d15f060b104b8efb4e800f,2025-03-12_11h18.08.031,Tarea de decisión léxica,2024.2.5,Win32,60.24096386,,,,,,,,,,,,,,,,,,,,,,,468.221,469.4023,l,0,0.5004,0,469.403,469.9023,,,,,,48,MAS,NOWORD,AGR,150,chub,,el,,0.5004,,469.9024,469.9026,-0.094195519,-0.385946985,0,0,0,,0,262,262,47,1,club,,,,
,,,,,,60984a1b0cce76d16c4ca781,676192165fb32c2e1fb7aee6,67d15f060b104b8efb4e800f,2025-03-12_11h18.08.031,Tarea de decisión léxica,2024.2.5,Win32,60.24096386,,,,,,,,,,,,,,,,,,,,,,,469.9035,471.0524,a,1,0.4671,1,471.0531,471.5525,,,,,,344,FEM,NOWORD,AGR,150,trada,,la,,0.4671,,471.5526,471.5528,-0.094195519,-0.385946985,0,0,0,,0,263,263,343,1,plata,,,,
