counterbalancing_condition,consent_prescreening.block_1/declare_consent,consent_prescreening.block_1/age_years,consent_prescreening.block_1/gender,consent_prescreening.block_1/language_disorder,consent_prescreening.block_1/first_language,PROLIFIC_PID,STUDY_ID,SESSION_ID,date,expName,psychopyVersion,OS,frameRate,check_prescreening_answers.started,check_prescreening_answers.stopped,Instructions.started,Instructions.stopped,instr_done_keyboard.keys,instr_done_keyboard.rt,instr_done_keyboard.duration,instr_done_touch.x,instr_done_touch.y,instr_done_touch.leftButton,instr_done_touch.midButton,instr_done_touch.rightButton,instruction_pages.thisRepN,instruction_pages.thisTrialN,instruction_pages.thisN,instruction_pages.thisIndex,instruction_pages.ran,pageN,phase,instruct_text,has_image,instruct_image,presentTrial.started,presentTrial.stopped,response.keys,response.corr,rt,corr,feedback.started,feedback.stopped,practice_trials.thisRepN,practice_trials.thisTrialN,practice_trials.thisN,practice_trials.thisIndex,practice_trials.ran,TrialID,Gender,StimulusType,Condition,PrimeDuration,Prime,len,Flanker,corrAns,response.rt,response.duration,Break.started,Break.stopped,break_done_touch.x,break_done_touch.y,break_done_touch.leftButton,break_done_touch.midButton,break_done_touch.rightButton,break_done_keyboard.keys,experiment_trials.thisRepN,experiment_trials.thisTrialN,experiment_trials.thisN,experiment_trials.thisIndex,experiment_trials.ran,PairedWith,break_done_keyboard.rt,break_done_keyboard.duration,break_done_touch.clicked_name,End.started,End.stopped
2,"[""over_18"",""comfortable"",""read_info"",""consent_given""]",21,M,"[""none""]","[""spanish""]",60b78fab6f56675dc6eeb9f1,676192165fb32c2e1fb7aee6,67d1ab6beb292a2b3e39df6b,2025-03-12_16h45.56.595,Tarea de decisión léxica,2024.2.5,Win32,144.9275362,,,,,,,,,,,,,,,,,,,,,,,,,,,,,,,,,,,,,,,,,,,,,,,,,,,,,,,,,,,,,,,,,
,,,,,,60b78fab6f56675dc6eeb9f1,676192165fb32c2e1fb7aee6,67d1ab6beb292a2b3e39df6b,2025-03-12_16h45.56.595,Tarea de decisión léxica,2024.2.5,Win32,144.9275362,15.5575,15.5577,,,,,,,,,,,,,,,,,,,,,,,,,,,,,,,,,,,,,,,,,,,,,,,,,,,,,,,,,,,,,,,
,,,,,,60b78fab6f56675dc6eeb9f1,676192165fb32c2e1fb7aee6,67d1ab6beb292a2b3e39df6b,2025-03-12_16h45.56.595,Tarea de decisión léxica,2024.2.5,Win32,144.9275362,,,15.5688,32.0853,space,16.4985,,0.055555556,-0.014814815,0,0,0,0,0,0,0,1,1,instructions,"INSTRUCCIONES
Va a realizar una prueba de decisión léxica. Desde el comienzo de la prueba mire siempre al centro de la pantalla. Se presentará una serie de cadenas de letras, una a la vez, en la pantalla. Su tarea consiste en determinar si cada cadena de letras constituye una palabra real en español o una no-palabra (una secuencia de letras que no constituye una palabra real). 

Pulse la tecla ESPACIO para continuar.",0,keyboardresponseWN.png,,,,,,,,,,,,,,,,,,,,,,,,,,,,,,,,,,,,,,,,,,,
,,,,,,60b78fab6f56675dc6eeb9f1,676192165fb32c2e1fb7aee6,67d1ab6beb292a2b3e39df6b,2025-03-12_16h45.56.595,Tarea de decisión léxica,2024.2.5,Win32,144.9275362,,,32.0867,39.3915,space,7.2959,,0.055555556,-0.014814815,0,0,0,0,1,1,1,1,2,instructions,"El procedimiento es el siguiente: Aparecerán dos barras verticales posicionadas en el centro de la pantalla, separadas por un pequeño espacio.Por favor, enfoque su atención en el espacio entre las barras. Esto preparará sus ojos para la siguiente cadena de letras, que aparecerá entre las dos barras durante un instante.

Pulse la tecla ESPACIO para continuar.",0,keyboardresponseWN.png,,,,,,,,,,,,,,,,,,,,,,,,,,,,,,,,,,,,,,,,,,,
,,,,,,60b78fab6f56675dc6eeb9f1,676192165fb32c2e1fb7aee6,67d1ab6beb292a2b3e39df6b,2025-03-12_16h45.56.595,Tarea de decisión léxica,2024.2.5,Win32,144.9275362,,,39.3929,46.2327,space,6.8107,,0.055555556,-0.013888889,0,0,0,0,2,2,2,1,3,instructions,"En el teclado de su dispositivo, pulse la tecla ""A"" si la cadena de letras es una palabra real en español (por ejemplo: ""mano"") y la tecla ""L"" si la cadena de letras es una no-palabra (por ejemplo: ""minu"").
Pulse la tecla ESPACIO para continuar.",1,keyboardresponseWN.png,,,,,,,,,,,,,,,,,,,,,,,,,,,,,,,,,,,,,,,,,,,
,,,,,,60b78fab6f56675dc6eeb9f1,676192165fb32c2e1fb7aee6,67d1ab6beb292a2b3e39df6b,2025-03-12_16h45.56.595,Tarea de decisión léxica,2024.2.5,Win32,144.9275362,,,46.2344,58.5261,space,12.2797,,0.055555556,-0.013888889,0,0,0,0,3,3,3,1,4,instructions,"Es muy importante que responda con la mayor rapidez y precisión posibles. Si no responde dentro de 2 segundos, aparecerá el mensaje ""Muy lento"" y el experimento pasará a la siguiente palabra. Inmediatamente después de su respuesta se indicará si fue correcta o no. Los primeros 15 intentos serán de práctica y habrá dos descansos durante la prueba.

Pulse la tecla ESPACIO  para iniciar la parte de práctica.",0,keyboardresponseWN.png,,,,,,,,,,,,,,,,,,,,,,,,,,,,,,,,,,,,,,,,,,,
,,,,,,60b78fab6f56675dc6eeb9f1,676192165fb32c2e1fb7aee6,67d1ab6beb292a2b3e39df6b,2025-03-12_16h45.56.595,Tarea de decisión léxica,2024.2.5,Win32,144.9275362,,,,,,,,,,,,,,,,,,,,,,,58.5349,61.1868,,0,,-1,61.1869,61.6869,0,0,0,9,1,1010,MAS,WORD,DIS,150,video,5,la,l,,,,,,,,,,,,,,,,,,,,,
,,,,,,60b78fab6f56675dc6eeb9f1,676192165fb32c2e1fb7aee6,67d1ab6beb292a2b3e39df6b,2025-03-12_16h45.56.595,Tarea de decisión léxica,2024.2.5,Win32,144.9275362,,,,,,,,,,,,,,,,,,,,,,,61.6876,62.9641,a,1,0.6195,1,62.9678,63.4642,0,1,1,8,1,1009,FEM,WORD,AGR,150,viejo,5,la,l,0.6195,,,,,,,,,,,,,,,,,,,,
,,,,,,60b78fab6f56675dc6eeb9f1,676192165fb32c2e1fb7aee6,67d1ab6beb292a2b3e39df6b,2025-03-12_16h45.56.595,Tarea de decisión léxica,2024.2.5,Win32,144.9275362,,,,,,,,,,,,,,,,,,,,,,,63.4649,66.1103,,0,0.6195,-1,66.1108,66.6104,0,2,2,5,1,1006,FEM,WORD,AGR,150,cara,4,la,l,,,,,,,,,,,,,,,,,,,,,
,,,,,,60b78fab6f56675dc6eeb9f1,676192165fb32c2e1fb7aee6,67d1ab6beb292a2b3e39df6b,2025-03-12_16h45.56.595,Tarea de decisión léxica,2024.2.5,Win32,144.9275362,,,,,,,,,,,,,,,,,,,,,,,66.6111,67.9578,l,1,0.6907,1,67.9582,68.4578,0,3,3,0,1,1001,FEM,NOWORD,AGR,150,croz,4,la,a,0.6907,,,,,,,,,,,,,,,,,,,,
,,,,,,60b78fab6f56675dc6eeb9f1,676192165fb32c2e1fb7aee6,67d1ab6beb292a2b3e39df6b,2025-03-12_16h45.56.595,Tarea de decisión léxica,2024.2.5,Win32,144.9275362,,,,,,,,,,,,,,,,,,,,,,,68.4586,69.7358,l,1,0.622,1,69.7358,70.2358,0,4,4,3,1,1004,FEM,NOWORD,AGR,150,bireo,5,la,a,0.622,,,,,,,,,,,,,,,,,,,,
,,,,,,60b78fab6f56675dc6eeb9f1,676192165fb32c2e1fb7aee6,67d1ab6beb292a2b3e39df6b,2025-03-12_16h45.56.595,Tarea de decisión léxica,2024.2.5,Win32,144.9275362,,,,,,,,,,,,,,,,,,,,,,,70.2367,71.3194,a,1,0.4257,1,71.3195,71.8199,0,5,5,6,1,1007,MAS,WORD,DIS,150,masa,4,la,l,0.4257,,,,,,,,,,,,,,,,,,,,
,,,,,,60b78fab6f56675dc6eeb9f1,676192165fb32c2e1fb7aee6,67d1ab6beb292a2b3e39df6b,2025-03-12_16h45.56.595,Tarea de decisión léxica,2024.2.5,Win32,144.9275362,,,,,,,,,,,,,,,,,,,,,,,71.8206,72.862,l,1,0.3888,1,72.8621,73.3615,0,6,6,4,1,1005,MAS,NOWORD,DIS,150,nobad,5,la,a,0.3888,,,,,,,,,,,,,,,,,,,,
,,,,,,60b78fab6f56675dc6eeb9f1,676192165fb32c2e1fb7aee6,67d1ab6beb292a2b3e39df6b,2025-03-12_16h45.56.595,Tarea de decisión léxica,2024.2.5,Win32,144.9275362,,,,,,,,,,,,,,,,,,,,,,,73.362,74.3206,a,0,0.3056,0,74.3212,74.8198,0,7,7,1,1,1002,FEM,NOWORD,DIS,150,mabo,4,el,a,0.3056,,,,,,,,,,,,,,,,,,,,
,,,,,,60b78fab6f56675dc6eeb9f1,676192165fb32c2e1fb7aee6,67d1ab6beb292a2b3e39df6b,2025-03-12_16h45.56.595,Tarea de decisión léxica,2024.2.5,Win32,144.9275362,,,,,,,,,,,,,,,,,,,,,,,74.8207,75.931,l,0,0.4526,0,75.931,76.4311,0,8,8,7,1,1008,MAS,WORD,DIS,150,frío,4,la,l,0.4526,,,,,,,,,,,,,,,,,,,,
,,,,,,60b78fab6f56675dc6eeb9f1,676192165fb32c2e1fb7aee6,67d1ab6beb292a2b3e39df6b,2025-03-12_16h45.56.595,Tarea de decisión léxica,2024.2.5,Win32,144.9275362,,,,,,,,,,,,,,,,,,,,,,,76.4317,77.5631,a,0,0.4777,0,77.5632,78.0632,0,9,9,2,1,1003,FEM,NOWORD,DIS,150,muvor,5,el,a,0.4777,,,,,,,,,,,,,,,,,,,,
,,,,,,60b78fab6f56675dc6eeb9f1,676192165fb32c2e1fb7aee6,67d1ab6beb292a2b3e39df6b,2025-03-12_16h45.56.595,Tarea de decisión léxica,2024.2.5,Win32,144.9275362,,,80.933,83.3904,space,2.445,,0.055555556,-0.013888889,0,0,0,,,,,,,,,,,83.4137,84.8906,a,0,0.8226,0,84.8906,85.3905,,,,,,480,MAS,NOWORD,AGR,150,rimpo,,el,,0.8226,,85.3908,85.3928,0.055555556,-0.013888889,0,0,0,,0,0,0,479,1,rumbo,,,,,
,,,,,,60b78fab6f56675dc6eeb9f1,676192165fb32c2e1fb7aee6,67d1ab6beb292a2b3e39df6b,2025-03-12_16h45.56.595,Tarea de decisión léxica,2024.2.5,Win32,144.9275362,,,,,,,,,,,,,,,,,,,,,,,85.3932,86.4046,l,1,0.3555,1,86.4051,86.9048,,,,,,388,FEM,NOWORD,AGR,150,bresa,,la,,0.3555,,86.9048,86.9048,0.055555556,-0.013888889,0,0,0,,0,1,1,387,1,crema,,,,,
,,,,,,60b78fab6f56675dc6eeb9f1,676192165fb32c2e1fb7aee6,67d1ab6beb292a2b3e39df6b,2025-03-12_16h45.56.595,Tarea de decisión léxica,2024.2.5,Win32,144.9275362,,,,,,,,,,,,,,,,,,,,,,,86.9054,88.1826,l,1,0.6184,1,88.1826,88.6827,,,,,,98,MAS,NOWORD,DIS,150,fopo,,la,,0.6184,,88.6834,88.6838,0.055555556,-0.013888889,0,0,0,,0,2,2,97,1,mono,,,,,
,,,,,,60b78fab6f56675dc6eeb9f1,676192165fb32c2e1fb7aee6,67d1ab6beb292a2b3e39df6b,2025-03-12_16h45.56.595,Tarea de decisión léxica,2024.2.5,Win32,144.9275362,,,,,,,,,,,,,,,,,,,,,,,88.6841,89.7871,l,1,0.4502,1,89.7871,90.2871,,,,,,320,MAS,NOWORD,AGR,150,tuero,,el,,0.4502,,90.2872,90.2872,0.055555556,-0.013888889,0,0,0,,0,3,3,319,1,suelo,,,,,
,,,,,,60b78fab6f56675dc6eeb9f1,676192165fb32c2e1fb7aee6,67d1ab6beb292a2b3e39df6b,2025-03-12_16h45.56.595,Tarea de decisión léxica,2024.2.5,Win32,144.9275362,,,,,,,,,,,,,,,,,,,,,,,90.2879,91.447,a,1,0.503,1,91.447,91.9472,,,,,,55,MAS,WORD,AGR,150,gato,,el,,0.503,,91.9472,91.9473,0.055555556,-0.013888889,0,0,0,,0,4,4,54,1,jado,,,,,
,,,,,,60b78fab6f56675dc6eeb9f1,676192165fb32c2e1fb7aee6,67d1ab6beb292a2b3e39df6b,2025-03-12_16h45.56.595,Tarea de decisión léxica,2024.2.5,Win32,144.9275362,,,,,,,,,,,,,,,,,,,,,,,91.9478,93.0304,a,1,0.429,1,93.0305,93.5305,,,,,,403,FEM,WORD,AGR,150,prima,,la,,0.429,,93.5306,93.5307,0.055555556,-0.013888889,0,0,0,,0,5,5,402,1,grisa,,,,,
,,,,,,60b78fab6f56675dc6eeb9f1,676192165fb32c2e1fb7aee6,67d1ab6beb292a2b3e39df6b,2025-03-12_16h45.56.595,Tarea de decisión léxica,2024.2.5,Win32,144.9275362,,,,,,,,,,,,,,,,,,,,,,,93.5311,94.9127,l,1,0.7236,1,94.9127,95.4127,,,,,,44,FEM,NOWORD,AGR,150,meda,,la,,0.7236,,95.4127,95.4128,0.055555556,-0.013888889,0,0,0,,0,6,6,43,1,pena,,,,,
,,,,,,60b78fab6f56675dc6eeb9f1,676192165fb32c2e1fb7aee6,67d1ab6beb292a2b3e39df6b,2025-03-12_16h45.56.595,Tarea de decisión léxica,2024.2.5,Win32,144.9275362,,,,,,,,,,,,,,,,,,,,,,,95.4133,96.9269,a,1,0.8579,1,96.9269,97.4269,,,,,,157,MAS,WORD,DIS,150,nido,,la,,0.8579,,97.4276,97.428,0.055555556,-0.013888889,0,0,0,,0,7,7,156,1,hico,,,,,
,,,,,,60b78fab6f56675dc6eeb9f1,676192165fb32c2e1fb7aee6,67d1ab6beb292a2b3e39df6b,2025-03-12_16h45.56.595,Tarea de decisión léxica,2024.2.5,Win32,144.9275362,,,,,,,,,,,,,,,,,,,,,,,97.4282,98.7812,l,1,0.6967,1,98.7812,99.2813,,,,,,152,MAS,NOWORD,AGR,150,sogo,,el,,0.6967,,99.2813,99.2813,0.055555556,-0.013888889,0,0,0,,0,8,8,151,1,tomo,,,,,
,,,,,,60b78fab6f56675dc6eeb9f1,676192165fb32c2e1fb7aee6,67d1ab6beb292a2b3e39df6b,2025-03-12_16h45.56.595,Tarea de decisión léxica,2024.2.5,Win32,144.9275362,,,,,,,,,,,,,,,,,,,,,,,99.2819,100.4135,l,1,0.4757,1,100.4136,100.9136,,,,,,374,FEM,NOWORD,DIS,150,pogza,,el,,0.4757,,100.9136,100.9136,0.055555556,-0.013888889,0,0,0,,0,9,9,373,1,pizza,,,,,
,,,,,,60b78fab6f56675dc6eeb9f1,676192165fb32c2e1fb7aee6,67d1ab6beb292a2b3e39df6b,2025-03-12_16h45.56.595,Tarea de decisión léxica,2024.2.5,Win32,144.9275362,,,,,,,,,,,,,,,,,,,,,,,100.9142,102.0524,a,1,0.4794,1,102.0524,102.5524,,,,,,67,FEM,WORD,AGR,150,nena,,la,,0.4794,,102.5525,102.5525,0.055555556,-0.013888889,0,0,0,,0,10,10,66,1,gesa,,,,,
,,,,,,60b78fab6f56675dc6eeb9f1,676192165fb32c2e1fb7aee6,67d1ab6beb292a2b3e39df6b,2025-03-12_16h45.56.595,Tarea de decisión léxica,2024.2.5,Win32,144.9275362,,,,,,,,,,,,,,,,,,,,,,,102.553,103.9139,a,0,0.7025,0,103.9144,104.4141,,,,,,418,FEM,NOWORD,DIS,150,banja,,el,,0.7025,,104.4149,104.4152,0.055555556,-0.013888889,0,0,0,,0,11,11,417,1,barba,,,,,
,,,,,,60b78fab6f56675dc6eeb9f1,676192165fb32c2e1fb7aee6,67d1ab6beb292a2b3e39df6b,2025-03-12_16h45.56.595,Tarea de decisión léxica,2024.2.5,Win32,144.9275362,,,,,,,,,,,,,,,,,,,,,,,104.4159,105.546,l,1,0.4736,1,105.5464,106.0461,,,,,,308,MAS,NOWORD,AGR,150,holol,,el,,0.4736,,106.0461,106.0461,0.055555556,-0.013888889,0,0,0,,0,12,12,307,1,hotel,,,,,
,,,,,,60b78fab6f56675dc6eeb9f1,676192165fb32c2e1fb7aee6,67d1ab6beb292a2b3e39df6b,2025-03-12_16h45.56.595,Tarea de decisión léxica,2024.2.5,Win32,144.9275362,,,,,,,,,,,,,,,,,,,,,,,106.0467,107.2545,l,1,0.5528,1,107.2546,107.7546,,,,,,24,FEM,NOWORD,AGR,150,giva,,la,,0.5528,,107.7547,107.7547,0.055555556,-0.013888889,0,0,0,,0,13,13,23,1,hija,,,,,
,,,,,,60b78fab6f56675dc6eeb9f1,676192165fb32c2e1fb7aee6,67d1ab6beb292a2b3e39df6b,2025-03-12_16h45.56.595,Tarea de decisión léxica,2024.2.5,Win32,144.9275362,,,,,,,,,,,,,,,,,,,,,,,107.7552,108.7619,a,1,0.3513,1,108.7619,109.2619,,,,,,175,FEM,WORD,AGR,150,goma,,la,,0.3513,,109.2619,109.262,0.055555556,-0.013888889,0,0,0,,0,14,14,174,1,hosa,,,,,
,,,,,,60b78fab6f56675dc6eeb9f1,676192165fb32c2e1fb7aee6,67d1ab6beb292a2b3e39df6b,2025-03-12_16h45.56.595,Tarea de decisión léxica,2024.2.5,Win32,144.9275362,,,,,,,,,,,,,,,,,,,,,,,109.2624,110.394,a,1,0.4771,1,110.394,110.8939,,,,,,71,FEM,WORD,AGR,150,isla,,la,,0.4771,,110.894,110.894,0.055555556,-0.013888889,0,0,0,,0,15,15,70,1,urla,,,,,
,,,,,,60b78fab6f56675dc6eeb9f1,676192165fb32c2e1fb7aee6,67d1ab6beb292a2b3e39df6b,2025-03-12_16h45.56.595,Tarea de decisión léxica,2024.2.5,Win32,144.9275362,,,,,,,,,,,,,,,,,,,,,,,110.8946,112.4844,a,1,0.935,1,112.4844,112.9845,,,,,,35,MAS,WORD,AGR,150,pelo,,el,,0.935,,112.985,112.9853,0.055555556,-0.013888889,0,0,0,,0,16,16,34,1,meno,,,,,
,,,,,,60b78fab6f56675dc6eeb9f1,676192165fb32c2e1fb7aee6,67d1ab6beb292a2b3e39df6b,2025-03-12_16h45.56.595,Tarea de decisión léxica,2024.2.5,Win32,144.9275362,,,,,,,,,,,,,,,,,,,,,,,112.9857,114.0263,a,1,0.3822,1,114.0265,114.5264,,,,,,345,FEM,WORD,DIS,150,arena,,el,,0.3822,,114.5265,114.5265,0.055555556,-0.013888889,0,0,0,,0,17,17,344,1,anera,,,,,
,,,,,,60b78fab6f56675dc6eeb9f1,676192165fb32c2e1fb7aee6,67d1ab6beb292a2b3e39df6b,2025-03-12_16h45.56.595,Tarea de decisión léxica,2024.2.5,Win32,144.9275362,,,,,,,,,,,,,,,,,,,,,,,114.527,115.7001,a,1,0.5194,1,115.7002,116.2002,,,,,,325,FEM,WORD,DIS,150,magia,,el,,0.5194,,116.2002,116.2002,0.055555556,-0.013888889,0,0,0,,0,18,18,324,1,mabia,,,,,
,,,,,,60b78fab6f56675dc6eeb9f1,676192165fb32c2e1fb7aee6,67d1ab6beb292a2b3e39df6b,2025-03-12_16h45.56.595,Tarea de decisión léxica,2024.2.5,Win32,144.9275362,,,,,,,,,,,,,,,,,,,,,,,116.2008,117.506,a,0,0.6462,0,117.5064,118.006,,,,,,96,FEM,NOWORD,AGR,151,neda,,la,,0.6462,,118.006,118.006,0.055555556,-0.013888889,0,0,0,,0,19,19,95,1,moda,,,,,
,,,,,,60b78fab6f56675dc6eeb9f1,676192165fb32c2e1fb7aee6,67d1ab6beb292a2b3e39df6b,2025-03-12_16h45.56.595,Tarea de decisión léxica,2024.2.5,Win32,144.9275362,,,,,,,,,,,,,,,,,,,,,,,118.0066,119.1173,a,0,0.4558,0,119.1174,119.6173,,,,,,460,MAS,NOWORD,AGR,150,fraco,,el,,0.4558,,119.6173,119.6174,0.055555556,-0.013888889,0,0,0,,0,20,20,459,1,grado,,,,,
,,,,,,60b78fab6f56675dc6eeb9f1,676192165fb32c2e1fb7aee6,67d1ab6beb292a2b3e39df6b,2025-03-12_16h45.56.595,Tarea de decisión léxica,2024.2.5,Win32,144.9275362,,,,,,,,,,,,,,,,,,,,,,,119.6181,120.7772,a,1,0.5006,1,120.7777,121.2774,,,,,,331,MAS,WORD,AGR,150,éxito,,el,,0.5006,,121.278,121.2783,0.055555556,-0.013888889,0,0,0,,0,21,21,330,1,erato,,,,,
,,,,,,60b78fab6f56675dc6eeb9f1,676192165fb32c2e1fb7aee6,67d1ab6beb292a2b3e39df6b,2025-03-12_16h45.56.595,Tarea de decisión léxica,2024.2.5,Win32,144.9275362,,,,,,,,,,,,,,,,,,,,,,,121.2787,122.4857,l,1,0.5502,1,122.4857,122.9858,,,,,,172,MAS,NOWORD,AGR,150,niro,,el,,0.5502,,122.9858,122.9859,0.055555556,-0.013888889,0,0,0,,0,22,22,171,1,hilo,,,,,
,,,,,,60b78fab6f56675dc6eeb9f1,676192165fb32c2e1fb7aee6,67d1ab6beb292a2b3e39df6b,2025-03-12_16h45.56.595,Tarea de decisión léxica,2024.2.5,Win32,144.9275362,,,,,,,,,,,,,,,,,,,,,,,122.9866,124.0623,a,1,0.4212,1,124.0624,124.5625,,,,,,207,MAS,WORD,AGR,150,kilo,,el,,0.4212,,124.5626,124.5626,0.055555556,-0.013888889,0,0,0,,0,23,23,206,1,kedo,,,,,
,,,,,,60b78fab6f56675dc6eeb9f1,676192165fb32c2e1fb7aee6,67d1ab6beb292a2b3e39df6b,2025-03-12_16h45.56.595,Tarea de decisión léxica,2024.2.5,Win32,144.9275362,,,,,,,,,,,,,,,,,,,,,,,124.563,125.6945,l,1,0.4773,1,125.6946,126.1946,,,,,,476,FEM,NOWORD,AGR,150,mucta,,la,,0.4773,,126.1946,126.1946,0.055555556,-0.013888889,0,0,0,,0,24,24,475,1,manta,,,,,
,,,,,,60b78fab6f56675dc6eeb9f1,676192165fb32c2e1fb7aee6,67d1ab6beb292a2b3e39df6b,2025-03-12_16h45.56.595,Tarea de decisión léxica,2024.2.5,Win32,144.9275362,,,,,,,,,,,,,,,,,,,,,,,126.1952,127.4099,l,1,0.5562,1,127.4099,127.91,,,,,,270,MAS,NOWORD,DIS,150,mello,,la,,0.5562,,127.91,127.91,0.055555556,-0.013888889,0,0,0,,0,25,25,269,1,perro,,,,,
,,,,,,60b78fab6f56675dc6eeb9f1,676192165fb32c2e1fb7aee6,67d1ab6beb292a2b3e39df6b,2025-03-12_16h45.56.595,Tarea de decisión léxica,2024.2.5,Win32,144.9275362,,,,,,,,,,,,,,,,,,,,,,,127.9105,129.1047,a,1,0.5351,1,129.1048,129.6048,,,,,,47,MAS,WORD,AGR,150,club,,el,,0.5351,,129.6056,129.606,0.055555556,-0.013888889,0,0,0,,0,26,26,46,1,chub,,,,,
,,,,,,60b78fab6f56675dc6eeb9f1,676192165fb32c2e1fb7aee6,67d1ab6beb292a2b3e39df6b,2025-03-12_16h45.56.595,Tarea de decisión léxica,2024.2.5,Win32,144.9275362,,,,,,,,,,,,,,,,,,,,,,,129.6064,130.6881,a,1,0.4246,1,130.6881,131.1882,,,,,,269,MAS,WORD,DIS,150,perro,,la,,0.4246,,131.1883,131.1883,0.055555556,-0.013888889,0,0,0,,0,27,27,268,1,mello,,,,,
,,,,,,60b78fab6f56675dc6eeb9f1,676192165fb32c2e1fb7aee6,67d1ab6beb292a2b3e39df6b,2025-03-12_16h45.56.595,Tarea de decisión léxica,2024.2.5,Win32,144.9275362,,,,,,,,,,,,,,,,,,,,,,,131.1888,132.5566,l,1,0.7144,1,132.5566,133.0565,,,,,,266,FEM,NOWORD,DIS,150,pitat,,el,,0.7144,,133.0565,133.0565,0.055555556,-0.013888889,0,0,0,,0,28,28,265,1,mitad,,,,,
,,,,,,60b78fab6f56675dc6eeb9f1,676192165fb32c2e1fb7aee6,67d1ab6beb292a2b3e39df6b,2025-03-12_16h45.56.595,Tarea de decisión léxica,2024.2.5,Win32,144.9275362,,,,,,,,,,,,,,,,,,,,,,,133.057,134.3484,l,1,0.6344,1,134.3484,134.8484,,,,,,386,FEM,NOWORD,DIS,150,febra,,el,,0.6344,,134.8484,134.8486,0.055555556,-0.013888889,0,0,0,,0,29,29,385,1,letra,,,,,
,,,,,,60b78fab6f56675dc6eeb9f1,676192165fb32c2e1fb7aee6,67d1ab6beb292a2b3e39df6b,2025-03-12_16h45.56.595,Tarea de decisión léxica,2024.2.5,Win32,144.9275362,,,,,,,,,,,,,,,,,,,,,,,134.849,135.9666,a,1,0.4642,1,135.9666,136.4666,,,,,,225,MAS,WORD,DIS,150,lodo,,la,,0.4642,,136.4668,136.4668,0.055555556,-0.013888889,0,0,0,,0,30,30,224,1,boco,,,,,
,,,,,,60b78fab6f56675dc6eeb9f1,676192165fb32c2e1fb7aee6,67d1ab6beb292a2b3e39df6b,2025-03-12_16h45.56.595,Tarea de decisión léxica,2024.2.5,Win32,144.9275362,,,,,,,,,,,,,,,,,,,,,,,136.4673,137.5851,a,1,0.4587,1,137.5852,138.0851,,,,,,469,MAS,WORD,DIS,150,patio,,la,,0.4587,,138.0857,138.0861,0.055555556,-0.013888889,0,0,0,,0,31,31,468,1,matia,,,,,
,,,,,,60b78fab6f56675dc6eeb9f1,676192165fb32c2e1fb7aee6,67d1ab6beb292a2b3e39df6b,2025-03-12_16h45.56.595,Tarea de decisión léxica,2024.2.5,Win32,144.9275362,,,,,,,,,,,,,,,,,,,,,,,138.0864,139.6129,a,1,0.8736,1,139.6131,140.1132,,,,,,237,MAS,WORD,DIS,150,nudo,,la,,0.8736,,140.1132,140.1133,0.055555556,-0.013888889,0,0,0,,0,32,32,236,1,huco,,,,,
,,,,,,60b78fab6f56675dc6eeb9f1,676192165fb32c2e1fb7aee6,67d1ab6beb292a2b3e39df6b,2025-03-12_16h45.56.595,Tarea de decisión léxica,2024.2.5,Win32,144.9275362,,,,,,,,,,,,,,,,,,,,,,,140.1138,141.1964,a,1,0.4295,1,141.1964,141.6965,,,,,,387,FEM,WORD,AGR,150,crema,,la,,0.4295,,141.6965,141.6966,0.055555556,-0.013888889,0,0,0,,0,33,33,386,1,bresa,,,,,
,,,,,,60b78fab6f56675dc6eeb9f1,676192165fb32c2e1fb7aee6,67d1ab6beb292a2b3e39df6b,2025-03-12_16h45.56.595,Tarea de decisión léxica,2024.2.5,Win32,144.9275362,,,,,,,,,,,,,,,,,,,,,,,141.697,142.7383,a,1,0.3822,1,142.7384,143.2385,,,,,,147,FEM,WORD,AGR,150,hoja,,la,,0.3822,,143.2385,143.2385,0.055555556,-0.013888889,0,0,0,,0,34,34,146,1,pama,,,,,
,,,,,,60b78fab6f56675dc6eeb9f1,676192165fb32c2e1fb7aee6,67d1ab6beb292a2b3e39df6b,2025-03-12_16h45.56.595,Tarea de decisión léxica,2024.2.5,Win32,144.9275362,,,,,,,,,,,,,,,,,,,,,,,143.2391,144.301,l,1,0.4071,1,144.3011,144.8012,,,,,,260,MAS,NOWORD,AGR,150,jaumo,,el,,0.4071,,144.8019,144.8022,0.055555556,-0.013888889,0,0,0,,0,35,35,259,1,juego,,,,,
,,,,,,60b78fab6f56675dc6eeb9f1,676192165fb32c2e1fb7aee6,67d1ab6beb292a2b3e39df6b,2025-03-12_16h45.56.595,Tarea de decisión léxica,2024.2.5,Win32,144.9275362,,,,,,,,,,,,,,,,,,,,,,,144.8028,146.0374,l,1,0.5767,1,146.0375,146.5375,,,,,,178,MAS,NOWORD,DIS,150,bito,,la,,0.5767,,146.5376,146.5376,0.055555556,-0.013888889,0,0,0,,0,36,36,177,1,reto,,,,,
,,,,,,60b78fab6f56675dc6eeb9f1,676192165fb32c2e1fb7aee6,67d1ab6beb292a2b3e39df6b,2025-03-12_16h45.56.595,Tarea de decisión léxica,2024.2.5,Win32,144.9275362,,,,,,,,,,,,,,,,,,,,,,,146.538,147.6349,l,1,0.4419,1,147.6349,148.1349,,,,,,14,FEM,NOWORD,DIS,150,nola,,el,,0.4419,,148.1349,148.135,0.055555556,-0.013888889,0,0,0,,0,37,37,13,1,hora,,,,,
,,,,,,60b78fab6f56675dc6eeb9f1,676192165fb32c2e1fb7aee6,67d1ab6beb292a2b3e39df6b,2025-03-12_16h45.56.595,Tarea de decisión léxica,2024.2.5,Win32,144.9275362,,,,,,,,,,,,,,,,,,,,,,,148.1354,149.2949,a,1,0.5003,1,149.2949,149.7949,,,,,,221,FEM,WORD,DIS,150,mula,,el,,0.5003,,149.7949,149.7949,0.055555556,-0.013888889,0,0,0,,0,38,38,220,1,puca,,,,,
,,,,,,60b78fab6f56675dc6eeb9f1,676192165fb32c2e1fb7aee6,67d1ab6beb292a2b3e39df6b,2025-03-12_16h45.56.595,Tarea de decisión léxica,2024.2.5,Win32,144.9275362,,,,,,,,,,,,,,,,,,,,,,,149.7955,151.2603,a,1,0.8095,1,151.2603,151.7604,,,,,,429,FEM,WORD,DIS,150,tarta,,el,,0.8095,,151.7605,151.7605,0.055555556,-0.013888889,0,0,0,,0,39,39,428,1,tenta,,,,,
,,,,,,60b78fab6f56675dc6eeb9f1,676192165fb32c2e1fb7aee6,67d1ab6beb292a2b3e39df6b,2025-03-12_16h45.56.595,Tarea de decisión léxica,2024.2.5,Win32,144.9275362,,,,,,,,,,,,,,,,,,,,,,,151.761,153.0869,l,1,0.6692,1,153.087,153.587,,,,,,366,FEM,NOWORD,DIS,150,gulla,,el,,0.6692,,153.5876,153.588,0.055555556,-0.013888889,0,0,0,,0,40,40,365,1,ducha,,,,,
,,,,,,60b78fab6f56675dc6eeb9f1,676192165fb32c2e1fb7aee6,67d1ab6beb292a2b3e39df6b,2025-03-12_16h45.56.595,Tarea de decisión léxica,2024.2.5,Win32,144.9275362,,,,,,,,,,,,,,,,,,,,,,,153.5886,154.6011,a,1,0.3544,1,154.6011,155.1011,,,,,,17,FEM,WORD,DIS,150,mamá,,el,,0.3544,,155.1012,155.1012,0.055555556,-0.013888889,0,0,0,,0,41,41,16,1,paba,,,,,
,,,,,,60b78fab6f56675dc6eeb9f1,676192165fb32c2e1fb7aee6,67d1ab6beb292a2b3e39df6b,2025-03-12_16h45.56.595,Tarea de decisión léxica,2024.2.5,Win32,144.9275362,,,,,,,,,,,,,,,,,,,,,,,155.1017,156.3095,l,1,0.5495,1,156.3096,156.8096,,,,,,404,FEM,NOWORD,AGR,150,grisa,,la,,0.5495,,156.8096,156.8097,0.055555556,-0.013888889,0,0,0,,0,42,42,403,1,prima,,,,,
,,,,,,60b78fab6f56675dc6eeb9f1,676192165fb32c2e1fb7aee6,67d1ab6beb292a2b3e39df6b,2025-03-12_16h45.56.595,Tarea de decisión léxica,2024.2.5,Win32,144.9275362,,,,,,,,,,,,,,,,,,,,,,,156.8102,157.9347,l,1,0.4698,1,157.9348,158.435,,,,,,62,FEM,NOWORD,DIS,150,efla,,el,,0.4698,,158.435,158.4351,0.055555556,-0.013888889,0,0,0,,0,43,43,61,1,obra,,,,,
,,,,,,60b78fab6f56675dc6eeb9f1,676192165fb32c2e1fb7aee6,67d1ab6beb292a2b3e39df6b,2025-03-12_16h45.56.595,Tarea de decisión léxica,2024.2.5,Win32,144.9275362,,,,,,,,,,,,,,,,,,,,,,,158.4356,159.5741,a,0,0.4826,0,159.5745,160.074,,,,,,436,MAS,NOWORD,AGR,150,ricno,,el,,0.4826,,160.0741,160.0741,0.055555556,-0.013888889,0,0,0,,0,44,44,435,1,ritmo,,,,,
,,,,,,60b78fab6f56675dc6eeb9f1,676192165fb32c2e1fb7aee6,67d1ab6beb292a2b3e39df6b,2025-03-12_16h45.56.595,Tarea de decisión léxica,2024.2.5,Win32,144.9275362,,,,,,,,,,,,,,,,,,,,,,,160.0747,161.4423,l,0,0.7126,0,161.4423,161.9423,,,,,,197,MAS,WORD,DIS,150,bate,,la,,0.7126,,161.9429,161.9431,0.055555556,-0.013888889,0,0,0,,0,45,45,196,1,dade,,,,,
,,,,,,60b78fab6f56675dc6eeb9f1,676192165fb32c2e1fb7aee6,67d1ab6beb292a2b3e39df6b,2025-03-12_16h45.56.595,Tarea de decisión léxica,2024.2.5,Win32,144.9275362,,,,,,,,,,,,,,,,,,,,,,,161.9435,164.5884,,0,0.7126,-1,164.5888,165.0884,,,,,,149,MAS,WORD,DIS,150,cabo,,la,,,,165.0885,165.0886,0.055555556,-0.013888889,0,0,0,,0,46,46,148,1,pafo,,,,,
,,,,,,60b78fab6f56675dc6eeb9f1,676192165fb32c2e1fb7aee6,67d1ab6beb292a2b3e39df6b,2025-03-12_16h45.56.595,Tarea de decisión léxica,2024.2.5,Win32,144.9275362,,,,,,,,,,,,,,,,,,,,,,,165.089,166.3178,l,1,0.5719,1,166.3182,166.8178,,,,,,78,MAS,NOWORD,DIS,150,fodo,,la,,0.5719,,166.8179,166.8179,0.055555556,-0.013888889,0,0,0,,0,47,47,77,1,loco,,,,,
,,,,,,60b78fab6f56675dc6eeb9f1,676192165fb32c2e1fb7aee6,67d1ab6beb292a2b3e39df6b,2025-03-12_16h45.56.595,Tarea de decisión léxica,2024.2.5,Win32,144.9275362,,,,,,,,,,,,,,,,,,,,,,,166.8185,167.9778,a,1,0.5003,1,167.9778,168.4778,,,,,,115,FEM,WORD,AGR,150,pata,,la,,0.5003,,168.4779,168.478,0.055555556,-0.013888889,0,0,0,,0,48,48,114,1,haca,,,,,
,,,,,,60b78fab6f56675dc6eeb9f1,676192165fb32c2e1fb7aee6,67d1ab6beb292a2b3e39df6b,2025-03-12_16h45.56.595,Tarea de decisión léxica,2024.2.5,Win32,144.9275362,,,,,,,,,,,,,,,,,,,,,,,168.4784,169.4225,l,0,0.2855,0,169.4228,169.9225,,,,,,107,MAS,WORD,AGR,150,saco,,el,,0.2855,,169.9226,169.9226,0.055555556,-0.013888889,0,0,0,,0,49,49,106,1,raot,,,,,
,,,,,,60b78fab6f56675dc6eeb9f1,676192165fb32c2e1fb7aee6,67d1ab6beb292a2b3e39df6b,2025-03-12_16h45.56.595,Tarea de decisión léxica,2024.2.5,Win32,144.9275362,,,,,,,,,,,,,,,,,,,,,,,169.9231,171.0476,a,1,0.4697,1,171.0479,171.5478,,,,,,409,MAS,WORD,DIS,150,carro,,la,,0.4697,,171.5483,171.5487,0.055555556,-0.013888889,0,0,0,,0,50,50,408,1,pafro,,,,,
,,,,,,60b78fab6f56675dc6eeb9f1,676192165fb32c2e1fb7aee6,67d1ab6beb292a2b3e39df6b,2025-03-12_16h45.56.595,Tarea de decisión léxica,2024.2.5,Win32,144.9275362,,,,,,,,,,,,,,,,,,,,,,,171.549,172.6659,l,1,0.4615,1,172.666,173.166,,,,,,32,FEM,NOWORD,AGR,150,bova,,la,,0.4615,,173.166,173.166,0.055555556,-0.013888889,0,0,0,,0,51,51,31,1,ropa,,,,,
,,,,,,60b78fab6f56675dc6eeb9f1,676192165fb32c2e1fb7aee6,67d1ab6beb292a2b3e39df6b,2025-03-12_16h45.56.595,Tarea de decisión léxica,2024.2.5,Win32,144.9275362,,,,,,,,,,,,,,,,,,,,,,,173.1666,174.3675,a,1,0.5433,1,174.3675,174.8675,,,,,,285,MAS,WORD,DIS,150,error,,la,,0.5433,,174.8675,174.8676,0.055555556,-0.013888889,0,0,0,,0,52,52,284,1,echor,,,,,
,,,,,,60b78fab6f56675dc6eeb9f1,676192165fb32c2e1fb7aee6,67d1ab6beb292a2b3e39df6b,2025-03-12_16h45.56.595,Tarea de decisión léxica,2024.2.5,Win32,144.9275362,,,,,,,,,,,,,,,,,,,,,,,174.8681,175.9927,a,0,0.4707,0,175.993,176.4928,,,,,,432,MAS,NOWORD,AGR,150,tetor,,el,,0.4707,,176.4928,176.4928,0.055555556,-0.013888889,0,0,0,,0,53,53,431,1,motor,,,,,
,,,,,,60b78fab6f56675dc6eeb9f1,676192165fb32c2e1fb7aee6,67d1ab6beb292a2b3e39df6b,2025-03-12_16h45.56.595,Tarea de decisión léxica,2024.2.5,Win32,144.9275362,,,,,,,,,,,,,,,,,,,,,,,176.4933,177.9374,l,1,0.7902,1,177.9378,178.4375,,,,,,310,FEM,NOWORD,DIS,150,tirra,,el,,0.7902,,178.4375,178.4375,0.055555556,-0.013888889,0,0,0,,0,54,54,309,1,silla,,,,,
,,,,,,60b78fab6f56675dc6eeb9f1,676192165fb32c2e1fb7aee6,67d1ab6beb292a2b3e39df6b,2025-03-12_16h45.56.595,Tarea de decisión léxica,2024.2.5,Win32,144.9275362,,,,,,,,,,,,,,,,,,,,,,,178.4381,179.5071,a,1,0.412,1,179.5072,180.0072,,,,,,271,FEM,WORD,AGR,150,señal,,la,,0.412,,180.0078,180.0082,0.055555556,-0.013888889,0,0,0,,0,55,55,270,1,refal,,,,,
,,,,,,60b78fab6f56675dc6eeb9f1,676192165fb32c2e1fb7aee6,67d1ab6beb292a2b3e39df6b,2025-03-12_16h45.56.595,Tarea de decisión léxica,2024.2.5,Win32,144.9275362,,,,,,,,,,,,,,,,,,,,,,,180.0085,181.181,l,1,0.5132,1,181.181,181.681,,,,,,188,MAS,NOWORD,AGR,150,suto,,el,,0.5132,,181.681,181.681,0.055555556,-0.013888889,0,0,0,,0,56,56,187,1,mito,,,,,
,,,,,,60b78fab6f56675dc6eeb9f1,676192165fb32c2e1fb7aee6,67d1ab6beb292a2b3e39df6b,2025-03-12_16h45.56.595,Tarea de decisión léxica,2024.2.5,Win32,144.9275362,,,,,,,,,,,,,,,,,,,,,,,181.6815,182.8209,l,1,0.4861,1,182.821,183.3201,,,,,,22,MAS,NOWORD,DIS,150,blan,,la,,0.4861,,183.3201,183.3201,0.055555556,-0.013888889,0,0,0,,0,57,57,21,1,plan,,,,,
,,,,,,60b78fab6f56675dc6eeb9f1,676192165fb32c2e1fb7aee6,67d1ab6beb292a2b3e39df6b,2025-03-12_16h45.56.595,Tarea de decisión léxica,2024.2.5,Win32,144.9275362,,,,,,,,,,,,,,,,,,,,,,,183.3207,184.4313,a,0,0.4526,0,184.4318,184.9314,,,,,,274,FEM,NOWORD,DIS,150,frosa,,el,,0.4526,,184.9314,184.9314,0.055555556,-0.013888889,0,0,0,,0,58,58,273,1,broma,,,,,
,,,,,,60b78fab6f56675dc6eeb9f1,676192165fb32c2e1fb7aee6,67d1ab6beb292a2b3e39df6b,2025-03-12_16h45.56.595,Tarea de decisión léxica,2024.2.5,Win32,144.9275362,,,,,,,,,,,,,,,,,,,,,,,184.9319,186.1746,a,1,0.5852,1,186.1749,186.6747,,,,,,91,FEM,WORD,AGR,150,taza,,la,,0.5852,,186.6752,186.6755,0.055555556,-0.013888889,0,0,0,,0,59,59,90,1,sava,,,,,
,,,,,,60b78fab6f56675dc6eeb9f1,676192165fb32c2e1fb7aee6,67d1ab6beb292a2b3e39df6b,2025-03-12_16h45.56.595,Tarea de decisión léxica,2024.2.5,Win32,144.9275362,,,,,,,,,,,,,,,,,,,,,,,186.6758,187.8832,l,1,0.5514,1,187.8832,188.3832,,,,,,56,MAS,NOWORD,AGR,150,jado,,el,,0.5514,,188.3833,188.3834,0.055555556,-0.013888889,0,0,0,,0,60,60,55,1,gato,,,,,
,,,,,,60b78fab6f56675dc6eeb9f1,676192165fb32c2e1fb7aee6,67d1ab6beb292a2b3e39df6b,2025-03-12_16h45.56.595,Tarea de decisión léxica,2024.2.5,Win32,144.9275362,,,,,,,,,,,,,,,,,,,,,,,188.3838,189.7522,l,1,0.7154,1,189.7523,190.2516,,,,,,250,FEM,NOWORD,DIS,150,plane,,el,,0.7154,,190.2516,190.2517,0.055555556,-0.013888889,0,0,0,,0,61,61,249,1,clase,,,,,
,,,,,,60b78fab6f56675dc6eeb9f1,676192165fb32c2e1fb7aee6,67d1ab6beb292a2b3e39df6b,2025-03-12_16h45.56.595,Tarea de decisión léxica,2024.2.5,Win32,144.9275362,,,,,,,,,,,,,,,,,,,,,,,190.2521,191.2863,a,1,0.3799,1,191.2863,191.7871,,,,,,377,MAS,WORD,DIS,150,hielo,,la,,0.3799,,191.7871,191.7871,0.055555556,-0.013888889,0,0,0,,0,62,62,376,1,gaulo,,,,,
,,,,,,60b78fab6f56675dc6eeb9f1,676192165fb32c2e1fb7aee6,67d1ab6beb292a2b3e39df6b,2025-03-12_16h45.56.595,Tarea de decisión léxica,2024.2.5,Win32,144.9275362,,,,,,,,,,,,,,,,,,,,,,,191.7876,193.0852,a,1,0.6428,1,193.0853,193.5854,,,,,,347,FEM,WORD,AGR,150,pieza,,la,,0.6428,,193.5854,193.5855,0.055555556,-0.013888889,0,0,0,,0,63,63,346,1,mueza,,,,,
,,,,,,60b78fab6f56675dc6eeb9f1,676192165fb32c2e1fb7aee6,67d1ab6beb292a2b3e39df6b,2025-03-12_16h45.56.595,Tarea de decisión léxica,2024.2.5,Win32,144.9275362,,,,,,,,,,,,,,,,,,,,,,,193.586,194.8215,l,1,0.5802,1,194.8216,195.3216,,,,,,60,FEM,NOWORD,AGR,150,tafa,,la,,0.5802,,195.3221,195.3224,0.055555556,-0.013888889,0,0,0,,0,64,64,59,1,sala,,,,,
,,,,,,60b78fab6f56675dc6eeb9f1,676192165fb32c2e1fb7aee6,67d1ab6beb292a2b3e39df6b,2025-03-12_16h45.56.595,Tarea de decisión léxica,2024.2.5,Win32,144.9275362,,,,,,,,,,,,,,,,,,,,,,,195.3228,196.4823,a,0,0.5063,0,196.4826,196.9816,,,,,,108,MAS,NOWORD,AGR,150,raot,,el,,0.5063,,196.9816,196.9817,0.055555556,-0.013888889,0,0,0,,0,65,65,107,1,saco,,,,,
,,,,,,60b78fab6f56675dc6eeb9f1,676192165fb32c2e1fb7aee6,67d1ab6beb292a2b3e39df6b,2025-03-12_16h45.56.595,Tarea de decisión léxica,2024.2.5,Win32,144.9275362,,,,,,,,,,,,,,,,,,,,,,,196.9822,198.5167,a,1,0.8737,1,198.517,199.0167,,,,,,89,MAS,WORD,DIS,150,humo,,la,,0.8737,,199.0167,199.0167,0.055555556,-0.013888889,0,0,0,,0,66,66,88,1,guso,,,,,
,,,,,,60b78fab6f56675dc6eeb9f1,676192165fb32c2e1fb7aee6,67d1ab6beb292a2b3e39df6b,2025-03-12_16h45.56.595,Tarea de decisión léxica,2024.2.5,Win32,144.9275362,,,,,,,,,,,,,,,,,,,,,,,199.0173,200.0653,l,1,0.3906,1,200.0653,200.5654,,,,,,200,MAS,NOWORD,AGR,150,fano,,el,,0.3906,,200.5654,200.5654,0.055555556,-0.013888889,0,0,0,,0,67,67,199,1,lazo,,,,,
,,,,,,60b78fab6f56675dc6eeb9f1,676192165fb32c2e1fb7aee6,67d1ab6beb292a2b3e39df6b,2025-03-12_16h45.56.595,Tarea de decisión léxica,2024.2.5,Win32,144.9275362,,,,,,,,,,,,,,,,,,,,,,,200.566,201.6912,l,1,0.4717,1,201.6913,202.1913,,,,,,168,FEM,NOWORD,AGR,150,zifa,,la,,0.4717,,202.1913,202.1914,0.055555556,-0.013888889,0,0,0,,0,68,68,167,1,jefa,,,,,
,,,,,,60b78fab6f56675dc6eeb9f1,676192165fb32c2e1fb7aee6,67d1ab6beb292a2b3e39df6b,2025-03-12_16h45.56.595,Tarea de decisión léxica,2024.2.5,Win32,144.9275362,,,,,,,,,,,,,,,,,,,,,,,202.1919,203.2949,a,1,0.4467,1,203.2949,203.7957,,,,,,327,MAS,WORD,AGR,150,fondo,,el,,0.4467,,203.7962,203.7966,0.055555556,-0.013888889,0,0,0,,0,69,69,326,1,lendo,,,,,
,,,,,,60b78fab6f56675dc6eeb9f1,676192165fb32c2e1fb7aee6,67d1ab6beb292a2b3e39df6b,2025-03-12_16h45.56.595,Tarea de decisión léxica,2024.2.5,Win32,144.9275362,,,,,,,,,,,,,,,,,,,,,,,203.7972,204.9279,a,1,0.4792,1,204.928,205.4272,,,,,,145,MAS,WORD,DIS,150,león,,la,,0.4792,,205.4272,205.4273,0.055555556,-0.013888889,0,0,0,,0,70,70,144,1,nobo,,,,,
,,,,,,60b78fab6f56675dc6eeb9f1,676192165fb32c2e1fb7aee6,67d1ab6beb292a2b3e39df6b,2025-03-12_16h45.56.595,Tarea de decisión léxica,2024.2.5,Win32,144.9275362,,,,,,,,,,,,,,,,,,,,,,,205.4278,206.6425,l,1,0.5511,1,206.6426,207.1432,,,,,,426,FEM,NOWORD,DIS,150,virca,,el,,0.5511,,207.1433,207.1433,0.055555556,-0.013888889,0,0,0,,0,71,71,425,1,viuda,,,,,
,,,,,,60b78fab6f56675dc6eeb9f1,676192165fb32c2e1fb7aee6,67d1ab6beb292a2b3e39df6b,2025-03-12_16h45.56.595,Tarea de decisión léxica,2024.2.5,Win32,144.9275362,,,,,,,,,,,,,,,,,,,,,,,207.1438,208.2955,a,0,0.4984,0,208.2959,208.7957,,,,,,416,FEM,NOWORD,AGR,150,juira,,la,,0.4984,,208.7957,208.7957,0.055555556,-0.013888889,0,0,0,,0,72,72,415,1,jaula,,,,,
,,,,,,60b78fab6f56675dc6eeb9f1,676192165fb32c2e1fb7aee6,67d1ab6beb292a2b3e39df6b,2025-03-12_16h45.56.595,Tarea de decisión léxica,2024.2.5,Win32,144.9275362,,,,,,,,,,,,,,,,,,,,,,,208.7961,209.9902,a,1,0.5403,1,209.9906,210.4903,,,,,,5,FEM,WORD,DIS,150,cosa,,el,,0.5403,,210.4903,210.4904,0.055555556,-0.013888889,0,0,0,,0,73,73,4,1,poga,,,,,
,,,,,,60b78fab6f56675dc6eeb9f1,676192165fb32c2e1fb7aee6,67d1ab6beb292a2b3e39df6b,2025-03-12_16h45.56.595,Tarea de decisión léxica,2024.2.5,Win32,144.9275362,,,,,,,,,,,,,,,,,,,,,,,210.4908,211.6501,l,1,0.5002,1,211.6501,212.1502,,,,,,138,MAS,NOWORD,DIS,150,pamo,,la,,0.5002,,212.1507,212.1511,0.055555556,-0.013888889,0,0,0,,0,74,74,137,1,nene,,,,,
,,,,,,60b78fab6f56675dc6eeb9f1,676192165fb32c2e1fb7aee6,67d1ab6beb292a2b3e39df6b,2025-03-12_16h45.56.595,Tarea de decisión léxica,2024.2.5,Win32,144.9275362,,,,,,,,,,,,,,,,,,,,,,,212.1514,213.3657,l,1,0.5557,1,213.3657,213.8658,,,,,,66,MAS,NOWORD,DIS,150,nios,,la,,0.5557,,213.8658,213.8658,0.055555556,-0.013888889,0,0,0,,0,75,75,65,1,dios,,,,,
,,,,,,60b78fab6f56675dc6eeb9f1,676192165fb32c2e1fb7aee6,67d1ab6beb292a2b3e39df6b,2025-03-12_16h45.56.595,Tarea de decisión léxica,2024.2.5,Win32,144.9275362,,,,,,,,,,,,,,,,,,,,,,,213.8664,215.0602,a,0,0.5394,0,215.0606,215.5604,,,,,,176,FEM,NOWORD,AGR,150,hosa,,la,,0.5394,,215.5605,215.5605,0.055555556,-0.013888889,0,0,0,,0,76,76,175,1,goma,,,,,
,,,,,,60b78fab6f56675dc6eeb9f1,676192165fb32c2e1fb7aee6,67d1ab6beb292a2b3e39df6b,2025-03-12_16h45.56.595,Tarea de decisión léxica,2024.2.5,Win32,144.9275362,,,,,,,,,,,,,,,,,,,,,,,215.5611,216.8591,l,1,0.6425,1,216.8595,217.3592,,,,,,156,FEM,NOWORD,AGR,150,luma,,la,,0.6425,,217.3593,217.3593,0.055555556,-0.013888889,0,0,0,,0,77,77,155,1,fuga,,,,,
,,,,,,60b78fab6f56675dc6eeb9f1,676192165fb32c2e1fb7aee6,67d1ab6beb292a2b3e39df6b,2025-03-12_16h45.56.595,Tarea de decisión léxica,2024.2.5,Win32,144.9275362,,,,,,,,,,,,,,,,,,,,,,,217.3599,218.5677,l,1,0.5489,1,218.5678,219.0678,,,,,,354,FEM,NOWORD,DIS,150,cezca,,el,,0.5489,,219.0678,219.0679,0.055555556,-0.013888889,0,0,0,,0,78,78,353,1,celda,,,,,
,,,,,,60b78fab6f56675dc6eeb9f1,676192165fb32c2e1fb7aee6,67d1ab6beb292a2b3e39df6b,2025-03-12_16h45.56.595,Tarea de decisión léxica,2024.2.5,Win32,144.9275362,,,,,,,,,,,,,,,,,,,,,,,219.0683,220.0818,a,1,0.3592,1,220.0819,220.5819,,,,,,349,MAS,WORD,DIS,150,color,,la,,0.3592,,220.5825,220.5829,0.055555556,-0.013888889,0,0,0,,0,79,79,348,1,cosir,,,,,
,,,,,,60b78fab6f56675dc6eeb9f1,676192165fb32c2e1fb7aee6,67d1ab6beb292a2b3e39df6b,2025-03-12_16h45.56.595,Tarea de decisión léxica,2024.2.5,Win32,144.9275362,,,,,,,,,,,,,,,,,,,,,,,220.5832,221.7069,a,1,0.4623,1,221.707,222.2071,,,,,,275,MAS,WORD,AGR,150,punto,,el,,0.4623,,222.2071,222.2071,0.055555556,-0.013888889,0,0,0,,0,80,80,274,1,musto,,,,,
,,,,,,60b78fab6f56675dc6eeb9f1,676192165fb32c2e1fb7aee6,67d1ab6beb292a2b3e39df6b,2025-03-12_16h45.56.595,Tarea de decisión léxica,2024.2.5,Win32,144.9275362,,,,,,,,,,,,,,,,,,,,,,,222.2076,223.4642,a,0,0.5976,0,223.4646,223.9642,,,,,,144,MAS,NOWORD,AGR,150,pezo,,el,,0.5976,,223.9642,223.9643,0.055555556,-0.013888889,0,0,0,,0,81,81,143,1,pavo,,,,,
,,,,,,60b78fab6f56675dc6eeb9f1,676192165fb32c2e1fb7aee6,67d1ab6beb292a2b3e39df6b,2025-03-12_16h45.56.595,Tarea de decisión léxica,2024.2.5,Win32,144.9275362,,,,,,,,,,,,,,,,,,,,,,,223.9648,225.02,a,1,0.4005,1,225.0204,225.52,,,,,,27,MAS,WORD,AGR,150,baño,,el,,0.4005,,225.5201,225.5202,0.055555556,-0.013888889,0,0,0,,0,82,82,26,1,ravo,,,,,
,,,,,,60b78fab6f56675dc6eeb9f1,676192165fb32c2e1fb7aee6,67d1ab6beb292a2b3e39df6b,2025-03-12_16h45.56.595,Tarea de decisión léxica,2024.2.5,Win32,144.9275362,,,,,,,,,,,,,,,,,,,,,,,225.5206,226.778,l,1,0.6038,1,226.778,227.2772,,,,,,332,MAS,NOWORD,AGR,150,erato,,el,,0.6038,,227.2777,227.278,0.055555556,-0.013888889,0,0,0,,0,83,83,331,1,éxito,,,,,
,,,,,,60b78fab6f56675dc6eeb9f1,676192165fb32c2e1fb7aee6,67d1ab6beb292a2b3e39df6b,2025-03-12_16h45.56.595,Tarea de decisión léxica,2024.2.5,Win32,144.9275362,,,,,,,,,,,,,,,,,,,,,,,227.2784,228.6802,a,1,0.7455,1,228.6803,229.1802,,,,,,257,FEM,WORD,DIS,150,amiga,,el,,0.7455,,229.1803,229.1803,0.055555556,-0.013888889,0,0,0,,0,84,84,256,1,asama,,,,,
,,,,,,60b78fab6f56675dc6eeb9f1,676192165fb32c2e1fb7aee6,67d1ab6beb292a2b3e39df6b,2025-03-12_16h45.56.595,Tarea de decisión léxica,2024.2.5,Win32,144.9275362,,,,,,,,,,,,,,,,,,,,,,,229.1809,230.9304,a,1,1.0899,1,230.9305,231.4305,,,,,,339,MAS,WORD,AGR,150,brazo,,el,,1.0899,,231.4306,231.4306,0.055555556,-0.013888889,0,0,0,,0,85,85,338,1,plajo,,,,,
,,,,,,60b78fab6f56675dc6eeb9f1,676192165fb32c2e1fb7aee6,67d1ab6beb292a2b3e39df6b,2025-03-12_16h45.56.595,Tarea de decisión léxica,2024.2.5,Win32,144.9275362,,,,,,,,,,,,,,,,,,,,,,,231.4313,232.6599,l,1,0.5715,1,232.6599,233.16,,,,,,18,FEM,NOWORD,DIS,150,paba,,el,,0.5715,,233.16,233.16,0.055555556,-0.013888889,0,0,0,,0,86,86,17,1,mamá,,,,,
,,,,,,60b78fab6f56675dc6eeb9f1,676192165fb32c2e1fb7aee6,67d1ab6beb292a2b3e39df6b,2025-03-12_16h45.56.595,Tarea de decisión léxica,2024.2.5,Win32,144.9275362,,,,,,,,,,,,,,,,,,,,,,,233.1605,234.2641,l,1,0.448,1,234.2642,234.7642,,,,,,150,MAS,NOWORD,DIS,150,pafo,,la,,0.448,,234.7642,234.7643,0.055555556,-0.013888889,0,0,0,,0,87,87,149,1,cabo,,,,,
,,,,,,60b78fab6f56675dc6eeb9f1,676192165fb32c2e1fb7aee6,67d1ab6beb292a2b3e39df6b,2025-03-12_16h45.56.595,Tarea de decisión léxica,2024.2.5,Win32,144.9275362,,,,,,,,,,,,,,,,,,,,,,,234.7652,235.9034,l,1,0.4789,1,235.9034,236.4035,,,,,,454,FEM,NOWORD,DIS,150,pafia,,el,,0.4789,,236.4039,236.4043,0.055555556,-0.013888889,0,0,0,,0,88,88,453,1,mafia,,,,,
,,,,,,60b78fab6f56675dc6eeb9f1,676192165fb32c2e1fb7aee6,67d1ab6beb292a2b3e39df6b,2025-03-12_16h45.56.595,Tarea de decisión léxica,2024.2.5,Win32,144.9275362,,,,,,,,,,,,,,,,,,,,,,,236.4046,237.4591,a,1,0.4006,1,237.4592,237.9593,,,,,,167,FEM,WORD,AGR,150,jefa,,la,,0.4006,,237.9593,237.9593,0.055555556,-0.013888889,0,0,0,,0,89,89,166,1,zifa,,,,,
,,,,,,60b78fab6f56675dc6eeb9f1,676192165fb32c2e1fb7aee6,67d1ab6beb292a2b3e39df6b,2025-03-12_16h45.56.595,Tarea de decisión léxica,2024.2.5,Win32,144.9275362,,,,,,,,,,,,,,,,,,,,,,,237.9597,239.1468,a,1,0.5336,1,239.1468,239.6469,,,,,,351,MAS,WORD,AGR,150,vuelo,,el,,0.5336,,239.6469,239.647,0.055555556,-0.013888889,0,0,0,,0,90,90,350,1,duepo,,,,,
,,,,,,60b78fab6f56675dc6eeb9f1,676192165fb32c2e1fb7aee6,67d1ab6beb292a2b3e39df6b,2025-03-12_16h45.56.595,Tarea de decisión léxica,2024.2.5,Win32,144.9275362,,,,,,,,,,,,,,,,,,,,,,,239.6475,240.6817,a,1,0.3777,1,240.6818,241.1818,,,,,,371,FEM,WORD,AGR,150,pasta,,la,,0.3777,,241.1818,241.1819,0.055555556,-0.013888889,0,0,0,,0,91,91,370,1,mosta,,,,,
,,,,,,60b78fab6f56675dc6eeb9f1,676192165fb32c2e1fb7aee6,67d1ab6beb292a2b3e39df6b,2025-03-12_16h45.56.595,Tarea de decisión léxica,2024.2.5,Win32,144.9275362,,,,,,,,,,,,,,,,,,,,,,,241.1824,242.1958,a,1,0.359,1,242.1959,242.6959,,,,,,273,FEM,WORD,DIS,150,broma,,el,,0.359,,242.6959,242.696,0.055555556,-0.013888889,0,0,0,,0,92,92,272,1,frosa,,,,,
,,,,,,60b78fab6f56675dc6eeb9f1,676192165fb32c2e1fb7aee6,67d1ab6beb292a2b3e39df6b,2025-03-12_16h45.56.595,Tarea de decisión léxica,2024.2.5,Win32,144.9275362,,,,,,,,,,,,,,,,,,,,,,,242.6964,243.7307,a,1,0.3799,1,243.7307,244.2308,,,,,,7,MAS,WORD,AGR,150,hijo,,el,,0.3799,,244.2314,244.2317,0.055555556,-0.013888889,0,0,0,,0,93,93,6,1,nivo,,,,,
,,,,,,60b78fab6f56675dc6eeb9f1,676192165fb32c2e1fb7aee6,67d1ab6beb292a2b3e39df6b,2025-03-12_16h45.56.595,Tarea de decisión léxica,2024.2.5,Win32,144.9275362,,,,,,,,,,,,,,,,,,,,,,,244.2321,245.3698,a,1,0.4786,1,245.37,245.8699,,,,,,233,FEM,WORD,DIS,150,lana,,el,,0.4786,,245.8699,245.8699,0.055555556,-0.013888889,0,0,0,,0,94,94,232,1,fasa,,,,,
,,,,,,60b78fab6f56675dc6eeb9f1,676192165fb32c2e1fb7aee6,67d1ab6beb292a2b3e39df6b,2025-03-12_16h45.56.595,Tarea de decisión léxica,2024.2.5,Win32,144.9275362,,,,,,,,,,,,,,,,,,,,,,,245.8704,247.0298,l,1,0.4989,1,247.0299,247.5299,,,,,,294,MAS,NOWORD,DIS,150,cacso,,la,,0.4989,,247.5299,247.5299,0.055555556,-0.013888889,0,0,0,,0,95,95,293,1,campo,,,,,
,,,,,,60b78fab6f56675dc6eeb9f1,676192165fb32c2e1fb7aee6,67d1ab6beb292a2b3e39df6b,2025-03-12_16h45.56.595,Tarea de decisión léxica,2024.2.5,Win32,144.9275362,,,,,,,,,,,,,,,,,,,,,,,247.5304,248.9189,a,1,0.7317,1,248.9189,249.419,,,,,,289,FEM,WORD,DIS,150,bomba,,el,,0.7317,,249.4191,249.4191,0.055555556,-0.013888889,0,0,0,,0,96,96,288,1,bumpa,,,,,
,,,,,,60b78fab6f56675dc6eeb9f1,676192165fb32c2e1fb7aee6,67d1ab6beb292a2b3e39df6b,2025-03-12_16h45.56.595,Tarea de decisión léxica,2024.2.5,Win32,144.9275362,,,,,,,,,,,,,,,,,,,,,,,249.4196,250.5725,l,1,0.4992,1,250.5726,251.072,,,,,,218,MAS,NOWORD,DIS,150,budo,,la,,0.4992,,251.072,251.072,0.055555556,-0.013888889,0,0,0,,0,97,97,217,1,luto,,,,,
,,,,,,60b78fab6f56675dc6eeb9f1,676192165fb32c2e1fb7aee6,67d1ab6beb292a2b3e39df6b,2025-03-12_16h45.56.595,Tarea de decisión léxica,2024.2.5,Win32,144.9275362,,,,,,,,,,,,,,,,,,,,,,,251.0725,252.5999,a,1,0.8728,1,252.5999,253.1006,,,,,,191,FEM,WORD,AGR,150,pila,,la,,0.8728,,253.1012,253.1015,0.055555556,-0.013888889,0,0,0,,0,98,98,190,1,bila,,,,,
,,,,,,60b78fab6f56675dc6eeb9f1,676192165fb32c2e1fb7aee6,67d1ab6beb292a2b3e39df6b,2025-03-12_16h45.56.595,Tarea de decisión léxica,2024.2.5,Win32,144.9275362,,,,,,,,,,,,,,,,,,,,,,,253.1018,254.4196,l,1,0.6615,1,254.4197,254.9197,,,,,,90,MAS,NOWORD,DIS,150,guso,,la,,0.6615,,254.9198,254.9198,0.055555556,-0.013888889,0,0,0,,0,99,99,89,1,humo,,,,,
,,,,,,60b78fab6f56675dc6eeb9f1,676192165fb32c2e1fb7aee6,67d1ab6beb292a2b3e39df6b,2025-03-12_16h45.56.595,Tarea de decisión léxica,2024.2.5,Win32,144.9275362,,,,,,,,,,,,,,,,,,,,,,,254.9202,255.9546,a,1,0.3802,1,255.9546,256.4547,,,,,,333,FEM,WORD,DIS,150,tarea,,el,,0.3802,,256.4547,256.4547,0.055555556,-0.013888889,0,0,0,,0,100,100,332,1,dalea,,,,,
,,,,,,60b78fab6f56675dc6eeb9f1,676192165fb32c2e1fb7aee6,67d1ab6beb292a2b3e39df6b,2025-03-12_16h45.56.595,Tarea de decisión léxica,2024.2.5,Win32,144.9275362,,,,,,,,,,,,,,,,,,,,,,,256.4552,257.7533,l,1,0.6372,1,257.7534,258.2534,,,,,,478,MAS,NOWORD,DIS,150,hocon,,la,,0.6372,,258.2535,258.2535,0.055555556,-0.013888889,0,0,0,,0,101,101,477,1,botón,,,,,
,,,,,,60b78fab6f56675dc6eeb9f1,676192165fb32c2e1fb7aee6,67d1ab6beb292a2b3e39df6b,2025-03-12_16h45.56.595,Tarea de decisión léxica,2024.2.5,Win32,144.9275362,,,,,,,,,,,,,,,,,,,,,,,258.254,259.3926,a,1,0.4792,1,259.3926,259.8927,,,,,,243,MAS,WORD,AGR,150,amigo,,el,,0.4792,,259.8927,259.8927,0.055555556,-0.013888889,0,0,0,,0,102,102,242,1,asamo,,,,,
,,,,,,60b78fab6f56675dc6eeb9f1,676192165fb32c2e1fb7aee6,67d1ab6beb292a2b3e39df6b,2025-03-12_16h45.56.595,Tarea de decisión léxica,2024.2.5,Win32,144.9275362,,,,,,,,,,,,,,,,,,,,,,,259.8934,261.0255,a,1,0.4792,1,261.0256,261.5248,,,,,,25,FEM,WORD,DIS,150,cama,,el,,0.4792,,261.5253,261.5256,0.055555556,-0.013888889,0,0,0,,0,103,103,24,1,paza,,,,,
,,,,,,60b78fab6f56675dc6eeb9f1,676192165fb32c2e1fb7aee6,67d1ab6beb292a2b3e39df6b,2025-03-12_16h45.56.595,Tarea de decisión léxica,2024.2.5,Win32,144.9275362,,,,,,,,,,,,,,,,,,,,,,,261.5259,262.8027,l,1,0.612,1,262.8027,263.3028,,,,,,130,MAS,NOWORD,DIS,150,pima,,la,,0.612,,263.3028,263.3028,0.055555556,-0.013888889,0,0,0,,0,104,104,129,1,oído,,,,,
,,,,,,60b78fab6f56675dc6eeb9f1,676192165fb32c2e1fb7aee6,67d1ab6beb292a2b3e39df6b,2025-03-12_16h45.56.595,Tarea de decisión léxica,2024.2.5,Win32,144.9275362,,,,,,,,,,,,,,,,,,,,,,,263.3033,264.5052,a,1,0.548,1,264.5053,265.0044,,,,,,63,FEM,WORD,AGR,150,luna,,la,,0.548,,265.0045,265.0045,0.055555556,-0.013888889,0,0,0,,0,105,105,62,1,funa,,,,,
,,,,,,60b78fab6f56675dc6eeb9f1,676192165fb32c2e1fb7aee6,67d1ab6beb292a2b3e39df6b,2025-03-12_16h45.56.595,Tarea de decisión léxica,2024.2.5,Win32,144.9275362,,,,,,,,,,,,,,,,,,,,,,,265.005,266.1642,l,1,0.5026,1,266.1642,266.6643,,,,,,40,MAS,NOWORD,AGR,150,redo,,el,,0.5026,,266.6643,266.6644,0.055555556,-0.013888889,0,0,0,,0,106,106,39,1,voto,,,,,
,,,,,,60b78fab6f56675dc6eeb9f1,676192165fb32c2e1fb7aee6,67d1ab6beb292a2b3e39df6b,2025-03-12_16h45.56.595,Tarea de decisión léxica,2024.2.5,Win32,144.9275362,,,,,,,,,,,,,,,,,,,,,,,266.6649,267.8172,l,1,0.4991,1,267.8173,268.3172,,,,,,8,MAS,NOWORD,AGR,150,nivo,,el,,0.4991,,268.3178,268.3182,0.055555556,-0.013888889,0,0,0,,0,107,107,7,1,hijo,,,,,
,,,,,,60b78fab6f56675dc6eeb9f1,676192165fb32c2e1fb7aee6,67d1ab6beb292a2b3e39df6b,2025-03-12_16h45.56.595,Tarea de decisión léxica,2024.2.5,Win32,144.9275362,,,,,,,,,,,,,,,,,,,,,,,268.3185,269.4563,a,1,0.4726,1,269.4564,269.9564,,,,,,155,FEM,WORD,AGR,150,fuga,,la,,0.4726,,269.9564,269.9564,0.055555556,-0.013888889,0,0,0,,0,108,108,154,1,luma,,,,,
,,,,,,60b78fab6f56675dc6eeb9f1,676192165fb32c2e1fb7aee6,67d1ab6beb292a2b3e39df6b,2025-03-12_16h45.56.595,Tarea de decisión léxica,2024.2.5,Win32,144.9275362,,,,,,,,,,,,,,,,,,,,,,,269.9569,271.0817,l,1,0.4682,1,271.0817,271.5818,,,,,,72,FEM,NOWORD,AGR,150,urla,,la,,0.4682,,271.5818,271.5819,0.055555556,-0.013888889,0,0,0,,0,109,109,71,1,isla,,,,,
,,,,,,60b78fab6f56675dc6eeb9f1,676192165fb32c2e1fb7aee6,67d1ab6beb292a2b3e39df6b,2025-03-12_16h45.56.595,Tarea de decisión léxica,2024.2.5,Win32,144.9275362,,,,,,,,,,,,,,,,,,,,,,,271.5825,272.6026,a,1,0.3616,1,272.6027,273.1026,,,,,,103,FEM,WORD,AGR,150,ruta,,la,,0.3616,,273.1026,273.1027,0.055555556,-0.013888889,0,0,0,,0,110,110,102,1,rova,,,,,
,,,,,,60b78fab6f56675dc6eeb9f1,676192165fb32c2e1fb7aee6,67d1ab6beb292a2b3e39df6b,2025-03-12_16h45.56.595,Tarea de decisión léxica,2024.2.5,Win32,144.9275362,,,,,,,,,,,,,,,,,,,,,,,273.1031,274.2,a,1,0.4437,1,274.2,274.7001,,,,,,299,FEM,WORD,AGR,150,bolsa,,la,,0.4437,,274.7001,274.7002,0.055555556,-0.013888889,0,0,0,,0,111,111,298,1,bosga,,,,,
,,,,,,60b78fab6f56675dc6eeb9f1,676192165fb32c2e1fb7aee6,67d1ab6beb292a2b3e39df6b,2025-03-12_16h45.56.595,Tarea de decisión léxica,2024.2.5,Win32,144.9275362,,,,,,,,,,,,,,,,,,,,,,,274.7006,275.9086,a,1,0.5537,1,275.9086,276.4086,,,,,,123,FEM,WORD,AGR,150,flor,,la,,0.5537,,276.4091,276.4095,0.055555556,-0.013888889,0,0,0,,0,112,112,122,1,maba,,,,,
,,,,,,60b78fab6f56675dc6eeb9f1,676192165fb32c2e1fb7aee6,67d1ab6beb292a2b3e39df6b,2025-03-12_16h45.56.595,Tarea de decisión léxica,2024.2.5,Win32,144.9275362,,,,,,,,,,,,,,,,,,,,,,,276.4099,277.645,a,1,0.5776,1,277.645,278.145,,,,,,75,MAS,WORD,AGR,150,olor,,el,,0.5776,,278.145,278.145,0.056481481,-0.013888889,0,0,0,,0,113,113,74,1,ocer,,,,,
,,,,,,60b78fab6f56675dc6eeb9f1,676192165fb32c2e1fb7aee6,67d1ab6beb292a2b3e39df6b,2025-03-12_16h45.56.595,Tarea de decisión léxica,2024.2.5,Win32,144.9275362,,,,,,,,,,,,,,,,,,,,,,,278.1455,279.3881,l,1,0.5862,1,279.3882,279.8883,,,,,,264,FEM,NOWORD,AGR,150,dosta,,la,,0.5862,,279.8883,279.8883,0.056481481,-0.013888889,0,0,0,,0,114,114,263,1,vista,,,,,
,,,,,,60b78fab6f56675dc6eeb9f1,676192165fb32c2e1fb7aee6,67d1ab6beb292a2b3e39df6b,2025-03-12_16h45.56.595,Tarea de decisión léxica,2024.2.5,Win32,144.9275362,,,,,,,,,,,,,,,,,,,,,,,279.8887,281.215,l,1,0.6663,1,281.2151,281.7149,,,,,,216,FEM,NOWORD,AGR,150,raua,,la,,0.6663,,281.7149,281.715,0.056481481,-0.013888889,0,0,0,,0,115,115,215,1,raíz,,,,,
,,,,,,60b78fab6f56675dc6eeb9f1,676192165fb32c2e1fb7aee6,67d1ab6beb292a2b3e39df6b,2025-03-12_16h45.56.595,Tarea de decisión léxica,2024.2.5,Win32,144.9275362,,,,,,,,,,,,,,,,,,,,,,,281.7155,282.9928,l,1,0.6193,1,282.9929,283.4928,,,,,,114,FEM,NOWORD,DIS,150,tada,,el,,0.6193,,283.4929,283.4929,0.056481481,-0.013888889,0,0,0,,0,116,116,113,1,miel,,,,,
,,,,,,60b78fab6f56675dc6eeb9f1,676192165fb32c2e1fb7aee6,67d1ab6beb292a2b3e39df6b,2025-03-12_16h45.56.595,Tarea de decisión léxica,2024.2.5,Win32,144.9275362,,,,,,,,,,,,,,,,,,,,,,,283.4934,284.7232,l,1,0.576,1,284.7232,285.223,,,,,,430,FEM,NOWORD,DIS,150,tenta,,el,,0.576,,285.2235,285.2238,0.056481481,-0.013888889,0,0,0,,0,117,117,429,1,tarta,,,,,
,,,,,,60b78fab6f56675dc6eeb9f1,676192165fb32c2e1fb7aee6,67d1ab6beb292a2b3e39df6b,2025-03-12_16h45.56.595,Tarea de decisión léxica,2024.2.5,Win32,144.9275362,,,,,,,,,,,,,,,,,,,,,,,285.2242,286.4238,l,1,0.5459,1,286.4238,286.9239,,,,,,358,FEM,NOWORD,DIS,150,gruba,,el,,0.5459,,286.9239,286.9239,0.056481481,-0.013888889,0,0,0,,0,118,118,357,1,bruja,,,,,
,,,,,,60b78fab6f56675dc6eeb9f1,676192165fb32c2e1fb7aee6,67d1ab6beb292a2b3e39df6b,2025-03-12_16h45.56.595,Tarea de decisión léxica,2024.2.5,Win32,144.9275362,,,,,,,,,,,,,,,,,,,,,,,286.9244,288.0351,a,1,0.4512,1,288.0351,288.5351,,,,,,319,MAS,WORD,AGR,150,suelo,,el,,0.4512,,288.5352,288.5352,0.056481481,-0.013888889,0,0,0,,0,119,119,318,1,tuero,,,,,
,,,,,,60b78fab6f56675dc6eeb9f1,676192165fb32c2e1fb7aee6,67d1ab6beb292a2b3e39df6b,2025-03-12_16h45.56.595,Tarea de decisión léxica,2024.2.5,Win32,144.9275362,,,,,,,,,,,,,,,,,,,,,,,288.5357,289.6951,l,1,0.5003,1,289.6951,290.1952,,,,,,116,FEM,NOWORD,AGR,150,haca,,la,,0.5003,,290.1952,290.1952,0.056481481,-0.013888889,0,0,0,,0,120,120,115,1,pata,,,,,
,,,,,,60b78fab6f56675dc6eeb9f1,676192165fb32c2e1fb7aee6,67d1ab6beb292a2b3e39df6b,2025-03-12_16h45.56.595,Tarea de decisión léxica,2024.2.5,Win32,144.9275362,,,,,,,,,,,,,,,,,,,,,,,290.1957,291.2023,a,1,0.351,1,291.2023,291.7023,,,,,,245,FEM,WORD,DIS,150,madre,,el,,0.351,,291.7023,291.7023,0.056481481,-0.013888889,0,0,0,,0,121,121,244,1,pafle,,,,,
,,,,,,60b78fab6f56675dc6eeb9f1,676192165fb32c2e1fb7aee6,67d1ab6beb292a2b3e39df6b,2025-03-12_16h45.56.595,Tarea de decisión léxica,2024.2.5,Win32,144.9275362,,,,,,,,,,,,,,,,,,,,,,,291.7028,293.0775,a,1,0.7185,1,293.0775,293.5776,,,,,,187,MAS,WORD,AGR,150,mito,,el,,0.7185,,293.5781,293.5785,0.056481481,-0.013888889,0,0,0,,0,122,122,186,1,suto,,,,,
,,,,,,60b78fab6f56675dc6eeb9f1,676192165fb32c2e1fb7aee6,67d1ab6beb292a2b3e39df6b,2025-03-12_16h45.56.595,Tarea de decisión léxica,2024.2.5,Win32,144.9275362,,,,,,,,,,,,,,,,,,,,,,,293.5789,294.5917,l,1,0.353,1,294.5917,295.0917,,,,,,136,MAS,NOWORD,AGR,150,geso,,el,,0.353,,295.0918,295.0918,0.056481481,-0.013888889,0,0,0,,0,123,123,135,1,tubo,,,,,
,,,,,,60b78fab6f56675dc6eeb9f1,676192165fb32c2e1fb7aee6,67d1ab6beb292a2b3e39df6b,2025-03-12_16h45.56.595,Tarea de decisión léxica,2024.2.5,Win32,144.9275362,,,,,,,,,,,,,,,,,,,,,,,295.0923,296.1265,a,1,0.3788,1,296.1265,296.6265,,,,,,449,FEM,WORD,DIS,150,pluma,,el,,0.3788,,296.6266,296.6266,0.056481481,-0.013888889,0,0,0,,0,124,124,448,1,crusa,,,,,
,,,,,,60b78fab6f56675dc6eeb9f1,676192165fb32c2e1fb7aee6,67d1ab6beb292a2b3e39df6b,2025-03-12_16h45.56.595,Tarea de decisión léxica,2024.2.5,Win32,144.9275362,,,,,,,,,,,,,,,,,,,,,,,296.627,297.759,l,1,0.478,1,297.759,298.2589,,,,,,58,MAS,NOWORD,DIS,150,heco,,la,,0.478,,298.2589,298.2589,0.056481481,-0.013888889,0,0,0,,0,125,125,57,1,dedo,,,,,
,,,,,,60b78fab6f56675dc6eeb9f1,676192165fb32c2e1fb7aee6,67d1ab6beb292a2b3e39df6b,2025-03-12_16h45.56.595,Tarea de decisión léxica,2024.2.5,Win32,144.9275362,,,,,,,,,,,,,,,,,,,,,,,298.2594,299.4125,l,1,0.4993,1,299.4125,299.9117,,,,,,424,MAS,NOWORD,AGR,150,quigo,,el,,0.4993,,299.9117,299.9118,0.056481481,-0.013888889,0,0,0,,0,126,126,423,1,queso,,,,,
,,,,,,60b78fab6f56675dc6eeb9f1,676192165fb32c2e1fb7aee6,67d1ab6beb292a2b3e39df6b,2025-03-12_16h45.56.595,Tarea de decisión léxica,2024.2.5,Win32,144.9275362,,,,,,,,,,,,,,,,,,,,,,,299.9123,301.1201,a,0,0.5488,0,301.1207,301.6206,,,,,,92,FEM,NOWORD,AGR,150,sava,,la,,0.5488,,301.6211,301.6214,0.056481481,-0.013888889,0,0,0,,0,127,127,91,1,taza,,,,,
,,,,,,60b78fab6f56675dc6eeb9f1,676192165fb32c2e1fb7aee6,67d1ab6beb292a2b3e39df6b,2025-03-12_16h45.56.595,Tarea de decisión léxica,2024.2.5,Win32,144.9275362,,,,,,,,,,,,,,,,,,,,,,,301.6218,302.7038,a,1,0.4294,1,302.704,303.2038,,,,,,461,FEM,WORD,DIS,150,tabla,,el,,0.4294,,303.2038,303.2038,0.056481481,-0.013888889,0,0,0,,0,128,128,460,1,pagra,,,,,
,,,,,,60b78fab6f56675dc6eeb9f1,676192165fb32c2e1fb7aee6,67d1ab6beb292a2b3e39df6b,2025-03-12_16h45.56.595,Tarea de decisión léxica,2024.2.5,Win32,144.9275362,,,,,,,,,,,,,,,,,,,,,,,303.2043,304.2942,a,1,0.4295,1,304.2942,304.7944,,,,,,111,MAS,WORD,AGR,150,muro,,el,,0.4295,,304.7944,304.7944,0.056481481,-0.013888889,0,0,0,,0,129,129,110,1,siro,,,,,
,,,,,,60b78fab6f56675dc6eeb9f1,676192165fb32c2e1fb7aee6,67d1ab6beb292a2b3e39df6b,2025-03-12_16h45.56.595,Tarea de decisión léxica,2024.2.5,Win32,144.9275362,,,,,,,,,,,,,,,,,,,,,,,304.7949,305.8014,l,1,0.3496,1,305.8015,306.3014,,,,,,48,MAS,NOWORD,AGR,150,chub,,el,,0.3496,,306.3014,306.3015,0.056481481,-0.013888889,0,0,0,,0,130,130,47,1,club,,,,,
,,,,,,60b78fab6f56675dc6eeb9f1,676192165fb32c2e1fb7aee6,67d1ab6beb292a2b3e39df6b,2025-03-12_16h45.56.595,Tarea de decisión léxica,2024.2.5,Win32,144.9275362,,,,,,,,,,,,,,,,,,,,,,,306.302,307.5794,a,1,0.6207,1,307.5795,308.0794,,,,,,311,MAS,WORD,AGR,150,honor,,el,,0.6207,,308.0799,308.0802,0.056481481,-0.013888889,0,0,0,,0,131,131,310,1,nosor,,,,,
,,,,,,60b78fab6f56675dc6eeb9f1,676192165fb32c2e1fb7aee6,67d1ab6beb292a2b3e39df6b,2025-03-12_16h45.56.595,Tarea de decisión léxica,2024.2.5,Win32,144.9275362,,,,,,,,,,,,,,,,,,,,,,,308.0805,309.6282,a,1,0.8893,1,309.6283,310.1282,,,,,,11,MAS,WORD,AGR,150,lado,,el,,0.8893,,310.1283,310.1283,0.056481481,-0.013888889,0,0,0,,0,132,132,10,1,bapo,,,,,
,,,,,,60b78fab6f56675dc6eeb9f1,676192165fb32c2e1fb7aee6,67d1ab6beb292a2b3e39df6b,2025-03-12_16h45.56.595,Tarea de decisión léxica,2024.2.5,Win32,144.9275362,,,,,,,,,,,,,,,,,,,,,,,310.1288,311.2048,a,0,0.4139,0,311.2052,311.705,,,,,,202,FEM,NOWORD,DIS,150,cusa,,el,,0.4139,,311.705,311.705,0.056481481,-0.013888889,0,0,0,,0,133,133,201,1,cuna,,,,,
,,,,,,60b78fab6f56675dc6eeb9f1,676192165fb32c2e1fb7aee6,67d1ab6beb292a2b3e39df6b,2025-03-12_16h45.56.595,Tarea de decisión léxica,2024.2.5,Win32,144.9275362,,,,,,,,,,,,,,,,,,,,,,,311.7055,312.7189,a,1,0.356,1,312.7193,313.219,,,,,,31,FEM,WORD,AGR,150,ropa,,la,,0.356,,313.219,313.2191,0.056481481,-0.013888889,0,0,0,,0,134,134,30,1,bova,,,,,
,,,,,,60b78fab6f56675dc6eeb9f1,676192165fb32c2e1fb7aee6,67d1ab6beb292a2b3e39df6b,2025-03-12_16h45.56.595,Tarea de decisión léxica,2024.2.5,Win32,144.9275362,,,,,,,,,,,,,,,,,,,,,,,313.2195,314.4969,a,1,0.6182,1,314.4969,314.997,,,,,,205,FEM,WORD,DIS,150,rana,,el,,0.6182,,314.997,314.9971,0.056481481,-0.013888889,0,0,0,,0,135,135,204,1,bara,,,,,
,,,,,,60b78fab6f56675dc6eeb9f1,676192165fb32c2e1fb7aee6,67d1ab6beb292a2b3e39df6b,2025-03-12_16h45.56.595,Tarea de decisión léxica,2024.2.5,Win32,144.9275362,,,,,,,,,,,,,,,,,,,,,,,314.9975,316.2689,a,1,0.6174,1,316.2689,316.7681,,,,,,189,MAS,WORD,DIS,150,puño,,la,,0.6174,,316.7685,316.7689,0.056481481,-0.013888889,0,0,0,,0,136,136,188,1,muvo,,,,,
,,,,,,60b78fab6f56675dc6eeb9f1,676192165fb32c2e1fb7aee6,67d1ab6beb292a2b3e39df6b,2025-03-12_16h45.56.595,Tarea de decisión léxica,2024.2.5,Win32,144.9275362,,,,,,,,,,,,,,,,,,,,,,,316.7692,317.7821,a,1,0.358,1,317.7821,318.2829,,,,,,385,FEM,WORD,DIS,150,letra,,el,,0.358,,318.2829,318.283,0.056481481,-0.013888889,0,0,0,,0,137,137,384,1,febra,,,,,
,,,,,,60b78fab6f56675dc6eeb9f1,676192165fb32c2e1fb7aee6,67d1ab6beb292a2b3e39df6b,2025-03-12_16h45.56.595,Tarea de decisión léxica,2024.2.5,Win32,144.9275362,,,,,,,,,,,,,,,,,,,,,,,318.2834,319.2961,l,1,0.3567,1,319.2962,319.7962,,,,,,88,MAS,NOWORD,AGR,150,damo,,el,,0.3567,,319.7963,319.7963,0.056481481,-0.013888889,0,0,0,,0,138,138,87,1,vaso,,,,,
,,,,,,60b78fab6f56675dc6eeb9f1,676192165fb32c2e1fb7aee6,67d1ab6beb292a2b3e39df6b,2025-03-12_16h45.56.595,Tarea de decisión léxica,2024.2.5,Win32,144.9275362,,,,,,,,,,,,,,,,,,,,,,,319.7968,320.9978,a,1,0.5471,1,320.9978,321.4978,,,,,,73,MAS,WORD,DIS,150,odio,,la,,0.5471,,321.4978,321.4978,0.056481481,-0.013888889,0,0,0,,0,139,139,72,1,omio,,,,,
,,,,,,60b78fab6f56675dc6eeb9f1,676192165fb32c2e1fb7aee6,67d1ab6beb292a2b3e39df6b,2025-03-12_16h45.56.595,Tarea de decisión léxica,2024.2.5,Win32,144.9275362,,,,,,,,,,,,,,,,,,,,,,,321.4984,322.5397,a,1,0.3828,1,322.5398,323.0399,,,,,,125,MAS,WORD,DIS,150,lujo,,la,,0.3828,,323.0399,323.04,0.056481481,-0.013888889,0,0,0,,0,140,140,124,1,vudo,,,,,
,,,,,,60b78fab6f56675dc6eeb9f1,676192165fb32c2e1fb7aee6,67d1ab6beb292a2b3e39df6b,2025-03-12_16h45.56.595,Tarea de decisión léxica,2024.2.5,Win32,144.9275362,,,,,,,,,,,,,,,,,,,,,,,323.0404,324.1232,a,1,0.4251,1,324.1232,324.6239,,,,,,343,FEM,WORD,AGR,150,plata,,la,,0.4251,,324.6245,324.6248,0.056481481,-0.013888889,0,0,0,,0,141,141,342,1,trada,,,,,
,,,,,,60b78fab6f56675dc6eeb9f1,676192165fb32c2e1fb7aee6,67d1ab6beb292a2b3e39df6b,2025-03-12_16h45.56.595,Tarea de decisión léxica,2024.2.5,Win32,144.9275362,,,,,,,,,,,,,,,,,,,,,,,324.6251,325.7344,a,1,0.4508,1,325.7345,326.2346,,,,,,473,FEM,WORD,DIS,150,feria,,el,,0.4508,,326.2346,326.2346,0.056481481,-0.013888889,0,0,0,,0,142,142,472,1,felia,,,,,
,,,,,,60b78fab6f56675dc6eeb9f1,676192165fb32c2e1fb7aee6,67d1ab6beb292a2b3e39df6b,2025-03-12_16h45.56.595,Tarea de decisión léxica,2024.2.5,Win32,144.9275362,,,,,,,,,,,,,,,,,,,,,,,326.2351,327.4361,a,1,0.5454,1,327.4361,327.9362,,,,,,161,MAS,WORD,DIS,150,coro,,la,,0.5454,,327.9362,327.9362,0.056481481,-0.013888889,0,0,0,,0,143,143,160,1,bopo,,,,,
,,,,,,60b78fab6f56675dc6eeb9f1,676192165fb32c2e1fb7aee6,67d1ab6beb292a2b3e39df6b,2025-03-12_16h45.56.595,Tarea de decisión léxica,2024.2.5,Win32,144.9275362,,,,,,,,,,,,,,,,,,,,,,,327.9367,328.9572,a,0,0.3613,0,328.9575,329.4572,,,,,,238,MAS,NOWORD,DIS,150,huco,,la,,0.3613,,329.4573,329.4573,0.056481481,-0.013888889,0,0,0,,0,144,144,237,1,nudo,,,,,
,,,,,,60b78fab6f56675dc6eeb9f1,676192165fb32c2e1fb7aee6,67d1ab6beb292a2b3e39df6b,2025-03-12_16h45.56.595,Tarea de decisión léxica,2024.2.5,Win32,144.9275362,,,,,,,,,,,,,,,,,,,,,,,329.4578,330.9158,l,1,0.8027,1,330.9161,331.4158,,,,,,400,MAS,NOWORD,AGR,150,serro,,el,,0.8027,,331.4158,331.4159,0.056481481,-0.013888889,0,0,0,,0,145,145,399,1,techo,,,,,
,,,,,,60b78fab6f56675dc6eeb9f1,676192165fb32c2e1fb7aee6,67d1ab6beb292a2b3e39df6b,2025-03-12_16h45.56.595,Tarea de decisión léxica,2024.2.5,Win32,144.9275362,,,,,,,,,,,,,,,,,,,,,,,331.4164,332.5619,l,1,0.4884,1,332.5619,333.0619,,,,,,166,FEM,NOWORD,DIS,150,dera,,el,,0.4884,,333.0624,333.0628,0.056481481,-0.013888889,0,0,0,,0,146,146,165,1,vela,,,,,
,,,,,,60b78fab6f56675dc6eeb9f1,676192165fb32c2e1fb7aee6,67d1ab6beb292a2b3e39df6b,2025-03-12_16h45.56.595,Tarea de decisión léxica,2024.2.5,Win32,144.9275362,,,,,,,,,,,,,,,,,,,,,,,333.063,334.4024,l,1,0.6849,1,334.4024,334.9024,,,,,,236,FEM,NOWORD,AGR,150,tria,,la,,0.6849,,334.9024,334.9024,0.056481481,-0.013888889,0,0,0,,0,147,147,235,1,grúa,,,,,
,,,,,,60b78fab6f56675dc6eeb9f1,676192165fb32c2e1fb7aee6,67d1ab6beb292a2b3e39df6b,2025-03-12_16h45.56.595,Tarea de decisión léxica,2024.2.5,Win32,144.9275362,,,,,,,,,,,,,,,,,,,,,,,334.9032,335.9858,a,1,0.4264,1,335.9859,336.4858,,,,,,109,MAS,WORD,DIS,150,rayo,,la,,0.4264,,336.4859,336.4859,0.056481481,-0.013888889,0,0,0,,0,148,148,108,1,suno,,,,,
,,,,,,60b78fab6f56675dc6eeb9f1,676192165fb32c2e1fb7aee6,67d1ab6beb292a2b3e39df6b,2025-03-12_16h45.56.595,Tarea de decisión léxica,2024.2.5,Win32,144.9275362,,,,,,,,,,,,,,,,,,,,,,,336.4864,337.5972,a,1,0.4521,1,337.5972,338.098,,,,,,119,MAS,WORD,AGR,150,pozo,,el,,0.4521,,338.098,338.0981,0.056481481,-0.013888889,0,0,0,,0,149,149,118,1,hooy,,,,,
,,,,,,60b78fab6f56675dc6eeb9f1,676192165fb32c2e1fb7aee6,67d1ab6beb292a2b3e39df6b,2025-03-12_16h45.56.595,Tarea de decisión léxica,2024.2.5,Win32,144.9275362,,,,,,,,,,,,,,,,,,,,,,,338.0985,339.2716,a,1,0.5209,1,339.2717,339.7711,,,,,,131,FEM,WORD,AGR,150,mina,,la,,0.5209,,339.7711,339.7711,0.056481481,-0.013888889,0,0,0,,0,150,150,130,1,fada,,,,,
,,,,,,60b78fab6f56675dc6eeb9f1,676192165fb32c2e1fb7aee6,67d1ab6beb292a2b3e39df6b,2025-03-12_16h45.56.595,Tarea de decisión léxica,2024.2.5,Win32,144.9275362,,,,,,,,,,,,,,,,,,,,,,,339.7716,340.7651,l,1,0.3404,1,340.7652,341.2642,,,,,,398,FEM,NOWORD,DIS,150,trigi,,el,,0.3404,,341.2647,341.265,0.056481481,-0.013888889,0,0,0,,0,151,151,397,1,tribu,,,,,
,,,,,,60b78fab6f56675dc6eeb9f1,676192165fb32c2e1fb7aee6,67d1ab6beb292a2b3e39df6b,2025-03-12_16h45.56.595,Tarea de decisión léxica,2024.2.5,Win32,144.9275362,,,,,,,,,,,,,,,,,,,,,,,341.2653,342.4312,l,1,0.5079,1,342.4312,342.9312,,,,,,278,MAS,NOWORD,DIS,150,vuemo,,la,,0.5079,,342.9312,342.9313,0.056481481,-0.013888889,0,0,0,,0,152,152,277,1,fuego,,,,,
,,,,,,60b78fab6f56675dc6eeb9f1,676192165fb32c2e1fb7aee6,67d1ab6beb292a2b3e39df6b,2025-03-12_16h45.56.595,Tarea de decisión léxica,2024.2.5,Win32,144.9275362,,,,,,,,,,,,,,,,,,,,,,,342.9317,344.0286,l,1,0.4389,1,344.0286,344.5286,,,,,,76,MAS,NOWORD,AGR,150,ocer,,el,,0.4389,,344.5286,344.5286,0.056481481,-0.013888889,0,0,0,,0,153,153,75,1,olor,,,,,
,,,,,,60b78fab6f56675dc6eeb9f1,676192165fb32c2e1fb7aee6,67d1ab6beb292a2b3e39df6b,2025-03-12_16h45.56.595,Tarea de decisión léxica,2024.2.5,Win32,144.9275362,,,,,,,,,,,,,,,,,,,,,,,344.5292,345.6609,a,1,0.4681,1,345.6609,346.1608,,,,,,95,FEM,WORD,AGR,151,moda,,la,,0.4681,,346.1609,346.161,0.056481481,-0.013888889,0,0,0,,0,154,154,94,1,neda,,,,,
,,,,,,60b78fab6f56675dc6eeb9f1,676192165fb32c2e1fb7aee6,67d1ab6beb292a2b3e39df6b,2025-03-12_16h45.56.595,Tarea de decisión léxica,2024.2.5,Win32,144.9275362,,,,,,,,,,,,,,,,,,,,,,,346.1615,347.1749,l,1,0.358,1,347.175,347.675,,,,,,464,FEM,NOWORD,AGR,150,matla,,la,,0.358,,347.6753,347.6757,0.056481481,-0.013888889,0,0,0,,0,155,155,463,1,cabra,,,,,
,,,,,,60b78fab6f56675dc6eeb9f1,676192165fb32c2e1fb7aee6,67d1ab6beb292a2b3e39df6b,2025-03-12_16h45.56.595,Tarea de decisión léxica,2024.2.5,Win32,144.9275362,,,,,,,,,,,,,,,,,,,,,,,347.676,348.8286,l,1,0.4983,1,348.8287,349.328,,,,,,402,MAS,NOWORD,DIS,150,pirvo,,la,,0.4983,,349.328,349.3281,0.056481481,-0.013888889,0,0,0,,0,156,156,401,1,polvo,,,,,
,,,,,,60b78fab6f56675dc6eeb9f1,676192165fb32c2e1fb7aee6,67d1ab6beb292a2b3e39df6b,2025-03-12_16h45.56.595,Tarea de decisión léxica,2024.2.5,Win32,144.9275362,,,,,,,,,,,,,,,,,,,,,,,349.3285,350.2586,a,1,0.2709,1,350.2587,350.7587,,,,,,1,FEM,WORD,DIS,150,casa,,el,,0.2709,,350.7587,350.7587,0.056481481,-0.013888889,0,0,0,,0,157,157,0,1,mada,,,,,
,,,,,,60b78fab6f56675dc6eeb9f1,676192165fb32c2e1fb7aee6,67d1ab6beb292a2b3e39df6b,2025-03-12_16h45.56.595,Tarea de decisión léxica,2024.2.5,Win32,144.9275362,,,,,,,,,,,,,,,,,,,,,,,350.7592,351.856,l,1,0.4411,1,351.856,352.3561,,,,,,220,FEM,NOWORD,AGR,150,miva,,la,,0.4411,,352.3561,352.3562,0.056481481,-0.013888889,0,0,0,,0,158,158,219,1,pipa,,,,,
,,,,,,60b78fab6f56675dc6eeb9f1,676192165fb32c2e1fb7aee6,67d1ab6beb292a2b3e39df6b,2025-03-12_16h45.56.595,Tarea de decisión léxica,2024.2.5,Win32,144.9275362,,,,,,,,,,,,,,,,,,,,,,,352.3567,353.4048,l,1,0.3904,1,353.4048,353.9049,,,,,,256,MAS,NOWORD,AGR,150,mauco,,el,,0.3904,,353.9049,353.905,0.056481481,-0.013888889,0,0,0,,0,159,159,255,1,miedo,,,,,
,,,,,,60b78fab6f56675dc6eeb9f1,676192165fb32c2e1fb7aee6,67d1ab6beb292a2b3e39df6b,2025-03-12_16h45.56.595,Tarea de decisión léxica,2024.2.5,Win32,144.9275362,,,,,,,,,,,,,,,,,,,,,,,353.9054,355.0023,l,1,0.4341,1,355.0023,355.5023,,,,,,276,MAS,NOWORD,AGR,150,musto,,el,,0.4341,,355.5028,440.4442,0.056481481,-0.013888889,0,0,0,space,0,160,160,275,1,punto,84.9316,,,,
,,,,,,60b78fab6f56675dc6eeb9f1,676192165fb32c2e1fb7aee6,67d1ab6beb292a2b3e39df6b,2025-03-12_16h45.56.595,Tarea de decisión léxica,2024.2.5,Win32,144.9275362,,,,,,,,,,,,,,,,,,,,,,,440.4448,441.597,a,0,0.4949,0,441.5973,442.0969,,,,,,118,MAS,NOWORD,DIS,150,movo,,la,,0.4949,,442.097,442.097,0.056481481,-0.013888889,0,0,0,,0,161,161,117,1,palo,,,,,
,,,,,,60b78fab6f56675dc6eeb9f1,676192165fb32c2e1fb7aee6,67d1ab6beb292a2b3e39df6b,2025-03-12_16h45.56.595,Tarea de decisión léxica,2024.2.5,Win32,144.9275362,,,,,,,,,,,,,,,,,,,,,,,442.0975,443.3263,l,1,0.5731,1,443.3267,443.8263,,,,,,438,FEM,NOWORD,DIS,150,glava,,el,,0.5731,,443.8264,443.8265,0.056481481,-0.013888889,0,0,0,,0,162,162,437,1,plaza,,,,,
,,,,,,60b78fab6f56675dc6eeb9f1,676192165fb32c2e1fb7aee6,67d1ab6beb292a2b3e39df6b,2025-03-12_16h45.56.595,Tarea de decisión léxica,2024.2.5,Win32,144.9275362,,,,,,,,,,,,,,,,,,,,,,,443.8269,445.2501,l,1,0.7643,1,445.2501,445.7509,,,,,,446,MAS,NOWORD,DIS,150,ascor,,la,,0.7643,,445.751,445.751,0.056481481,-0.013888889,0,0,0,,0,163,163,445,1,actor,,,,,
,,,,,,60b78fab6f56675dc6eeb9f1,676192165fb32c2e1fb7aee6,67d1ab6beb292a2b3e39df6b,2025-03-12_16h45.56.595,Tarea de decisión léxica,2024.2.5,Win32,144.9275362,,,,,,,,,,,,,,,,,,,,,,,445.7515,446.8686,l,1,0.4589,1,446.8686,447.3685,,,,,,210,MAS,NOWORD,DIS,150,dero,,la,,0.4589,,447.3685,447.3687,0.056481481,-0.013888889,0,0,0,,0,164,164,209,1,velo,,,,,
,,,,,,60b78fab6f56675dc6eeb9f1,676192165fb32c2e1fb7aee6,67d1ab6beb292a2b3e39df6b,2025-03-12_16h45.56.595,Tarea de decisión léxica,2024.2.5,Win32,144.9275362,,,,,,,,,,,,,,,,,,,,,,,447.3692,448.4666,a,1,0.4433,1,448.4666,448.9667,,,,,,253,MAS,WORD,DIS,150,chico,,la,,0.4433,,448.9672,448.9674,0.056481481,-0.013888889,0,0,0,,0,165,165,252,1,trido,,,,,
,,,,,,60b78fab6f56675dc6eeb9f1,676192165fb32c2e1fb7aee6,67d1ab6beb292a2b3e39df6b,2025-03-12_16h45.56.595,Tarea de decisión léxica,2024.2.5,Win32,144.9275362,,,,,,,,,,,,,,,,,,,,,,,448.9677,450.0572,a,1,0.4376,1,450.0573,450.5563,,,,,,283,MAS,WORD,AGR,150,sueño,,el,,0.4376,,450.5563,450.5564,0.056481481,-0.013888889,0,0,0,,0,166,166,282,1,tuevo,,,,,
,,,,,,60b78fab6f56675dc6eeb9f1,676192165fb32c2e1fb7aee6,67d1ab6beb292a2b3e39df6b,2025-03-12_16h45.56.595,Tarea de decisión léxica,2024.2.5,Win32,144.9275362,,,,,,,,,,,,,,,,,,,,,,,450.5569,451.5634,l,1,0.3493,1,451.5635,452.0635,,,,,,104,FEM,NOWORD,AGR,150,rova,,la,,0.3493,,452.0636,452.0636,0.056481481,-0.013888889,0,0,0,,0,167,167,103,1,ruta,,,,,
,,,,,,60b78fab6f56675dc6eeb9f1,676192165fb32c2e1fb7aee6,67d1ab6beb292a2b3e39df6b,2025-03-12_16h45.56.595,Tarea de decisión léxica,2024.2.5,Win32,144.9275362,,,,,,,,,,,,,,,,,,,,,,,452.0641,453.1748,l,0,0.4524,0,453.1752,453.6756,,,,,,389,MAS,WORD,DIS,150,cerdo,,la,,0.4524,,453.6756,453.6756,0.056481481,-0.013888889,0,0,0,,0,168,168,388,1,cenco,,,,,
,,,,,,60b78fab6f56675dc6eeb9f1,676192165fb32c2e1fb7aee6,67d1ab6beb292a2b3e39df6b,2025-03-12_16h45.56.595,Tarea de decisión léxica,2024.2.5,Win32,144.9275362,,,,,,,,,,,,,,,,,,,,,,,453.676,454.8626,l,1,0.5289,1,454.863,455.3634,,,,,,474,FEM,NOWORD,DIS,150,felia,,el,,0.5289,,455.3634,455.3634,0.056481481,-0.013888889,0,0,0,,0,169,169,473,1,feria,,,,,
,,,,,,60b78fab6f56675dc6eeb9f1,676192165fb32c2e1fb7aee6,67d1ab6beb292a2b3e39df6b,2025-03-12_16h45.56.595,Tarea de decisión léxica,2024.2.5,Win32,144.9275362,,,,,,,,,,,,,,,,,,,,,,,455.364,456.4391,l,0,0.4201,0,456.4395,456.9392,,,,,,41,FEM,WORD,DIS,150,nave,,el,,0.4201,,456.9396,456.9401,0.056481481,-0.013888889,0,0,0,,0,170,170,40,1,haje,,,,,
,,,,,,60b78fab6f56675dc6eeb9f1,676192165fb32c2e1fb7aee6,67d1ab6beb292a2b3e39df6b,2025-03-12_16h45.56.595,Tarea de decisión léxica,2024.2.5,Win32,144.9275362,,,,,,,,,,,,,,,,,,,,,,,456.9404,458.3352,l,1,0.7408,1,458.3356,458.8352,,,,,,140,MAS,NOWORD,AGR,150,nila,,el,,0.7408,,458.8353,458.8353,0.056481481,-0.013888889,0,0,0,,0,171,171,139,1,mago,,,,,
,,,,,,60b78fab6f56675dc6eeb9f1,676192165fb32c2e1fb7aee6,67d1ab6beb292a2b3e39df6b,2025-03-12_16h45.56.595,Tarea de decisión léxica,2024.2.5,Win32,144.9275362,,,,,,,,,,,,,,,,,,,,,,,458.8358,460.0377,l,1,0.542,1,460.0378,460.5369,,,,,,10,MAS,NOWORD,DIS,150,sibo,,la,,0.542,,460.5369,460.537,0.056481481,-0.013888889,0,0,0,,0,172,172,9,1,tipo,,,,,
,,,,,,60b78fab6f56675dc6eeb9f1,676192165fb32c2e1fb7aee6,67d1ab6beb292a2b3e39df6b,2025-03-12_16h45.56.595,Tarea de decisión léxica,2024.2.5,Win32,144.9275362,,,,,,,,,,,,,,,,,,,,,,,460.5375,461.7662,l,1,0.5741,1,461.7663,462.2664,,,,,,352,MAS,NOWORD,AGR,150,duepo,,el,,0.5741,,462.2664,462.2665,0.056481481,-0.013888889,0,0,0,,0,173,173,351,1,vuelo,,,,,
,,,,,,60b78fab6f56675dc6eeb9f1,676192165fb32c2e1fb7aee6,67d1ab6beb292a2b3e39df6b,2025-03-12_16h45.56.595,Tarea de decisión léxica,2024.2.5,Win32,144.9275362,,,,,,,,,,,,,,,,,,,,,,,462.2672,463.3706,a,1,0.4482,1,463.3706,463.8709,,,,,,443,MAS,WORD,AGR,150,salón,,el,,0.4482,,463.8709,463.8709,0.055555556,-0.013888889,0,0,0,,0,174,174,442,1,taron,,,,,
,,,,,,60b78fab6f56675dc6eeb9f1,676192165fb32c2e1fb7aee6,67d1ab6beb292a2b3e39df6b,2025-03-12_16h45.56.595,Tarea de decisión léxica,2024.2.5,Win32,144.9275362,,,,,,,,,,,,,,,,,,,,,,,463.8713,464.982,l,1,0.4538,1,464.982,465.482,,,,,,26,FEM,NOWORD,DIS,150,paza,,el,,0.4538,,465.4825,465.4828,0.055555556,-0.013888889,0,0,0,,0,175,175,25,1,cama,,,,,
,,,,,,60b78fab6f56675dc6eeb9f1,676192165fb32c2e1fb7aee6,67d1ab6beb292a2b3e39df6b,2025-03-12_16h45.56.595,Tarea de decisión léxica,2024.2.5,Win32,144.9275362,,,,,,,,,,,,,,,,,,,,,,,465.4832,466.9752,l,1,0.8268,1,466.9753,467.4753,,,,,,302,FEM,NOWORD,DIS,150,ranga,,el,,0.8268,,467.4753,467.4754,0.055555556,-0.013888889,0,0,0,,0,176,176,301,1,banda,,,,,
,,,,,,60b78fab6f56675dc6eeb9f1,676192165fb32c2e1fb7aee6,67d1ab6beb292a2b3e39df6b,2025-03-12_16h45.56.595,Tarea de decisión léxica,2024.2.5,Win32,144.9275362,,,,,,,,,,,,,,,,,,,,,,,467.4758,468.5804,a,1,0.4509,1,468.5805,469.0797,,,,,,93,FEM,WORD,DIS,150,bola,,el,,0.4509,,469.0797,469.0797,0.055555556,-0.013888889,0,0,0,,0,177,177,92,1,rona,,,,,
,,,,,,60b78fab6f56675dc6eeb9f1,676192165fb32c2e1fb7aee6,67d1ab6beb292a2b3e39df6b,2025-03-12_16h45.56.595,Tarea de decisión léxica,2024.2.5,Win32,144.9275362,,,,,,,,,,,,,,,,,,,,,,,469.0802,470.2395,a,1,0.5037,1,470.2396,470.7396,,,,,,241,MAS,WORD,DIS,150,mundo,,la,,0.5037,,470.7396,470.7397,0.055555556,-0.013888889,0,0,0,,0,178,178,240,1,mirdo,,,,,
,,,,,,60b78fab6f56675dc6eeb9f1,676192165fb32c2e1fb7aee6,67d1ab6beb292a2b3e39df6b,2025-03-12_16h45.56.595,Tarea de decisión léxica,2024.2.5,Win32,144.9275362,,,,,,,,,,,,,,,,,,,,,,,470.7402,471.8995,a,1,0.503,1,471.8995,472.4002,,,,,,399,MAS,WORD,AGR,150,techo,,el,,0.503,,472.4008,472.401,0.055555556,-0.013888889,0,0,0,,0,179,179,398,1,serro,,,,,
,,,,,,60b78fab6f56675dc6eeb9f1,676192165fb32c2e1fb7aee6,67d1ab6beb292a2b3e39df6b,2025-03-12_16h45.56.595,Tarea de decisión léxica,2024.2.5,Win32,144.9275362,,,,,,,,,,,,,,,,,,,,,,,472.4013,473.6568,a,0,0.5974,0,473.6571,474.1567,,,,,,444,MAS,NOWORD,AGR,150,taron,,el,,0.5974,,474.1567,474.1568,0.055555556,-0.013888889,0,0,0,,0,180,180,443,1,salón,,,,,
,,,,,,60b78fab6f56675dc6eeb9f1,676192165fb32c2e1fb7aee6,67d1ab6beb292a2b3e39df6b,2025-03-12_16h45.56.595,Tarea de decisión léxica,2024.2.5,Win32,144.9275362,,,,,,,,,,,,,,,,,,,,,,,474.1572,475.2132,l,1,0.4028,1,475.2137,475.7125,,,,,,428,FEM,NOWORD,AGR,150,oseva,,la,,0.4028,,475.7125,475.7126,0.055555556,-0.013888889,0,0,0,,0,181,181,427,1,oreja,,,,,
,,,,,,60b78fab6f56675dc6eeb9f1,676192165fb32c2e1fb7aee6,67d1ab6beb292a2b3e39df6b,2025-03-12_16h45.56.595,Tarea de decisión léxica,2024.2.5,Win32,144.9275362,,,,,,,,,,,,,,,,,,,,,,,475.7131,476.9974,l,1,0.6279,1,476.9974,477.4975,,,,,,240,MAS,NOWORD,AGR,150,poño,,el,,0.6279,,477.4975,477.4975,0.055555556,-0.013888889,0,0,0,,0,182,182,239,1,mozo,,,,,
,,,,,,60b78fab6f56675dc6eeb9f1,676192165fb32c2e1fb7aee6,67d1ab6beb292a2b3e39df6b,2025-03-12_16h45.56.595,Tarea de decisión léxica,2024.2.5,Win32,144.9275362,,,,,,,,,,,,,,,,,,,,,,,477.498,478.6226,a,0,0.46,0,478.6229,479.1226,,,,,,226,MAS,NOWORD,DIS,150,boco,,la,,0.46,,479.1227,479.1227,0.055555556,-0.013888889,0,0,0,,0,183,183,225,1,lodo,,,,,
,,,,,,60b78fab6f56675dc6eeb9f1,676192165fb32c2e1fb7aee6,67d1ab6beb292a2b3e39df6b,2025-03-12_16h45.56.595,Tarea de decisión léxica,2024.2.5,Win32,144.9275362,,,,,,,,,,,,,,,,,,,,,,,479.1232,480.3105,l,1,0.5218,1,480.3108,480.8105,,,,,,244,MAS,NOWORD,AGR,150,asamo,,el,,0.5218,,480.8111,480.8114,0.055555556,-0.013888889,0,0,0,,0,184,184,243,1,amigo,,,,,
,,,,,,60b78fab6f56675dc6eeb9f1,676192165fb32c2e1fb7aee6,67d1ab6beb292a2b3e39df6b,2025-03-12_16h45.56.595,Tarea de decisión léxica,2024.2.5,Win32,144.9275362,,,,,,,,,,,,,,,,,,,,,,,480.8116,481.9356,a,1,0.4651,1,481.9356,482.4357,,,,,,321,MAS,WORD,DIS,150,banco,,la,,0.4651,,482.4357,482.4357,0.055555556,-0.013888889,0,0,0,,0,185,185,320,1,rarco,,,,,
,,,,,,60b78fab6f56675dc6eeb9f1,676192165fb32c2e1fb7aee6,67d1ab6beb292a2b3e39df6b,2025-03-12_16h45.56.595,Tarea de decisión léxica,2024.2.5,Win32,144.9275362,,,,,,,,,,,,,,,,,,,,,,,482.4361,484.0677,l,1,0.9768,1,484.0678,484.5678,,,,,,82,FEM,NOWORD,DIS,150,vasa,,el,,0.9768,,484.5679,484.5679,0.055555556,-0.013888889,0,0,0,,0,186,186,81,1,dama,,,,,
,,,,,,60b78fab6f56675dc6eeb9f1,676192165fb32c2e1fb7aee6,67d1ab6beb292a2b3e39df6b,2025-03-12_16h45.56.595,Tarea de decisión léxica,2024.2.5,Win32,144.9275362,,,,,,,,,,,,,,,,,,,,,,,484.5685,485.8528,a,1,0.6252,1,485.8528,486.3528,,,,,,323,FEM,WORD,AGR,150,cinta,,la,,0.6252,,486.3529,486.3529,0.055555556,-0.013888889,0,0,0,,0,187,187,322,1,certa,,,,,
,,,,,,60b78fab6f56675dc6eeb9f1,676192165fb32c2e1fb7aee6,67d1ab6beb292a2b3e39df6b,2025-03-12_16h45.56.595,Tarea de decisión léxica,2024.2.5,Win32,144.9275362,,,,,,,,,,,,,,,,,,,,,,,486.3532,487.4571,a,0,0.4463,0,487.4574,487.9571,,,,,,232,FEM,NOWORD,AGR,150,heta,,la,,0.4463,,487.9571,487.9572,0.055555556,-0.013888889,0,0,0,,0,188,188,231,1,bota,,,,,
,,,,,,60b78fab6f56675dc6eeb9f1,676192165fb32c2e1fb7aee6,67d1ab6beb292a2b3e39df6b,2025-03-12_16h45.56.595,Tarea de decisión léxica,2024.2.5,Win32,144.9275362,,,,,,,,,,,,,,,,,,,,,,,487.9578,489.6664,l,1,1.0555,1,489.6668,490.1664,,,,,,248,FEM,NOWORD,AGR,150,trida,,la,,1.0555,,490.1669,490.1672,0.055555556,-0.013888889,0,0,0,,0,189,189,247,1,chica,,,,,
,,,,,,60b78fab6f56675dc6eeb9f1,676192165fb32c2e1fb7aee6,67d1ab6beb292a2b3e39df6b,2025-03-12_16h45.56.595,Tarea de decisión léxica,2024.2.5,Win32,144.9275362,,,,,,,,,,,,,,,,,,,,,,,490.1674,491.5696,a,1,0.7433,1,491.5696,492.0688,,,,,,457,MAS,WORD,DIS,150,plato,,la,,0.7433,,492.0688,492.0688,0.055555556,-0.013888889,0,0,0,,0,190,190,456,1,glaco,,,,,
,,,,,,60b78fab6f56675dc6eeb9f1,676192165fb32c2e1fb7aee6,67d1ab6beb292a2b3e39df6b,2025-03-12_16h45.56.595,Tarea de decisión léxica,2024.2.5,Win32,144.9275362,,,,,,,,,,,,,,,,,,,,,,,492.0694,493.4302,a,1,0.7068,1,493.4302,493.9301,,,,,,139,MAS,WORD,AGR,150,mago,,el,,0.7068,,493.9302,493.9302,0.055555556,-0.013888889,0,0,0,,0,191,191,138,1,nila,,,,,
,,,,,,60b78fab6f56675dc6eeb9f1,676192165fb32c2e1fb7aee6,67d1ab6beb292a2b3e39df6b,2025-03-12_16h45.56.595,Tarea de decisión léxica,2024.2.5,Win32,144.9275362,,,,,,,,,,,,,,,,,,,,,,,493.9307,495.3817,l,1,0.7939,1,495.3818,495.8818,,,,,,164,FEM,NOWORD,AGR,150,laga,,la,,0.7939,,495.8818,495.8818,0.055555556,-0.013888889,0,0,0,,0,192,192,163,1,fama,,,,,
,,,,,,60b78fab6f56675dc6eeb9f1,676192165fb32c2e1fb7aee6,67d1ab6beb292a2b3e39df6b,2025-03-12_16h45.56.595,Tarea de decisión léxica,2024.2.5,Win32,144.9275362,,,,,,,,,,,,,,,,,,,,,,,495.8824,497.0625,l,1,0.5205,1,497.0626,497.5626,,,,,,356,FEM,NOWORD,AGR,150,bepla,,la,,0.5205,,497.5626,497.5627,0.055555556,-0.013888889,0,0,0,,0,193,193,355,1,regla,,,,,
,,,,,,60b78fab6f56675dc6eeb9f1,676192165fb32c2e1fb7aee6,67d1ab6beb292a2b3e39df6b,2025-03-12_16h45.56.595,Tarea de decisión léxica,2024.2.5,Win32,144.9275362,,,,,,,,,,,,,,,,,,,,,,,497.5632,499.1322,l,0,0.9128,0,499.1326,499.6323,,,,,,43,FEM,WORD,AGR,150,pena,,la,,0.9128,,499.6328,499.6331,0.055555556,-0.013888889,0,0,0,,0,194,194,42,1,meda,,,,,
,,,,,,60b78fab6f56675dc6eeb9f1,676192165fb32c2e1fb7aee6,67d1ab6beb292a2b3e39df6b,2025-03-12_16h45.56.595,Tarea de decisión léxica,2024.2.5,Win32,144.9275362,,,,,,,,,,,,,,,,,,,,,,,499.6335,500.7366,l,1,0.4449,1,500.7369,501.2366,,,,,,468,MAS,NOWORD,AGR,150,peiso,,el,,0.4449,,501.2367,501.2368,0.055555556,-0.013888889,0,0,0,,0,195,195,467,1,piano,,,,,
,,,,,,60b78fab6f56675dc6eeb9f1,676192165fb32c2e1fb7aee6,67d1ab6beb292a2b3e39df6b,2025-03-12_16h45.56.595,Tarea de decisión léxica,2024.2.5,Win32,144.9275362,,,,,,,,,,,,,,,,,,,,,,,501.2372,502.6127,l,1,0.7223,1,502.6127,503.1119,,,,,,452,FEM,NOWORD,AGR,150,clita,,la,,0.7223,,503.1119,503.112,0.055555556,-0.013888889,0,0,0,,0,196,196,451,1,fruta,,,,,
,,,,,,60b78fab6f56675dc6eeb9f1,676192165fb32c2e1fb7aee6,67d1ab6beb292a2b3e39df6b,2025-03-12_16h45.56.595,Tarea de decisión léxica,2024.2.5,Win32,144.9275362,,,,,,,,,,,,,,,,,,,,,,,503.1124,504.3413,a,1,0.5716,1,504.3413,504.8413,,,,,,219,FEM,WORD,AGR,150,pipa,,la,,0.5716,,504.8413,504.8414,0.055555556,-0.013888889,0,0,0,,0,197,197,218,1,miva,,,,,
,,,,,,60b78fab6f56675dc6eeb9f1,676192165fb32c2e1fb7aee6,67d1ab6beb292a2b3e39df6b,2025-03-12_16h45.56.595,Tarea de decisión léxica,2024.2.5,Win32,144.9275362,,,,,,,,,,,,,,,,,,,,,,,504.8418,505.9942,l,1,0.4952,1,505.9943,506.4943,,,,,,100,MAS,NOWORD,AGR,150,soro,,el,,0.4952,,506.4943,506.4944,0.055555556,-0.013888889,0,0,0,,0,198,198,99,1,lobo,,,,,
,,,,,,60b78fab6f56675dc6eeb9f1,676192165fb32c2e1fb7aee6,67d1ab6beb292a2b3e39df6b,2025-03-12_16h45.56.595,Tarea de decisión léxica,2024.2.5,Win32,144.9275362,,,,,,,,,,,,,,,,,,,,,,,506.4948,507.7305,l,1,0.5777,1,507.7305,508.2306,,,,,,340,MAS,NOWORD,AGR,150,plajo,,el,,0.5777,,508.2311,508.2314,0.055555556,-0.013888889,0,0,0,,0,199,199,339,1,brazo,,,,,
,,,,,,60b78fab6f56675dc6eeb9f1,676192165fb32c2e1fb7aee6,67d1ab6beb292a2b3e39df6b,2025-03-12_16h45.56.595,Tarea de decisión léxica,2024.2.5,Win32,144.9275362,,,,,,,,,,,,,,,,,,,,,,,508.2317,509.5294,l,1,0.6394,1,509.5295,510.0295,,,,,,376,FEM,NOWORD,AGR,150,sasna,,la,,0.6394,,510.0295,510.0296,0.055555556,-0.013888889,0,0,0,,0,200,200,375,1,salsa,,,,,
,,,,,,60b78fab6f56675dc6eeb9f1,676192165fb32c2e1fb7aee6,67d1ab6beb292a2b3e39df6b,2025-03-12_16h45.56.595,Tarea de decisión léxica,2024.2.5,Win32,144.9275362,,,,,,,,,,,,,,,,,,,,,,,510.0301,511.1068,a,1,0.4227,1,511.1068,511.6062,,,,,,249,FEM,WORD,DIS,150,clase,,el,,0.4227,,511.6063,511.6064,0.055555556,-0.013888889,0,0,0,,0,201,201,248,1,plane,,,,,
,,,,,,60b78fab6f56675dc6eeb9f1,676192165fb32c2e1fb7aee6,67d1ab6beb292a2b3e39df6b,2025-03-12_16h45.56.595,Tarea de decisión léxica,2024.2.5,Win32,144.9275362,,,,,,,,,,,,,,,,,,,,,,,511.6069,512.7313,a,1,0.4649,1,512.7313,513.2313,,,,,,77,MAS,WORD,DIS,150,loco,,la,,0.4649,,513.2314,513.2314,0.055555556,-0.013888889,0,0,0,,0,202,202,76,1,fodo,,,,,
,,,,,,60b78fab6f56675dc6eeb9f1,676192165fb32c2e1fb7aee6,67d1ab6beb292a2b3e39df6b,2025-03-12_16h45.56.595,Tarea de decisión léxica,2024.2.5,Win32,144.9275362,,,,,,,,,,,,,,,,,,,,,,,513.2319,514.3495,a,1,0.4637,1,514.3495,514.8496,,,,,,97,MAS,WORD,DIS,150,mono,,la,,0.4637,,514.85,514.8504,0.055555556,-0.013888889,0,0,0,,0,203,203,96,1,fopo,,,,,
,,,,,,60b78fab6f56675dc6eeb9f1,676192165fb32c2e1fb7aee6,67d1ab6beb292a2b3e39df6b,2025-03-12_16h45.56.595,Tarea de decisión léxica,2024.2.5,Win32,144.9275362,,,,,,,,,,,,,,,,,,,,,,,514.8507,516.1276,a,1,0.6216,1,516.1276,516.6275,,,,,,363,FEM,WORD,AGR,150,deuda,,la,,0.6216,,516.6275,516.6276,0.055555556,-0.013888889,0,0,0,,0,204,204,362,1,veida,,,,,
,,,,,,60b78fab6f56675dc6eeb9f1,676192165fb32c2e1fb7aee6,67d1ab6beb292a2b3e39df6b,2025-03-12_16h45.56.595,Tarea de decisión léxica,2024.2.5,Win32,144.9275362,,,,,,,,,,,,,,,,,,,,,,,516.6281,517.8083,a,1,0.5248,1,517.8083,518.3084,,,,,,301,FEM,WORD,DIS,150,banda,,el,,0.5248,,518.3084,518.3085,0.055555556,-0.013888889,0,0,0,,0,205,205,300,1,ranga,,,,,
,,,,,,60b78fab6f56675dc6eeb9f1,676192165fb32c2e1fb7aee6,67d1ab6beb292a2b3e39df6b,2025-03-12_16h45.56.595,Tarea de decisión léxica,2024.2.5,Win32,144.9275362,,,,,,,,,,,,,,,,,,,,,,,518.3089,519.5168,a,1,0.5507,1,519.5168,520.0169,,,,,,143,MAS,WORD,AGR,150,pavo,,el,,0.5507,,520.0169,520.0169,0.055555556,-0.013888889,0,0,0,,0,206,206,142,1,pezo,,,,,
,,,,,,60b78fab6f56675dc6eeb9f1,676192165fb32c2e1fb7aee6,67d1ab6beb292a2b3e39df6b,2025-03-12_16h45.56.595,Tarea de decisión léxica,2024.2.5,Win32,144.9275362,,,,,,,,,,,,,,,,,,,,,,,520.0174,521.0804,a,1,0.4091,1,521.0804,521.5796,,,,,,193,FEM,WORD,DIS,150,loca,,el,,0.4091,,521.5796,521.5797,0.055555556,-0.013888889,0,0,0,,0,207,207,192,1,foda,,,,,
,,,,,,60b78fab6f56675dc6eeb9f1,676192165fb32c2e1fb7aee6,67d1ab6beb292a2b3e39df6b,2025-03-12_16h45.56.595,Tarea de decisión léxica,2024.2.5,Win32,144.9275362,,,,,,,,,,,,,,,,,,,,,,,521.5801,522.6631,l,1,0.4254,1,522.6632,523.1638,,,,,,440,FEM,NOWORD,AGR,150,prema,,la,,0.4254,,523.1643,523.1647,0.055555556,-0.013888889,0,0,0,,0,208,208,439,1,presa,,,,,
,,,,,,60b78fab6f56675dc6eeb9f1,676192165fb32c2e1fb7aee6,67d1ab6beb292a2b3e39df6b,2025-03-12_16h45.56.595,Tarea de decisión léxica,2024.2.5,Win32,144.9275362,,,,,,,,,,,,,,,,,,,,,,,523.165,524.2257,l,0,0.402,0,524.2261,524.7258,,,,,,209,MAS,WORD,DIS,150,velo,,la,,0.402,,524.7259,524.7259,0.055555556,-0.013888889,0,0,0,,0,209,209,208,1,dero,,,,,
,,,,,,60b78fab6f56675dc6eeb9f1,676192165fb32c2e1fb7aee6,67d1ab6beb292a2b3e39df6b,2025-03-12_16h45.56.595,Tarea de decisión léxica,2024.2.5,Win32,144.9275362,,,,,,,,,,,,,,,,,,,,,,,524.7263,525.844,l,1,0.4586,1,525.8444,526.3441,,,,,,382,MAS,NOWORD,DIS,150,nusor,,la,,0.4586,,526.3441,526.3442,0.055555556,-0.013888889,0,0,0,,0,210,210,381,1,humor,,,,,
,,,,,,60b78fab6f56675dc6eeb9f1,676192165fb32c2e1fb7aee6,67d1ab6beb292a2b3e39df6b,2025-03-12_16h45.56.595,Tarea de decisión léxica,2024.2.5,Win32,144.9275362,,,,,,,,,,,,,,,,,,,,,,,526.3446,527.4415,l,1,0.4342,1,527.4415,527.9416,,,,,,262,MAS,NOWORD,DIS,150,titio,,la,,0.4342,,527.9416,527.9417,0.055555556,-0.013888889,0,0,0,,0,211,211,261,1,sitio,,,,,
,,,,,,60b78fab6f56675dc6eeb9f1,676192165fb32c2e1fb7aee6,67d1ab6beb292a2b3e39df6b,2025-03-12_16h45.56.595,Tarea de decisión léxica,2024.2.5,Win32,144.9275362,,,,,,,,,,,,,,,,,,,,,,,527.9422,529.0251,l,1,0.4244,1,529.0251,529.5252,,,,,,380,MAS,NOWORD,AGR,150,tunso,,el,,0.4244,,529.5252,529.5252,0.055555556,-0.013888889,0,0,0,,0,212,212,379,1,turno,,,,,
,,,,,,60b78fab6f56675dc6eeb9f1,676192165fb32c2e1fb7aee6,67d1ab6beb292a2b3e39df6b,2025-03-12_16h45.56.595,Tarea de decisión léxica,2024.2.5,Win32,144.9275362,,,,,,,,,,,,,,,,,,,,,,,529.5257,530.8309,a,1,0.6459,1,530.831,531.3309,,,,,,21,MAS,WORD,DIS,150,plan,,la,,0.6459,,531.3314,531.3317,0.055555556,-0.013888889,0,0,0,,0,213,213,20,1,blan,,,,,
,,,,,,60b78fab6f56675dc6eeb9f1,676192165fb32c2e1fb7aee6,67d1ab6beb292a2b3e39df6b,2025-03-12_16h45.56.595,Tarea de decisión léxica,2024.2.5,Win32,144.9275362,,,,,,,,,,,,,,,,,,,,,,,531.332,532.4213,a,1,0.4303,1,532.4214,532.9214,,,,,,49,FEM,WORD,DIS,150,edad,,el,,0.4303,,532.9214,532.9215,0.055555556,-0.013888889,0,0,0,,0,214,214,48,1,ecat,,,,,
,,,,,,60b78fab6f56675dc6eeb9f1,676192165fb32c2e1fb7aee6,67d1ab6beb292a2b3e39df6b,2025-03-12_16h45.56.595,Tarea de decisión léxica,2024.2.5,Win32,144.9275362,,,,,,,,,,,,,,,,,,,,,,,532.922,534.0397,a,1,0.4639,1,534.0398,534.5399,,,,,,229,MAS,WORD,DIS,150,amor,,la,,0.4639,,534.5399,534.5399,0.055555556,-0.013888889,0,0,0,,0,215,215,228,1,ador,,,,,
,,,,,,60b78fab6f56675dc6eeb9f1,676192165fb32c2e1fb7aee6,67d1ab6beb292a2b3e39df6b,2025-03-12_16h45.56.595,Tarea de decisión léxica,2024.2.5,Win32,144.9275362,,,,,,,,,,,,,,,,,,,,,,,534.5404,535.6727,l,1,0.4788,1,535.6727,536.1724,,,,,,214,FEM,NOWORD,DIS,150,bana,,el,,0.4788,,536.1724,536.1724,0.055555556,-0.013888889,0,0,0,,0,216,216,213,1,rama,,,,,
,,,,,,60b78fab6f56675dc6eeb9f1,676192165fb32c2e1fb7aee6,67d1ab6beb292a2b3e39df6b,2025-03-12_16h45.56.595,Tarea de decisión léxica,2024.2.5,Win32,144.9275362,,,,,,,,,,,,,,,,,,,,,,,536.1729,537.2414,l,1,0.414,1,537.2414,537.742,,,,,,422,MAS,NOWORD,DIS,150,griso,,la,,0.414,,537.7421,537.7421,0.055555556,-0.013888889,0,0,0,,0,217,217,421,1,primo,,,,,
,,,,,,60b78fab6f56675dc6eeb9f1,676192165fb32c2e1fb7aee6,67d1ab6beb292a2b3e39df6b,2025-03-12_16h45.56.595,Tarea de decisión léxica,2024.2.5,Win32,144.9275362,,,,,,,,,,,,,,,,,,,,,,,537.7425,538.9152,l,1,0.5191,1,538.9152,539.4153,,,,,,434,MAS,NOWORD,DIS,150,durco,,la,,0.5191,,539.4158,539.4162,0.055555556,-0.013888889,0,0,0,,0,218,218,433,1,disco,,,,,
,,,,,,60b78fab6f56675dc6eeb9f1,676192165fb32c2e1fb7aee6,67d1ab6beb292a2b3e39df6b,2025-03-12_16h45.56.595,Tarea de decisión léxica,2024.2.5,Win32,144.9275362,,,,,,,,,,,,,,,,,,,,,,,539.4165,540.464,l,1,0.3944,1,540.4641,540.9642,,,,,,384,FEM,NOWORD,AGR,150,brame,,la,,0.3944,,540.9642,540.9642,0.055555556,-0.013888889,0,0,0,,0,219,219,383,1,frase,,,,,
,,,,,,60b78fab6f56675dc6eeb9f1,676192165fb32c2e1fb7aee6,67d1ab6beb292a2b3e39df6b,2025-03-12_16h45.56.595,Tarea de decisión léxica,2024.2.5,Win32,144.9275362,,,,,,,,,,,,,,,,,,,,,,,540.9647,542.069,a,1,0.4502,1,542.069,542.5684,,,,,,471,FEM,WORD,AGR,150,grasa,,la,,0.4502,,542.5684,542.5684,0.055555556,-0.013888889,0,0,0,,0,220,220,470,1,prana,,,,,
,,,,,,60b78fab6f56675dc6eeb9f1,676192165fb32c2e1fb7aee6,67d1ab6beb292a2b3e39df6b,2025-03-12_16h45.56.595,Tarea de decisión léxica,2024.2.5,Win32,144.9275362,,,,,,,,,,,,,,,,,,,,,,,542.5689,543.6034,a,1,0.3755,1,543.6034,544.1033,,,,,,395,FEM,WORD,AGR,150,caída,,la,,0.3755,,544.1034,544.1035,0.055555556,-0.013888889,0,0,0,,0,221,221,394,1,paeda,,,,,
,,,,,,60b78fab6f56675dc6eeb9f1,676192165fb32c2e1fb7aee6,67d1ab6beb292a2b3e39df6b,2025-03-12_16h45.56.595,Tarea de decisión léxica,2024.2.5,Win32,144.9275362,,,,,,,,,,,,,,,,,,,,,,,544.1039,545.0697,l,1,0.3127,1,545.0698,545.5689,,,,,,182,FEM,NOWORD,DIS,150,teda,,el,,0.3127,,545.5689,545.5689,0.055555556,-0.013888889,0,0,0,,0,222,222,181,1,seda,,,,,
,,,,,,60b78fab6f56675dc6eeb9f1,676192165fb32c2e1fb7aee6,67d1ab6beb292a2b3e39df6b,2025-03-12_16h45.56.595,Tarea de decisión léxica,2024.2.5,Win32,144.9275362,,,,,,,,,,,,,,,,,,,,,,,545.5694,546.6316,l,0,0.4023,0,546.632,547.1316,,,,,,375,FEM,WORD,AGR,150,salsa,,la,,0.4023,,547.1321,547.1324,0.055555556,-0.013888889,0,0,0,,0,223,223,374,1,sasna,,,,,
,,,,,,60b78fab6f56675dc6eeb9f1,676192165fb32c2e1fb7aee6,67d1ab6beb292a2b3e39df6b,2025-03-12_16h45.56.595,Tarea de decisión léxica,2024.2.5,Win32,144.9275362,,,,,,,,,,,,,,,,,,,,,,,547.1327,548.3054,a,1,0.5201,1,548.3058,548.8054,,,,,,335,FEM,WORD,AGR,150,costa,,la,,0.5201,,548.8054,548.8055,0.055555556,-0.013888889,0,0,0,,0,224,224,334,1,pesta,,,,,
,,,,,,60b78fab6f56675dc6eeb9f1,676192165fb32c2e1fb7aee6,67d1ab6beb292a2b3e39df6b,2025-03-12_16h45.56.595,Tarea de decisión léxica,2024.2.5,Win32,144.9275362,,,,,,,,,,,,,,,,,,,,,,,548.806,549.9523,l,1,0.4925,1,549.9523,550.4516,,,,,,282,MAS,NOWORD,DIS,150,cauro,,la,,0.4925,,550.4516,550.4516,0.055555556,-0.013888889,0,0,0,,0,225,225,281,1,cielo,,,,,
,,,,,,60b78fab6f56675dc6eeb9f1,676192165fb32c2e1fb7aee6,67d1ab6beb292a2b3e39df6b,2025-03-12_16h45.56.595,Tarea de decisión léxica,2024.2.5,Win32,144.9275362,,,,,,,,,,,,,,,,,,,,,,,550.4522,551.5974,a,1,0.4904,1,551.5975,552.0975,,,,,,467,MAS,WORD,AGR,150,piano,,el,,0.4904,,552.0975,552.0976,0.055555556,-0.013888889,0,0,0,,0,226,226,466,1,peiso,,,,,
,,,,,,60b78fab6f56675dc6eeb9f1,676192165fb32c2e1fb7aee6,67d1ab6beb292a2b3e39df6b,2025-03-12_16h45.56.595,Tarea de decisión léxica,2024.2.5,Win32,144.9275362,,,,,,,,,,,,,,,,,,,,,,,552.0981,553.2098,a,1,0.4585,1,553.2098,553.7088,,,,,,305,MAS,WORD,DIS,150,avión,,la,,0.4585,,553.7093,553.7096,0.055555556,-0.013888889,0,0,0,,0,227,227,304,1,adiol,,,,,
,,,,,,60b78fab6f56675dc6eeb9f1,676192165fb32c2e1fb7aee6,67d1ab6beb292a2b3e39df6b,2025-03-12_16h45.56.595,Tarea de decisión léxica,2024.2.5,Win32,144.9275362,,,,,,,,,,,,,,,,,,,,,,,553.71,554.7725,l,1,0.4092,1,554.7725,555.2717,,,,,,312,MAS,NOWORD,AGR,150,nosor,,el,,0.4092,,555.2717,555.2717,0.055555556,-0.013888889,0,0,0,,0,228,228,311,1,honor,,,,,
,,,,,,60b78fab6f56675dc6eeb9f1,676192165fb32c2e1fb7aee6,67d1ab6beb292a2b3e39df6b,2025-03-12_16h45.56.595,Tarea de decisión léxica,2024.2.5,Win32,144.9275362,,,,,,,,,,,,,,,,,,,,,,,555.2722,556.473,l,1,0.5464,1,556.4731,556.9738,,,,,,4,FEM,NOWORD,AGR,150,dica,,la,,0.5464,,556.9738,556.9739,0.055555556,-0.013888889,0,0,0,,0,229,229,3,1,vida,,,,,
,,,,,,60b78fab6f56675dc6eeb9f1,676192165fb32c2e1fb7aee6,67d1ab6beb292a2b3e39df6b,2025-03-12_16h45.56.595,Tarea de decisión léxica,2024.2.5,Win32,144.9275362,,,,,,,,,,,,,,,,,,,,,,,556.9744,558.1052,l,1,0.4762,1,558.1052,558.6052,,,,,,346,FEM,NOWORD,DIS,150,anera,,el,,0.4762,,558.6053,558.6054,0.055555556,-0.013888889,0,0,0,,0,230,230,345,1,arena,,,,,
,,,,,,60b78fab6f56675dc6eeb9f1,676192165fb32c2e1fb7aee6,67d1ab6beb292a2b3e39df6b,2025-03-12_16h45.56.595,Tarea de decisión léxica,2024.2.5,Win32,144.9275362,,,,,,,,,,,,,,,,,,,,,,,558.6058,559.6888,l,1,0.4276,1,559.6889,560.1889,,,,,,334,FEM,NOWORD,DIS,150,dalea,,el,,0.4276,,560.1889,560.1889,0.055555556,-0.013888889,0,0,0,,0,231,231,333,1,tarea,,,,,
,,,,,,60b78fab6f56675dc6eeb9f1,676192165fb32c2e1fb7aee6,67d1ab6beb292a2b3e39df6b,2025-03-12_16h45.56.595,Tarea de decisión léxica,2024.2.5,Win32,144.9275362,,,,,,,,,,,,,,,,,,,,,,,560.1894,561.2314,l,1,0.3881,1,561.2314,561.7308,,,,,,212,FEM,NOWORD,AGR,150,joad,,la,,0.3881,,561.7311,561.7314,0.055555556,-0.013888889,0,0,0,,0,232,232,211,1,joya,,,,,
,,,,,,60b78fab6f56675dc6eeb9f1,676192165fb32c2e1fb7aee6,67d1ab6beb292a2b3e39df6b,2025-03-12_16h45.56.595,Tarea de decisión léxica,2024.2.5,Win32,144.9275362,,,,,,,,,,,,,,,,,,,,,,,561.7318,563.1968,a,1,0.8118,1,563.1968,563.6962,,,,,,265,FEM,WORD,DIS,150,mitad,,el,,0.8118,,563.6963,563.6963,0.055555556,-0.013888889,0,0,0,,0,233,233,264,1,pitat,,,,,
,,,,,,60b78fab6f56675dc6eeb9f1,676192165fb32c2e1fb7aee6,67d1ab6beb292a2b3e39df6b,2025-03-12_16h45.56.595,Tarea de decisión léxica,2024.2.5,Win32,144.9275362,,,,,,,,,,,,,,,,,,,,,,,563.6967,564.9047,a,1,0.5506,1,564.9047,565.4054,,,,,,13,FEM,WORD,DIS,150,hora,,el,,0.5506,,565.4054,565.4055,0.055555556,-0.013888889,0,0,0,,0,234,234,12,1,nola,,,,,
,,,,,,60b78fab6f56675dc6eeb9f1,676192165fb32c2e1fb7aee6,67d1ab6beb292a2b3e39df6b,2025-03-12_16h45.56.595,Tarea de decisión léxica,2024.2.5,Win32,144.9275362,,,,,,,,,,,,,,,,,,,,,,,565.4059,566.4604,a,1,0.4001,1,566.4604,566.9605,,,,,,53,FEM,WORD,DIS,150,boda,,el,,0.4001,,566.9605,566.9606,0.055555556,-0.013888889,0,0,0,,0,235,235,52,1,rora,,,,,
,,,,,,60b78fab6f56675dc6eeb9f1,676192165fb32c2e1fb7aee6,67d1ab6beb292a2b3e39df6b,2025-03-12_16h45.56.595,Tarea de decisión léxica,2024.2.5,Win32,144.9275362,,,,,,,,,,,,,,,,,,,,,,,566.961,568.0302,a,1,0.4115,1,568.0302,568.5309,,,,,,215,FEM,WORD,AGR,150,raíz,,la,,0.4115,,568.5309,568.531,0.055555556,-0.013888889,0,0,0,,0,236,236,214,1,raua,,,,,
,,,,,,60b78fab6f56675dc6eeb9f1,676192165fb32c2e1fb7aee6,67d1ab6beb292a2b3e39df6b,2025-03-12_16h45.56.595,Tarea de decisión léxica,2024.2.5,Win32,144.9275362,,,,,,,,,,,,,,,,,,,,,,,568.5315,569.6553,a,1,0.4678,1,569.6553,570.1554,,,,,,61,FEM,WORD,DIS,150,obra,,el,,0.4678,,570.1558,570.1561,0.055555556,-0.013888889,0,0,0,,0,237,237,60,1,efla,,,,,
,,,,,,60b78fab6f56675dc6eeb9f1,676192165fb32c2e1fb7aee6,67d1ab6beb292a2b3e39df6b,2025-03-12_16h45.56.595,Tarea de decisión léxica,2024.2.5,Win32,144.9275362,,,,,,,,,,,,,,,,,,,,,,,570.1564,571.344,l,1,0.534,1,571.344,571.8431,,,,,,36,MAS,NOWORD,AGR,150,meno,,el,,0.534,,571.8431,571.8432,0.055555556,-0.013888889,0,0,0,,0,238,238,35,1,pelo,,,,,
,,,,,,60b78fab6f56675dc6eeb9f1,676192165fb32c2e1fb7aee6,67d1ab6beb292a2b3e39df6b,2025-03-12_16h45.56.595,Tarea de decisión léxica,2024.2.5,Win32,144.9275362,,,,,,,,,,,,,,,,,,,,,,,571.8436,572.9266,l,1,0.4246,1,572.9266,573.4267,,,,,,290,FEM,NOWORD,DIS,150,bumpa,,el,,0.4246,,573.4267,573.4267,0.055555556,-0.013888889,0,0,0,,0,239,239,289,1,bomba,,,,,
,,,,,,60b78fab6f56675dc6eeb9f1,676192165fb32c2e1fb7aee6,67d1ab6beb292a2b3e39df6b,2025-03-12_16h45.56.595,Tarea de decisión léxica,2024.2.5,Win32,144.9275362,,,,,,,,,,,,,,,,,,,,,,,573.4272,574.4406,a,1,0.3586,1,574.4407,574.9407,,,,,,171,MAS,WORD,AGR,150,hilo,,el,,0.3586,,574.9407,574.9408,0.055555556,-0.013888889,0,0,0,,0,240,240,170,1,niro,,,,,
,,,,,,60b78fab6f56675dc6eeb9f1,676192165fb32c2e1fb7aee6,67d1ab6beb292a2b3e39df6b,2025-03-12_16h45.56.595,Tarea de decisión léxica,2024.2.5,Win32,144.9275362,,,,,,,,,,,,,,,,,,,,,,,574.9413,576.0529,a,1,0.4578,1,576.0529,576.5521,,,,,,381,MAS,WORD,DIS,150,humor,,la,,0.4578,,576.5521,576.5522,0.055555556,-0.013888889,0,0,0,,0,241,241,380,1,nusor,,,,,
,,,,,,60b78fab6f56675dc6eeb9f1,676192165fb32c2e1fb7aee6,67d1ab6beb292a2b3e39df6b,2025-03-12_16h45.56.595,Tarea de decisión léxica,2024.2.5,Win32,144.9275362,,,,,,,,,,,,,,,,,,,,,,,576.5527,577.7744,l,1,0.5664,1,577.7744,578.2746,,,,,,42,FEM,NOWORD,DIS,150,haje,,el,,0.5664,,578.2751,578.2753,0.055555556,-0.013888889,0,0,0,,0,242,242,41,1,nave,,,,,
,,,,,,60b78fab6f56675dc6eeb9f1,676192165fb32c2e1fb7aee6,67d1ab6beb292a2b3e39df6b,2025-03-12_16h45.56.595,Tarea de decisión léxica,2024.2.5,Win32,144.9275362,,,,,,,,,,,,,,,,,,,,,,,578.2757,579.4899,a,1,0.5557,1,579.49,579.9907,,,,,,463,FEM,WORD,AGR,150,cabra,,la,,0.5557,,579.9907,579.9907,0.055555556,-0.013888889,0,0,0,,0,243,243,462,1,matla,,,,,
,,,,,,60b78fab6f56675dc6eeb9f1,676192165fb32c2e1fb7aee6,67d1ab6beb292a2b3e39df6b,2025-03-12_16h45.56.595,Tarea de decisión léxica,2024.2.5,Win32,144.9275362,,,,,,,,,,,,,,,,,,,,,,,579.9911,581.0249,a,1,0.3687,1,581.0249,581.5249,,,,,,23,FEM,WORD,AGR,150,hija,,la,,0.3687,,581.5249,581.525,0.055555556,-0.013888889,0,0,0,,0,244,244,22,1,giva,,,,,
,,,,,,60b78fab6f56675dc6eeb9f1,676192165fb32c2e1fb7aee6,67d1ab6beb292a2b3e39df6b,2025-03-12_16h45.56.595,Tarea de decisión léxica,2024.2.5,Win32,144.9275362,,,,,,,,,,,,,,,,,,,,,,,581.5254,582.5528,a,1,0.369,1,582.5529,583.0537,,,,,,183,FEM,WORD,AGR,150,raya,,la,,0.369,,583.0537,583.0537,0.055555556,-0.013888889,0,0,0,,0,245,245,182,1,raad,,,,,
,,,,,,60b78fab6f56675dc6eeb9f1,676192165fb32c2e1fb7aee6,67d1ab6beb292a2b3e39df6b,2025-03-12_16h45.56.595,Tarea de decisión léxica,2024.2.5,Win32,144.9275362,,,,,,,,,,,,,,,,,,,,,,,583.0542,584.1364,l,1,0.4245,1,584.1365,584.6365,,,,,,246,FEM,NOWORD,DIS,150,pafle,,el,,0.4245,,584.6365,584.6365,0.055555556,-0.013888889,0,0,0,,0,246,246,245,1,madre,,,,,
,,,,,,60b78fab6f56675dc6eeb9f1,676192165fb32c2e1fb7aee6,67d1ab6beb292a2b3e39df6b,2025-03-12_16h45.56.595,Tarea de decisión léxica,2024.2.5,Win32,144.9275362,,,,,,,,,,,,,,,,,,,,,,,584.637,585.7418,a,0,0.4512,0,585.7422,586.2408,,,,,,286,MAS,NOWORD,DIS,150,echor,,la,,0.4512,,586.2413,586.2418,0.055555556,-0.013888889,0,0,0,,0,247,247,285,1,error,,,,,
,,,,,,60b78fab6f56675dc6eeb9f1,676192165fb32c2e1fb7aee6,67d1ab6beb292a2b3e39df6b,2025-03-12_16h45.56.595,Tarea de decisión léxica,2024.2.5,Win32,144.9275362,,,,,,,,,,,,,,,,,,,,,,,586.2421,587.4216,l,1,0.5258,1,587.4221,587.9216,,,,,,306,MAS,NOWORD,DIS,150,adiol,,la,,0.5258,,587.9217,587.9217,0.055555556,-0.013888889,0,0,0,,0,248,248,305,1,avión,,,,,
,,,,,,60b78fab6f56675dc6eeb9f1,676192165fb32c2e1fb7aee6,67d1ab6beb292a2b3e39df6b,2025-03-12_16h45.56.595,Tarea de decisión léxica,2024.2.5,Win32,144.9275362,,,,,,,,,,,,,,,,,,,,,,,587.9222,589.0537,l,1,0.4768,1,589.0537,589.5538,,,,,,378,MAS,NOWORD,DIS,150,gaulo,,la,,0.4768,,589.5538,589.5538,0.055555556,-0.013888889,0,0,0,,0,249,249,377,1,hielo,,,,,
,,,,,,60b78fab6f56675dc6eeb9f1,676192165fb32c2e1fb7aee6,67d1ab6beb292a2b3e39df6b,2025-03-12_16h45.56.595,Tarea de decisión léxica,2024.2.5,Win32,144.9275362,,,,,,,,,,,,,,,,,,,,,,,589.5543,590.7701,l,1,0.5619,1,590.7701,591.2693,,,,,,34,FEM,NOWORD,DIS,150,loda,,el,,0.5619,,591.2693,591.2694,0.055555556,-0.013888889,0,0,0,,0,250,250,33,1,boca,,,,,
,,,,,,60b78fab6f56675dc6eeb9f1,676192165fb32c2e1fb7aee6,67d1ab6beb292a2b3e39df6b,2025-03-12_16h45.56.595,Tarea de decisión léxica,2024.2.5,Win32,144.9275362,,,,,,,,,,,,,,,,,,,,,,,591.2698,592.3458,l,1,0.4214,1,592.3458,592.8459,,,,,,196,FEM,NOWORD,AGR,150,sira,,la,,0.4214,,592.8465,592.8468,0.055555556,-0.013888889,0,0,0,,0,251,251,195,1,tela,,,,,
,,,,,,60b78fab6f56675dc6eeb9f1,676192165fb32c2e1fb7aee6,67d1ab6beb292a2b3e39df6b,2025-03-12_16h45.56.595,Tarea de decisión léxica,2024.2.5,Win32,144.9275362,,,,,,,,,,,,,,,,,,,,,,,592.8471,593.9155,a,1,0.4047,1,593.9155,594.4163,,,,,,407,FEM,WORD,AGR,150,cueva,,la,,0.4047,,594.4163,594.4164,0.055555556,-0.013888889,0,0,0,,0,252,252,406,1,cauba,,,,,
,,,,,,60b78fab6f56675dc6eeb9f1,676192165fb32c2e1fb7aee6,67d1ab6beb292a2b3e39df6b,2025-03-12_16h45.56.595,Tarea de decisión léxica,2024.2.5,Win32,144.9275362,,,,,,,,,,,,,,,,,,,,,,,594.4168,595.3045,l,1,0.2281,1,595.3045,595.8046,,,,,,466,FEM,NOWORD,DIS,150,asuba,,el,,0.2281,,595.8046,595.8046,0.055555556,-0.013888889,0,0,0,,0,253,253,465,1,aguja,,,,,
,,,,,,60b78fab6f56675dc6eeb9f1,676192165fb32c2e1fb7aee6,67d1ab6beb292a2b3e39df6b,2025-03-12_16h45.56.595,Tarea de decisión léxica,2024.2.5,Win32,144.9275362,,,,,,,,,,,,,,,,,,,,,,,595.805,597.4229,l,1,0.9615,1,597.4229,597.9236,,,,,,30,MAS,NOWORD,DIS,150,pono,,la,,0.9615,,597.9236,597.9237,0.055555556,-0.013888889,0,0,0,,0,254,254,29,1,modo,,,,,
,,,,,,60b78fab6f56675dc6eeb9f1,676192165fb32c2e1fb7aee6,67d1ab6beb292a2b3e39df6b,2025-03-12_16h45.56.595,Tarea de decisión léxica,2024.2.5,Win32,144.9275362,,,,,,,,,,,,,,,,,,,,,,,597.9242,599.055,a,1,0.4763,1,599.0551,599.5558,,,,,,141,FEM,WORD,DIS,150,cruz,,el,,0.4763,,599.5558,599.5558,0.055555556,-0.013888889,0,0,0,,0,255,255,140,1,sina,,,,,
,,,,,,60b78fab6f56675dc6eeb9f1,676192165fb32c2e1fb7aee6,67d1ab6beb292a2b3e39df6b,2025-03-12_16h45.56.595,Tarea de decisión léxica,2024.2.5,Win32,144.9275362,,,,,,,,,,,,,,,,,,,,,,,599.5563,600.6596,a,1,0.4461,1,600.6597,601.1597,,,,,,247,FEM,WORD,AGR,150,chica,,la,,0.4461,,601.1601,601.1604,0.055555556,-0.013888889,0,0,0,,0,256,256,246,1,trida,,,,,
,,,,,,60b78fab6f56675dc6eeb9f1,676192165fb32c2e1fb7aee6,67d1ab6beb292a2b3e39df6b,2025-03-12_16h45.56.595,Tarea de decisión léxica,2024.2.5,Win32,144.9275362,,,,,,,,,,,,,,,,,,,,,,,601.1607,602.2916,a,1,0.4679,1,602.2917,602.7922,,,,,,227,MAS,WORD,AGR,150,faro,,el,,0.4679,,602.7922,602.7922,0.055555556,-0.013888889,0,0,0,,0,257,257,226,1,laro,,,,,
,,,,,,60b78fab6f56675dc6eeb9f1,676192165fb32c2e1fb7aee6,67d1ab6beb292a2b3e39df6b,2025-03-12_16h45.56.595,Tarea de decisión léxica,2024.2.5,Win32,144.9275362,,,,,,,,,,,,,,,,,,,,,,,602.7927,603.855,a,1,0.4089,1,603.8551,604.3543,,,,,,303,MAS,WORD,AGR,150,barco,,el,,0.4089,,604.3543,604.3543,0.055555556,-0.013888889,0,0,0,,0,258,258,302,1,lanco,,,,,
,,,,,,60b78fab6f56675dc6eeb9f1,676192165fb32c2e1fb7aee6,67d1ab6beb292a2b3e39df6b,2025-03-12_16h45.56.595,Tarea de decisión léxica,2024.2.5,Win32,144.9275362,,,,,,,,,,,,,,,,,,,,,,,604.3548,605.4386,l,1,0.4239,1,605.4387,605.9386,,,,,,126,MAS,NOWORD,DIS,150,vudo,,la,,0.4239,,605.9386,605.9386,0.055555556,-0.013888889,0,0,0,,0,259,259,125,1,lujo,,,,,
,,,,,,60b78fab6f56675dc6eeb9f1,676192165fb32c2e1fb7aee6,67d1ab6beb292a2b3e39df6b,2025-03-12_16h45.56.595,Tarea de decisión léxica,2024.2.5,Win32,144.9275362,,,,,,,,,,,,,,,,,,,,,,,605.9392,607.0014,a,1,0.4092,1,607.0014,607.5011,,,,,,99,MAS,WORD,AGR,150,lobo,,el,,0.4092,,607.5011,607.5011,0.055555556,-0.013888889,0,0,0,,0,260,260,98,1,soro,,,,,
,,,,,,60b78fab6f56675dc6eeb9f1,676192165fb32c2e1fb7aee6,67d1ab6beb292a2b3e39df6b,2025-03-12_16h45.56.595,Tarea de decisión léxica,2024.2.5,Win32,144.9275362,,,,,,,,,,,,,,,,,,,,,,,607.5016,608.6195,l,1,0.4653,1,608.6196,609.1195,,,,,,326,FEM,NOWORD,DIS,150,mabia,,el,,0.4653,,609.1199,609.1202,0.055555556,-0.013888889,0,0,0,,0,261,261,325,1,magia,,,,,
,,,,,,60b78fab6f56675dc6eeb9f1,676192165fb32c2e1fb7aee6,67d1ab6beb292a2b3e39df6b,2025-03-12_16h45.56.595,Tarea de decisión léxica,2024.2.5,Win32,144.9275362,,,,,,,,,,,,,,,,,,,,,,,609.1206,610.2926,a,1,0.5182,1,610.2926,610.7932,,,,,,447,MAS,WORD,AGR,150,bolso,,el,,0.5182,,610.7932,610.7933,0.055555556,-0.013888889,0,0,0,,0,262,262,446,1,buaso,,,,,
,,,,,,60b78fab6f56675dc6eeb9f1,676192165fb32c2e1fb7aee6,67d1ab6beb292a2b3e39df6b,2025-03-12_16h45.56.595,Tarea de decisión léxica,2024.2.5,Win32,144.9275362,,,,,,,,,,,,,,,,,,,,,,,610.7938,611.9812,l,1,0.5343,1,611.9813,612.4804,,,,,,280,FEM,NOWORD,AGR,150,grina,,la,,0.5343,,612.4805,612.4805,0.055555556,-0.013888889,0,0,0,,0,263,263,279,1,prisa,,,,,
