counterbalancing_condition,consent_prescreening.block_1/declare_consent,consent_prescreening.block_1/age_years,consent_prescreening.block_1/gender,consent_prescreening.block_1/language_disorder,consent_prescreening.block_1/first_language,PROLIFIC_PID,STUDY_ID,SESSION_ID,date,expName,psychopyVersion,OS,frameRate,check_prescreening_answers.started,check_prescreening_answers.stopped,Instructions.started,Instructions.stopped,instr_done_keyboard.keys,instr_done_keyboard.rt,instr_done_keyboard.duration,instr_done_touch.x,instr_done_touch.y,instr_done_touch.leftButton,instr_done_touch.midButton,instr_done_touch.rightButton,instruction_pages.thisRepN,instruction_pages.thisTrialN,instruction_pages.thisN,instruction_pages.thisIndex,instruction_pages.ran,pageN,phase,instruct_text,has_image,instruct_image,presentTrial.started,presentTrial.stopped,response.keys,response.corr,rt,corr,feedback.started,feedback.stopped,practice_trials.thisRepN,practice_trials.thisTrialN,practice_trials.thisN,practice_trials.thisIndex,practice_trials.ran,TrialID,Gender,StimulusType,Condition,PrimeDuration,Prime,len,Flanker,corrAns,response.rt,response.duration,Break.started,Break.stopped,break_done_touch.x,break_done_touch.y,break_done_touch.leftButton,break_done_touch.midButton,break_done_touch.rightButton,break_done_keyboard.keys,experiment_trials.thisRepN,experiment_trials.thisTrialN,experiment_trials.thisN,experiment_trials.thisIndex,experiment_trials.ran,PairedWith,break_done_touch.clicked_name,End.started,End.stopped
3,"[""over_18"",""comfortable"",""read_info"",""consent_given""]",28,M,"[""none""]","[""spanish""]",60daaa7f5ea36d3eff3c5709,676192165fb32c2e1fb7aee6,67d1558d740b22c52b1768e5,2025-03-12_03h40.33.427,Tarea de decisión léxica,2024.2.5,Win32,58.47953216,,,,,,,,,,,,,,,,,,,,,,,,,,,,,,,,,,,,,,,,,,,,,,,,,,,,,,,,,,,,,,,
,,,,,,60daaa7f5ea36d3eff3c5709,676192165fb32c2e1fb7aee6,67d1558d740b22c52b1768e5,2025-03-12_03h40.33.427,Tarea de decisión léxica,2024.2.5,Win32,58.47953216,26.1446,26.1447,,,,,,,,,,,,,,,,,,,,,,,,,,,,,,,,,,,,,,,,,,,,,,,,,,,,,,,,,,,,,
,,,,,,60daaa7f5ea36d3eff3c5709,676192165fb32c2e1fb7aee6,67d1558d740b22c52b1768e5,2025-03-12_03h40.33.427,Tarea de decisión léxica,2024.2.5,Win32,58.47953216,,,26.1565,42.7371,space,16.5571,,-0.09047619,-0.365714286,0,0,0,0,0,0,0,1,1,instructions,"INSTRUCCIONES
Va a realizar una prueba de decisión léxica. Desde el comienzo de la prueba mire siempre al centro de la pantalla. Se presentará una serie de cadenas de letras, una a la vez, en la pantalla. Su tarea consiste en determinar si cada cadena de letras constituye una palabra real en español o una no-palabra (una secuencia de letras que no constituye una palabra real). 

Pulse la tecla ESPACIO para continuar.",0,keyboardresponseWN.png,,,,,,,,,,,,,,,,,,,,,,,,,,,,,,,,,,,,,,,,,
,,,,,,60daaa7f5ea36d3eff3c5709,676192165fb32c2e1fb7aee6,67d1558d740b22c52b1768e5,2025-03-12_03h40.33.427,Tarea de decisión léxica,2024.2.5,Win32,58.47953216,,,42.7406,67.2394,space,24.476,,-0.19047619,-0.246666667,0,0,0,0,1,1,1,1,2,instructions,"El procedimiento es el siguiente: Aparecerán dos barras verticales posicionadas en el centro de la pantalla, separadas por un pequeño espacio.Por favor, enfoque su atención en el espacio entre las barras. Esto preparará sus ojos para la siguiente cadena de letras, que aparecerá entre las dos barras durante un instante.

Pulse la tecla ESPACIO para continuar.",0,keyboardresponseNW.png,,,,,,,,,,,,,,,,,,,,,,,,,,,,,,,,,,,,,,,,,
,,,,,,60daaa7f5ea36d3eff3c5709,676192165fb32c2e1fb7aee6,67d1558d740b22c52b1768e5,2025-03-12_03h40.33.427,Tarea de decisión léxica,2024.2.5,Win32,58.47953216,,,67.241,89.2058,space,21.9192,,-0.19047619,-0.246666667,0,0,0,0,2,2,2,1,3,instructions,"En el teclado de su dispositivo, pulse la tecla ""A"" si la cadena de letras es una palabra real en español (por ejemplo: ""mano"") y la tecla ""L"" si la cadena de letras es una no-palabra (por ejemplo: ""minu"").
Pulse la tecla ESPACIO para continuar.",1,keyboardresponseWN.png,,,,,,,,,,,,,,,,,,,,,,,,,,,,,,,,,,,,,,,,,
,,,,,,60daaa7f5ea36d3eff3c5709,676192165fb32c2e1fb7aee6,67d1558d740b22c52b1768e5,2025-03-12_03h40.33.427,Tarea de decisión léxica,2024.2.5,Win32,58.47953216,,,89.2086,139.0608,space,49.832,,-0.19047619,-0.246666667,0,0,0,0,3,3,3,1,4,instructions,"Es muy importante que responda con la mayor rapidez y precisión posibles. Si no responde dentro de 2 segundos, aparecerá el mensaje ""Muy lento"" y el experimento pasará a la siguiente palabra. Inmediatamente después de su respuesta se indicará si fue correcta o no. Los primeros 15 intentos serán de práctica y habrá dos descansos durante la prueba.

Pulse la tecla ESPACIO  para iniciar la parte de práctica.",0,keyboardresponseWN.png,,,,,,,,,,,,,,,,,,,,,,,,,,,,,,,,,,,,,,,,,
,,,,,,60daaa7f5ea36d3eff3c5709,676192165fb32c2e1fb7aee6,67d1558d740b22c52b1768e5,2025-03-12_03h40.33.427,Tarea de decisión léxica,2024.2.5,Win32,58.47953216,,,,,,,,,,,,,,,,,,,,,,,139.0711,141.7123,,0,,-1,141.7125,142.2125,0,0,0,7,1,1008,MAS,WORD,DIS,150,frío,4,la,l,,,,,,,,,,,,,,,,,,,
,,,,,,60daaa7f5ea36d3eff3c5709,676192165fb32c2e1fb7aee6,67d1558d740b22c52b1768e5,2025-03-12_03h40.33.427,Tarea de decisión léxica,2024.2.5,Win32,58.47953216,,,,,,,,,,,,,,,,,,,,,,,142.2136,143.9479,l,1,1.0587,1,143.9551,144.448,0,1,1,1,1,1002,FEM,NOWORD,DIS,150,mabo,4,el,a,1.0587,,,,,,,,,,,,,,,,,,
,,,,,,60daaa7f5ea36d3eff3c5709,676192165fb32c2e1fb7aee6,67d1558d740b22c52b1768e5,2025-03-12_03h40.33.427,Tarea de decisión léxica,2024.2.5,Win32,58.47953216,,,,,,,,,,,,,,,,,,,,,,,144.4498,145.8486,a,1,0.7199,1,145.8487,146.3494,0,2,2,9,1,1010,MAS,WORD,DIS,150,video,5,la,l,0.7199,,,,,,,,,,,,,,,,,,
,,,,,,60daaa7f5ea36d3eff3c5709,676192165fb32c2e1fb7aee6,67d1558d740b22c52b1768e5,2025-03-12_03h40.33.427,Tarea de decisión léxica,2024.2.5,Win32,58.47953216,,,,,,,,,,,,,,,,,,,,,,,146.3505,147.8333,l,1,0.8021,1,147.8334,148.3339,0,3,3,3,1,1004,FEM,NOWORD,AGR,150,bireo,5,la,a,0.8021,,,,,,,,,,,,,,,,,,
,,,,,,60daaa7f5ea36d3eff3c5709,676192165fb32c2e1fb7aee6,67d1558d740b22c52b1768e5,2025-03-12_03h40.33.427,Tarea de decisión léxica,2024.2.5,Win32,58.47953216,,,,,,,,,,,,,,,,,,,,,,,148.335,149.5178,a,1,0.5295,1,149.5179,150.0189,0,4,4,8,1,1009,FEM,WORD,AGR,150,viejo,5,la,l,0.5295,,,,,,,,,,,,,,,,,,
,,,,,,60daaa7f5ea36d3eff3c5709,676192165fb32c2e1fb7aee6,67d1558d740b22c52b1768e5,2025-03-12_03h40.33.427,Tarea de decisión léxica,2024.2.5,Win32,58.47953216,,,,,,,,,,,,,,,,,,,,,,,150.0199,151.5861,l,1,0.9083,1,151.5862,152.0873,0,5,5,4,1,1005,MAS,NOWORD,DIS,150,nobad,5,la,a,0.9083,,,,,,,,,,,,,,,,,,
,,,,,,60daaa7f5ea36d3eff3c5709,676192165fb32c2e1fb7aee6,67d1558d740b22c52b1768e5,2025-03-12_03h40.33.427,Tarea de decisión léxica,2024.2.5,Win32,58.47953216,,,,,,,,,,,,,,,,,,,,,,,152.0886,153.321,a,1,0.5597,1,153.3211,153.8213,0,6,6,5,1,1006,FEM,WORD,AGR,150,cara,4,la,l,0.5597,,,,,,,,,,,,,,,,,,
,,,,,,60daaa7f5ea36d3eff3c5709,676192165fb32c2e1fb7aee6,67d1558d740b22c52b1768e5,2025-03-12_03h40.33.427,Tarea de decisión léxica,2024.2.5,Win32,58.47953216,,,,,,,,,,,,,,,,,,,,,,,153.8222,154.973,a,1,0.4848,1,154.973,155.473,0,7,7,6,1,1007,MAS,WORD,DIS,150,masa,4,la,l,0.4848,,,,,,,,,,,,,,,,,,
,,,,,,60daaa7f5ea36d3eff3c5709,676192165fb32c2e1fb7aee6,67d1558d740b22c52b1768e5,2025-03-12_03h40.33.427,Tarea de decisión léxica,2024.2.5,Win32,58.47953216,,,,,,,,,,,,,,,,,,,,,,,155.4744,156.7568,l,1,0.631,1,156.7569,157.2573,0,8,8,2,1,1003,FEM,NOWORD,DIS,150,muvor,5,el,a,0.631,,,,,,,,,,,,,,,,,,
,,,,,,60daaa7f5ea36d3eff3c5709,676192165fb32c2e1fb7aee6,67d1558d740b22c52b1768e5,2025-03-12_03h40.33.427,Tarea de decisión léxica,2024.2.5,Win32,58.47953216,,,,,,,,,,,,,,,,,,,,,,,157.2581,158.5251,l,1,0.6005,1,158.5251,159.0255,0,9,9,0,1,1001,FEM,NOWORD,AGR,150,croz,4,la,a,0.6005,,,,,,,,,,,,,,,,,,
,,,,,,60daaa7f5ea36d3eff3c5709,676192165fb32c2e1fb7aee6,67d1558d740b22c52b1768e5,2025-03-12_03h40.33.427,Tarea de decisión léxica,2024.2.5,Win32,58.47953216,,,163.5139,177.123,space,13.5885,,-0.19047619,-0.246666667,0,0,0,,,,,,,,,,,177.1474,178.4735,l,1,0.6606,1,178.4736,178.9739,,,,,,378,MAS,NOWORD,AGR,150,gaulo,,el,,0.6606,,178.9741,178.9768,-0.19047619,-0.246666667,0,0,0,,0,0,0,377,1,hielo,,,
,,,,,,60daaa7f5ea36d3eff3c5709,676192165fb32c2e1fb7aee6,67d1558d740b22c52b1768e5,2025-03-12_03h40.33.427,Tarea de decisión léxica,2024.2.5,Win32,58.47953216,,,,,,,,,,,,,,,,,,,,,,,178.9786,180.0749,l,1,0.417,1,180.075,180.5753,,,,,,98,MAS,NOWORD,AGR,150,fopo,,el,,0.417,,180.5754,180.5755,-0.19047619,-0.246666667,0,0,0,,0,1,1,97,1,mono,,,
,,,,,,60daaa7f5ea36d3eff3c5709,676192165fb32c2e1fb7aee6,67d1558d740b22c52b1768e5,2025-03-12_03h40.33.427,Tarea de decisión léxica,2024.2.5,Win32,58.47953216,,,,,,,,,,,,,,,,,,,,,,,180.5763,181.6596,a,1,0.4081,1,181.6599,182.1601,,,,,,409,MAS,WORD,AGR,150,carro,,el,,0.4081,,182.1615,182.1622,-0.19047619,-0.246666667,0,0,0,,0,2,2,408,1,pafro,,,
,,,,,,60daaa7f5ea36d3eff3c5709,676192165fb32c2e1fb7aee6,67d1558d740b22c52b1768e5,2025-03-12_03h40.33.427,Tarea de decisión léxica,2024.2.5,Win32,58.47953216,,,,,,,,,,,,,,,,,,,,,,,182.1628,183.3943,a,1,0.5506,1,183.3944,183.8946,,,,,,9,MAS,WORD,AGR,150,tipo,,el,,0.5506,,183.8947,183.8947,-0.19047619,-0.246666667,0,0,0,,0,3,3,8,1,sibo,,,
,,,,,,60daaa7f5ea36d3eff3c5709,676192165fb32c2e1fb7aee6,67d1558d740b22c52b1768e5,2025-03-12_03h40.33.427,Tarea de decisión léxica,2024.2.5,Win32,58.47953216,,,,,,,,,,,,,,,,,,,,,,,183.8956,185.0283,a,1,0.4559,1,185.0285,185.5285,,,,,,147,FEM,WORD,DIS,150,hoja,,el,,0.4559,,185.5286,185.5286,-0.19047619,-0.246666667,0,0,0,,0,4,4,146,1,pama,,,
,,,,,,60daaa7f5ea36d3eff3c5709,676192165fb32c2e1fb7aee6,67d1558d740b22c52b1768e5,2025-03-12_03h40.33.427,Tarea de decisión léxica,2024.2.5,Win32,58.47953216,,,,,,,,,,,,,,,,,,,,,,,185.5294,186.663,a,1,0.4704,1,186.663,187.1638,,,,,,305,MAS,WORD,AGR,150,avión,,el,,0.4704,,187.1639,187.1639,-0.19047619,-0.246666667,0,0,0,,0,5,5,304,1,adiol,,,
,,,,,,60daaa7f5ea36d3eff3c5709,676192165fb32c2e1fb7aee6,67d1558d740b22c52b1768e5,2025-03-12_03h40.33.427,Tarea de decisión léxica,2024.2.5,Win32,58.47953216,,,,,,,,,,,,,,,,,,,,,,,187.1646,188.2809,a,1,0.4346,1,188.2809,188.7815,,,,,,467,MAS,WORD,DIS,150,piano,,la,,0.4346,,188.7816,188.7818,-0.19047619,-0.246666667,0,0,0,,0,6,6,466,1,peiso,,,
,,,,,,60daaa7f5ea36d3eff3c5709,676192165fb32c2e1fb7aee6,67d1558d740b22c52b1768e5,2025-03-12_03h40.33.427,Tarea de decisión léxica,2024.2.5,Win32,58.47953216,,,,,,,,,,,,,,,,,,,,,,,188.7827,190.0163,l,1,0.5603,1,190.0164,190.516,,,,,,158,MAS,NOWORD,AGR,150,hico,,el,,0.5603,,190.5168,190.5175,-0.19047619,-0.246666667,0,0,0,,0,7,7,157,1,nido,,,
,,,,,,60daaa7f5ea36d3eff3c5709,676192165fb32c2e1fb7aee6,67d1558d740b22c52b1768e5,2025-03-12_03h40.33.427,Tarea de decisión léxica,2024.2.5,Win32,58.47953216,,,,,,,,,,,,,,,,,,,,,,,190.518,191.634,a,1,0.4423,1,191.6342,192.1337,,,,,,343,FEM,WORD,DIS,150,plata,,el,,0.4423,,192.1338,192.1339,-0.19047619,-0.246666667,0,0,0,,0,8,8,342,1,trada,,,
,,,,,,60daaa7f5ea36d3eff3c5709,676192165fb32c2e1fb7aee6,67d1558d740b22c52b1768e5,2025-03-12_03h40.33.427,Tarea de decisión léxica,2024.2.5,Win32,58.47953216,,,,,,,,,,,,,,,,,,,,,,,192.1347,193.2348,a,1,0.4415,1,193.2349,193.7356,,,,,,323,FEM,WORD,DIS,150,cinta,,el,,0.4415,,193.7356,193.7358,-0.19047619,-0.246666667,0,0,0,,0,9,9,322,1,certa,,,
,,,,,,60daaa7f5ea36d3eff3c5709,676192165fb32c2e1fb7aee6,67d1558d740b22c52b1768e5,2025-03-12_03h40.33.427,Tarea de decisión léxica,2024.2.5,Win32,58.47953216,,,,,,,,,,,,,,,,,,,,,,,193.7365,194.9195,l,1,0.5028,1,194.9196,195.4202,,,,,,354,FEM,NOWORD,AGR,150,cezca,,la,,0.5028,,195.4203,195.4204,-0.19047619,-0.246666667,0,0,0,,0,10,10,353,1,celda,,,
,,,,,,60daaa7f5ea36d3eff3c5709,676192165fb32c2e1fb7aee6,67d1558d740b22c52b1768e5,2025-03-12_03h40.33.427,Tarea de decisión léxica,2024.2.5,Win32,58.47953216,,,,,,,,,,,,,,,,,,,,,,,195.4211,196.4539,a,1,0.3544,1,196.4539,196.954,,,,,,31,FEM,WORD,DIS,150,ropa,,el,,0.3544,,196.955,196.9556,-0.19047619,-0.246666667,0,0,0,,0,11,11,30,1,bova,,,
,,,,,,60daaa7f5ea36d3eff3c5709,676192165fb32c2e1fb7aee6,67d1558d740b22c52b1768e5,2025-03-12_03h40.33.427,Tarea de decisión léxica,2024.2.5,Win32,58.47953216,,,,,,,,,,,,,,,,,,,,,,,196.9561,198.2555,a,1,0.628,1,198.2556,198.7556,,,,,,41,FEM,WORD,AGR,150,nave,,la,,0.628,,198.7557,198.7557,-0.19047619,-0.246666667,0,0,0,,0,12,12,40,1,haje,,,
,,,,,,60daaa7f5ea36d3eff3c5709,676192165fb32c2e1fb7aee6,67d1558d740b22c52b1768e5,2025-03-12_03h40.33.427,Tarea de decisión léxica,2024.2.5,Win32,58.47953216,,,,,,,,,,,,,,,,,,,,,,,198.7563,199.9065,l,1,0.4922,1,199.9065,200.4073,,,,,,480,MAS,NOWORD,DIS,150,rimpo,,la,,0.4922,,200.4075,200.4075,-0.19047619,-0.246666667,0,0,0,,0,13,13,479,1,rumbo,,,
,,,,,,60daaa7f5ea36d3eff3c5709,676192165fb32c2e1fb7aee6,67d1558d740b22c52b1768e5,2025-03-12_03h40.33.427,Tarea de decisión léxica,2024.2.5,Win32,58.47953216,,,,,,,,,,,,,,,,,,,,,,,200.4086,201.4743,a,1,0.3904,1,201.4743,201.9751,,,,,,87,MAS,WORD,DIS,150,vaso,,la,,0.3904,,201.9751,201.9752,-0.19047619,-0.246666667,0,0,0,,0,14,14,86,1,damo,,,
,,,,,,60daaa7f5ea36d3eff3c5709,676192165fb32c2e1fb7aee6,67d1558d740b22c52b1768e5,2025-03-12_03h40.33.427,Tarea de decisión léxica,2024.2.5,Win32,58.47953216,,,,,,,,,,,,,,,,,,,,,,,201.9762,203.1589,l,1,0.5111,1,203.1591,203.6594,,,,,,214,FEM,NOWORD,AGR,150,bana,,la,,0.5111,,203.6595,203.6595,-0.19047619,-0.246666667,0,0,0,,0,15,15,213,1,rama,,,
,,,,,,60daaa7f5ea36d3eff3c5709,676192165fb32c2e1fb7aee6,67d1558d740b22c52b1768e5,2025-03-12_03h40.33.427,Tarea de decisión léxica,2024.2.5,Win32,58.47953216,,,,,,,,,,,,,,,,,,,,,,,203.6604,204.7273,a,1,0.4021,1,204.7274,205.2276,,,,,,201,FEM,WORD,AGR,150,cuna,,la,,0.4021,,205.2287,205.229,-0.19047619,-0.246666667,0,0,0,,0,16,16,200,1,cusa,,,
,,,,,,60daaa7f5ea36d3eff3c5709,676192165fb32c2e1fb7aee6,67d1558d740b22c52b1768e5,2025-03-12_03h40.33.427,Tarea de decisión léxica,2024.2.5,Win32,58.47953216,,,,,,,,,,,,,,,,,,,,,,,205.2296,206.2609,a,1,0.3629,1,206.261,206.7622,,,,,,69,FEM,WORD,AGR,150,zona,,la,,0.3629,,206.7622,206.7623,-0.19047619,-0.246666667,0,0,0,,0,17,17,68,1,ñola,,,
,,,,,,60daaa7f5ea36d3eff3c5709,676192165fb32c2e1fb7aee6,67d1558d740b22c52b1768e5,2025-03-12_03h40.33.427,Tarea de decisión léxica,2024.2.5,Win32,58.47953216,,,,,,,,,,,,,,,,,,,,,,,206.7633,207.8294,l,1,0.3879,1,207.8295,208.3297,,,,,,246,FEM,NOWORD,AGR,150,pafle,,la,,0.3879,,208.3298,208.3298,-0.19047619,-0.246666667,0,0,0,,0,18,18,245,1,madre,,,
,,,,,,60daaa7f5ea36d3eff3c5709,676192165fb32c2e1fb7aee6,67d1558d740b22c52b1768e5,2025-03-12_03h40.33.427,Tarea de decisión léxica,2024.2.5,Win32,58.47953216,,,,,,,,,,,,,,,,,,,,,,,208.3304,209.3471,a,1,0.357,1,209.3471,209.8478,,,,,,469,MAS,WORD,AGR,150,patio,,el,,0.357,,209.8478,209.848,-0.19047619,-0.246666667,0,0,0,,0,19,19,468,1,matia,,,
,,,,,,60daaa7f5ea36d3eff3c5709,676192165fb32c2e1fb7aee6,67d1558d740b22c52b1768e5,2025-03-12_03h40.33.427,Tarea de decisión léxica,2024.2.5,Win32,58.47953216,,,,,,,,,,,,,,,,,,,,,,,209.8491,210.9814,a,1,0.4641,1,210.9815,211.482,,,,,,73,MAS,WORD,AGR,150,odio,,el,,0.4641,,211.482,211.482,-0.19047619,-0.246666667,0,0,0,,0,20,20,72,1,omio,,,
,,,,,,60daaa7f5ea36d3eff3c5709,676192165fb32c2e1fb7aee6,67d1558d740b22c52b1768e5,2025-03-12_03h40.33.427,Tarea de decisión léxica,2024.2.5,Win32,58.47953216,,,,,,,,,,,,,,,,,,,,,,,211.4826,212.5493,l,1,0.4127,1,212.5493,213.0495,,,,,,278,MAS,NOWORD,AGR,150,vuemo,,el,,0.4127,,213.0504,213.0508,-0.19047619,-0.246666667,0,0,0,,0,21,21,277,1,fuego,,,
,,,,,,60daaa7f5ea36d3eff3c5709,676192165fb32c2e1fb7aee6,67d1558d740b22c52b1768e5,2025-03-12_03h40.33.427,Tarea de decisión léxica,2024.2.5,Win32,58.47953216,,,,,,,,,,,,,,,,,,,,,,,213.0513,214.1173,a,0,0.3967,0,214.118,214.6182,,,,,,256,MAS,NOWORD,DIS,150,mauco,,la,,0.3967,,214.6182,214.6183,-0.19047619,-0.246666667,0,0,0,,0,22,22,255,1,miedo,,,
,,,,,,60daaa7f5ea36d3eff3c5709,676192165fb32c2e1fb7aee6,67d1558d740b22c52b1768e5,2025-03-12_03h40.33.427,Tarea de decisión léxica,2024.2.5,Win32,58.47953216,,,,,,,,,,,,,,,,,,,,,,,214.6194,215.7519,a,1,0.4518,1,215.7526,216.2523,,,,,,419,MAS,WORD,DIS,150,truco,,la,,0.4518,,216.2523,216.2523,-0.19047619,-0.246666667,0,0,0,,0,23,23,418,1,chudo,,,
,,,,,,60daaa7f5ea36d3eff3c5709,676192165fb32c2e1fb7aee6,67d1558d740b22c52b1768e5,2025-03-12_03h40.33.427,Tarea de decisión léxica,2024.2.5,Win32,58.47953216,,,,,,,,,,,,,,,,,,,,,,,216.2529,217.2533,l,1,0.3381,1,217.2534,217.7536,,,,,,468,MAS,NOWORD,DIS,150,peiso,,la,,0.3381,,217.7536,217.7536,-0.19047619,-0.246666667,0,0,0,,0,24,24,467,1,piano,,,
,,,,,,60daaa7f5ea36d3eff3c5709,676192165fb32c2e1fb7aee6,67d1558d740b22c52b1768e5,2025-03-12_03h40.33.427,Tarea de decisión léxica,2024.2.5,Win32,58.47953216,,,,,,,,,,,,,,,,,,,,,,,217.7542,218.8546,a,1,0.4202,1,218.8547,219.3551,,,,,,401,MAS,WORD,AGR,150,polvo,,el,,0.4202,,219.3551,219.3552,-0.19047619,-0.246666667,0,0,0,,0,25,25,400,1,pirvo,,,
,,,,,,60daaa7f5ea36d3eff3c5709,676192165fb32c2e1fb7aee6,67d1558d740b22c52b1768e5,2025-03-12_03h40.33.427,Tarea de decisión léxica,2024.2.5,Win32,58.47953216,,,,,,,,,,,,,,,,,,,,,,,219.3558,220.6055,a,1,0.5785,1,220.6056,221.1062,,,,,,253,MAS,WORD,AGR,150,chico,,el,,0.5785,,221.1072,221.1076,-0.19047619,-0.246666667,0,0,0,,0,26,26,252,1,trido,,,
,,,,,,60daaa7f5ea36d3eff3c5709,676192165fb32c2e1fb7aee6,67d1558d740b22c52b1768e5,2025-03-12_03h40.33.427,Tarea de decisión léxica,2024.2.5,Win32,58.47953216,,,,,,,,,,,,,,,,,,,,,,,221.1081,222.1901,l,1,0.4117,1,222.1902,222.6909,,,,,,312,MAS,NOWORD,DIS,150,nosor,,la,,0.4117,,222.6909,222.6909,-0.19047619,-0.246666667,0,0,0,,0,27,27,311,1,honor,,,
,,,,,,60daaa7f5ea36d3eff3c5709,676192165fb32c2e1fb7aee6,67d1558d740b22c52b1768e5,2025-03-12_03h40.33.427,Tarea de decisión léxica,2024.2.5,Win32,58.47953216,,,,,,,,,,,,,,,,,,,,,,,222.6915,223.7419,a,1,0.3718,1,223.7421,224.2417,,,,,,321,MAS,WORD,AGR,150,banco,,el,,0.3718,,224.2419,224.242,-0.19047619,-0.246666667,0,0,0,,0,28,28,320,1,rarco,,,
,,,,,,60daaa7f5ea36d3eff3c5709,676192165fb32c2e1fb7aee6,67d1558d740b22c52b1768e5,2025-03-12_03h40.33.427,Tarea de decisión léxica,2024.2.5,Win32,58.47953216,,,,,,,,,,,,,,,,,,,,,,,224.2428,225.2423,l,1,0.3407,1,225.2423,225.7432,,,,,,238,MAS,NOWORD,AGR,150,huco,,el,,0.3407,,225.7433,225.7434,-0.19047619,-0.246666667,0,0,0,,0,29,29,237,1,nudo,,,
,,,,,,60daaa7f5ea36d3eff3c5709,676192165fb32c2e1fb7aee6,67d1558d740b22c52b1768e5,2025-03-12_03h40.33.427,Tarea de decisión léxica,2024.2.5,Win32,58.47953216,,,,,,,,,,,,,,,,,,,,,,,225.7445,226.7933,l,1,0.3661,1,226.7934,227.2942,,,,,,300,FEM,NOWORD,DIS,150,bosga,,el,,0.3661,,227.2943,227.2943,-0.19047619,-0.246666667,0,0,0,,0,30,30,299,1,bolsa,,,
,,,,,,60daaa7f5ea36d3eff3c5709,676192165fb32c2e1fb7aee6,67d1558d740b22c52b1768e5,2025-03-12_03h40.33.427,Tarea de decisión léxica,2024.2.5,Win32,58.47953216,,,,,,,,,,,,,,,,,,,,,,,227.2955,228.5954,a,1,0.635,1,228.5956,229.0955,,,,,,435,MAS,WORD,DIS,150,ritmo,,la,,0.635,,229.0965,229.097,-0.19047619,-0.246666667,0,0,0,,0,31,31,434,1,ricno,,,
,,,,,,60daaa7f5ea36d3eff3c5709,676192165fb32c2e1fb7aee6,67d1558d740b22c52b1768e5,2025-03-12_03h40.33.427,Tarea de decisión léxica,2024.2.5,Win32,58.47953216,,,,,,,,,,,,,,,,,,,,,,,229.0974,230.2965,a,1,0.5185,1,230.2966,230.7971,,,,,,407,FEM,WORD,DIS,150,cueva,,el,,0.5185,,230.7971,230.7972,-0.19047619,-0.246666667,0,0,0,,0,32,32,406,1,cauba,,,
,,,,,,60daaa7f5ea36d3eff3c5709,676192165fb32c2e1fb7aee6,67d1558d740b22c52b1768e5,2025-03-12_03h40.33.427,Tarea de decisión léxica,2024.2.5,Win32,58.47953216,,,,,,,,,,,,,,,,,,,,,,,230.7983,231.8644,a,1,0.3834,1,231.8645,232.365,,,,,,359,MAS,WORD,DIS,150,calor,,la,,0.3834,,232.3651,232.3652,-0.19047619,-0.246666667,0,0,0,,0,33,33,358,1,cacer,,,
,,,,,,60daaa7f5ea36d3eff3c5709,676192165fb32c2e1fb7aee6,67d1558d740b22c52b1768e5,2025-03-12_03h40.33.427,Tarea de decisión léxica,2024.2.5,Win32,58.47953216,,,,,,,,,,,,,,,,,,,,,,,232.3662,233.4991,a,1,0.4578,1,233.4993,233.9995,,,,,,205,FEM,WORD,AGR,150,rana,,la,,0.4578,,233.9995,233.9996,-0.19047619,-0.246666667,0,0,0,,0,34,34,204,1,bara,,,
,,,,,,60daaa7f5ea36d3eff3c5709,676192165fb32c2e1fb7aee6,67d1558d740b22c52b1768e5,2025-03-12_03h40.33.427,Tarea de decisión léxica,2024.2.5,Win32,58.47953216,,,,,,,,,,,,,,,,,,,,,,,234.0001,235.0668,a,1,0.3852,1,235.0669,235.5667,,,,,,49,FEM,WORD,AGR,150,edad,,la,,0.3852,,235.5677,235.5684,-0.19047619,-0.246666667,0,0,0,,0,35,35,48,1,ecat,,,
,,,,,,60daaa7f5ea36d3eff3c5709,676192165fb32c2e1fb7aee6,67d1558d740b22c52b1768e5,2025-03-12_03h40.33.427,Tarea de decisión léxica,2024.2.5,Win32,58.47953216,,,,,,,,,,,,,,,,,,,,,,,235.5688,236.6509,a,1,0.4053,1,236.6509,237.1513,,,,,,11,MAS,WORD,DIS,150,lado,,la,,0.4053,,237.1513,237.1513,-0.19047619,-0.246666667,0,0,0,,0,36,36,10,1,bapo,,,
,,,,,,60daaa7f5ea36d3eff3c5709,676192165fb32c2e1fb7aee6,67d1558d740b22c52b1768e5,2025-03-12_03h40.33.427,Tarea de decisión léxica,2024.2.5,Win32,58.47953216,,,,,,,,,,,,,,,,,,,,,,,237.152,238.0522,a,1,0.2389,1,238.0523,238.553,,,,,,459,MAS,WORD,DIS,150,grado,,la,,0.2389,,238.5531,238.5531,-0.19047619,-0.246666667,0,0,0,,0,37,37,458,1,fraco,,,
,,,,,,60daaa7f5ea36d3eff3c5709,676192165fb32c2e1fb7aee6,67d1558d740b22c52b1768e5,2025-03-12_03h40.33.427,Tarea de decisión léxica,2024.2.5,Win32,58.47953216,,,,,,,,,,,,,,,,,,,,,,,238.5541,239.6705,l,1,0.436,1,239.6706,240.1708,,,,,,172,MAS,NOWORD,DIS,150,niro,,la,,0.436,,240.1709,240.171,-0.19047619,-0.246666667,0,0,0,,0,38,38,171,1,hilo,,,
,,,,,,60daaa7f5ea36d3eff3c5709,676192165fb32c2e1fb7aee6,67d1558d740b22c52b1768e5,2025-03-12_03h40.33.427,Tarea de decisión léxica,2024.2.5,Win32,58.47953216,,,,,,,,,,,,,,,,,,,,,,,240.1717,241.1876,a,1,0.3469,1,241.1876,241.6883,,,,,,209,MAS,WORD,AGR,150,velo,,el,,0.3469,,241.6883,241.6884,-0.19047619,-0.246666667,0,0,0,,0,39,39,208,1,dero,,,
,,,,,,60daaa7f5ea36d3eff3c5709,676192165fb32c2e1fb7aee6,67d1558d740b22c52b1768e5,2025-03-12_03h40.33.427,Tarea de decisión léxica,2024.2.5,Win32,58.47953216,,,,,,,,,,,,,,,,,,,,,,,241.6895,242.8897,l,1,0.5334,1,242.8898,243.3897,,,,,,16,FEM,NOWORD,DIS,150,odea,,el,,0.5334,,243.3911,243.3916,-0.19047619,-0.246666667,0,0,0,,0,40,40,15,1,idea,,,
,,,,,,60daaa7f5ea36d3eff3c5709,676192165fb32c2e1fb7aee6,67d1558d740b22c52b1768e5,2025-03-12_03h40.33.427,Tarea de decisión léxica,2024.2.5,Win32,58.47953216,,,,,,,,,,,,,,,,,,,,,,,243.3922,244.6737,l,1,0.608,1,244.6737,245.1746,,,,,,330,MAS,NOWORD,AGR,150,nueno,,el,,0.608,,245.1748,245.1748,-0.19047619,-0.246666667,0,0,0,,0,41,41,329,1,hueso,,,
,,,,,,60daaa7f5ea36d3eff3c5709,676192165fb32c2e1fb7aee6,67d1558d740b22c52b1768e5,2025-03-12_03h40.33.427,Tarea de decisión léxica,2024.2.5,Win32,58.47953216,,,,,,,,,,,,,,,,,,,,,,,245.1758,246.2588,a,1,0.4024,1,246.2588,246.759,,,,,,119,MAS,WORD,DIS,150,pozo,,la,,0.4024,,246.759,246.7591,-0.19047619,-0.246666667,0,0,0,,0,42,42,118,1,hooy,,,
,,,,,,60daaa7f5ea36d3eff3c5709,676192165fb32c2e1fb7aee6,67d1558d740b22c52b1768e5,2025-03-12_03h40.33.427,Tarea de decisión léxica,2024.2.5,Win32,58.47953216,,,,,,,,,,,,,,,,,,,,,,,246.7599,247.8602,l,1,0.4236,1,247.8603,248.3601,,,,,,314,MAS,NOWORD,AGR,150,govio,,el,,0.4236,,248.3602,248.3603,-0.19047619,-0.246666667,0,0,0,,0,43,43,313,1,novio,,,
,,,,,,60daaa7f5ea36d3eff3c5709,676192165fb32c2e1fb7aee6,67d1558d740b22c52b1768e5,2025-03-12_03h40.33.427,Tarea de decisión léxica,2024.2.5,Win32,58.47953216,,,,,,,,,,,,,,,,,,,,,,,248.361,249.4447,a,0,0.4211,0,249.4457,249.9448,,,,,,164,FEM,NOWORD,DIS,150,laga,,el,,0.4211,,249.9449,249.945,-0.19047619,-0.246666667,0,0,0,,0,44,44,163,1,fama,,,
,,,,,,60daaa7f5ea36d3eff3c5709,676192165fb32c2e1fb7aee6,67d1558d740b22c52b1768e5,2025-03-12_03h40.33.427,Tarea de decisión léxica,2024.2.5,Win32,58.47953216,,,,,,,,,,,,,,,,,,,,,,,249.946,251.2456,a,1,0.6283,1,251.246,251.7461,,,,,,413,FEM,WORD,AGR,150,rueda,,la,,0.6283,,251.7471,251.7478,-0.19047619,-0.246666667,0,0,0,,0,45,45,412,1,bieda,,,
,,,,,,60daaa7f5ea36d3eff3c5709,676192165fb32c2e1fb7aee6,67d1558d740b22c52b1768e5,2025-03-12_03h40.33.427,Tarea de decisión léxica,2024.2.5,Win32,58.47953216,,,,,,,,,,,,,,,,,,,,,,,251.7486,253.0807,a,1,0.6514,1,253.0808,253.5811,,,,,,357,FEM,WORD,AGR,150,bruja,,la,,0.6514,,253.5812,253.5813,-0.19047619,-0.246666667,0,0,0,,0,46,46,356,1,gruba,,,
,,,,,,60daaa7f5ea36d3eff3c5709,676192165fb32c2e1fb7aee6,67d1558d740b22c52b1768e5,2025-03-12_03h40.33.427,Tarea de decisión léxica,2024.2.5,Win32,58.47953216,,,,,,,,,,,,,,,,,,,,,,,253.582,254.9481,l,1,0.6972,1,254.9482,255.4494,,,,,,470,MAS,NOWORD,AGR,150,matia,,el,,0.6972,,255.4495,255.4496,-0.19047619,-0.246666667,0,0,0,,0,47,47,469,1,patio,,,
,,,,,,60daaa7f5ea36d3eff3c5709,676192165fb32c2e1fb7aee6,67d1558d740b22c52b1768e5,2025-03-12_03h40.33.427,Tarea de decisión léxica,2024.2.5,Win32,58.47953216,,,,,,,,,,,,,,,,,,,,,,,255.4505,256.5499,a,1,0.428,1,256.5499,257.05,,,,,,23,FEM,WORD,DIS,150,hija,,el,,0.428,,257.05,257.0502,-0.19047619,-0.246666667,0,0,0,,0,48,48,22,1,giva,,,
,,,,,,60daaa7f5ea36d3eff3c5709,676192165fb32c2e1fb7aee6,67d1558d740b22c52b1768e5,2025-03-12_03h40.33.427,Tarea de decisión léxica,2024.2.5,Win32,58.47953216,,,,,,,,,,,,,,,,,,,,,,,257.0511,258.1011,a,1,0.3875,1,258.1012,258.601,,,,,,99,MAS,WORD,DIS,150,lobo,,la,,0.3875,,258.601,258.601,-0.19047619,-0.246666667,0,0,0,,0,49,49,98,1,soro,,,
,,,,,,60daaa7f5ea36d3eff3c5709,676192165fb32c2e1fb7aee6,67d1558d740b22c52b1768e5,2025-03-12_03h40.33.427,Tarea de decisión léxica,2024.2.5,Win32,58.47953216,,,,,,,,,,,,,,,,,,,,,,,258.6019,259.8855,l,1,0.6288,1,259.8856,260.3859,,,,,,302,FEM,NOWORD,AGR,150,ranga,,la,,0.6288,,260.3865,260.387,-0.19047619,-0.246666667,0,0,0,,0,50,50,301,1,banda,,,
,,,,,,60daaa7f5ea36d3eff3c5709,676192165fb32c2e1fb7aee6,67d1558d740b22c52b1768e5,2025-03-12_03h40.33.427,Tarea de decisión léxica,2024.2.5,Win32,58.47953216,,,,,,,,,,,,,,,,,,,,,,,260.3873,261.4706,a,1,0.4023,1,261.4707,261.9704,,,,,,457,MAS,WORD,AGR,150,plato,,el,,0.4023,,261.9705,261.9705,-0.19047619,-0.246666667,0,0,0,,0,51,51,456,1,glaco,,,
,,,,,,60daaa7f5ea36d3eff3c5709,676192165fb32c2e1fb7aee6,67d1558d740b22c52b1768e5,2025-03-12_03h40.33.427,Tarea de decisión léxica,2024.2.5,Win32,58.47953216,,,,,,,,,,,,,,,,,,,,,,,261.9711,263.2213,a,1,0.5947,1,263.2214,263.7225,,,,,,161,MAS,WORD,AGR,150,coro,,el,,0.5947,,263.7225,263.7226,-0.19047619,-0.246666667,0,0,0,,0,52,52,160,1,bopo,,,
,,,,,,60daaa7f5ea36d3eff3c5709,676192165fb32c2e1fb7aee6,67d1558d740b22c52b1768e5,2025-03-12_03h40.33.427,Tarea de decisión léxica,2024.2.5,Win32,58.47953216,,,,,,,,,,,,,,,,,,,,,,,263.7234,264.7224,a,1,0.3304,1,264.7225,265.2232,,,,,,247,FEM,WORD,DIS,150,chica,,el,,0.3304,,265.2233,265.2233,-0.19047619,-0.246666667,0,0,0,,0,53,53,246,1,trida,,,
,,,,,,60daaa7f5ea36d3eff3c5709,676192165fb32c2e1fb7aee6,67d1558d740b22c52b1768e5,2025-03-12_03h40.33.427,Tarea de decisión léxica,2024.2.5,Win32,58.47953216,,,,,,,,,,,,,,,,,,,,,,,265.2244,266.3069,a,0,0.4136,0,266.3074,266.8079,,,,,,22,MAS,NOWORD,AGR,150,blan,,el,,0.4136,,266.808,266.808,-0.19047619,-0.246666667,0,0,0,,0,54,54,21,1,plan,,,
,,,,,,60daaa7f5ea36d3eff3c5709,676192165fb32c2e1fb7aee6,67d1558d740b22c52b1768e5,2025-03-12_03h40.33.427,Tarea de decisión léxica,2024.2.5,Win32,58.47953216,,,,,,,,,,,,,,,,,,,,,,,266.8088,268.5927,l,1,1.1,1,268.5936,269.0928,,,,,,154,MAS,NOWORD,AGR,150,tado,,el,,1.1,,269.0936,269.094,-0.19047619,-0.246666667,0,0,0,,0,55,55,153,1,pato,,,
,,,,,,60daaa7f5ea36d3eff3c5709,676192165fb32c2e1fb7aee6,67d1558d740b22c52b1768e5,2025-03-12_03h40.33.427,Tarea de decisión léxica,2024.2.5,Win32,58.47953216,,,,,,,,,,,,,,,,,,,,,,,269.0945,270.2434,l,1,0.4726,1,270.2435,270.7438,,,,,,374,FEM,NOWORD,AGR,150,pogza,,la,,0.4726,,270.7439,270.744,-0.19047619,-0.246666667,0,0,0,,0,56,56,373,1,pizza,,,
,,,,,,60daaa7f5ea36d3eff3c5709,676192165fb32c2e1fb7aee6,67d1558d740b22c52b1768e5,2025-03-12_03h40.33.427,Tarea de decisión léxica,2024.2.5,Win32,58.47953216,,,,,,,,,,,,,,,,,,,,,,,270.7451,271.8785,a,1,0.4699,1,271.8787,272.3788,,,,,,447,MAS,WORD,DIS,150,bolso,,la,,0.4699,,272.3789,272.3789,-0.19047619,-0.246666667,0,0,0,,0,57,57,446,1,buaso,,,
,,,,,,60daaa7f5ea36d3eff3c5709,676192165fb32c2e1fb7aee6,67d1558d740b22c52b1768e5,2025-03-12_03h40.33.427,Tarea de decisión léxica,2024.2.5,Win32,58.47953216,,,,,,,,,,,,,,,,,,,,,,,272.3799,273.4629,a,1,0.4027,1,273.4629,273.9633,,,,,,249,FEM,WORD,AGR,150,clase,,la,,0.4027,,273.9634,273.9634,-0.19047619,-0.246666667,0,0,0,,0,58,58,248,1,plane,,,
,,,,,,60daaa7f5ea36d3eff3c5709,676192165fb32c2e1fb7aee6,67d1558d740b22c52b1768e5,2025-03-12_03h40.33.427,Tarea de decisión léxica,2024.2.5,Win32,58.47953216,,,,,,,,,,,,,,,,,,,,,,,273.9641,275.0468,a,1,0.4185,1,275.0469,275.5474,,,,,,139,MAS,WORD,DIS,150,mago,,la,,0.4185,,275.5483,275.549,-0.19047619,-0.246666667,0,0,0,,0,59,59,138,1,nila,,,
,,,,,,60daaa7f5ea36d3eff3c5709,676192165fb32c2e1fb7aee6,67d1558d740b22c52b1768e5,2025-03-12_03h40.33.427,Tarea de decisión léxica,2024.2.5,Win32,58.47953216,,,,,,,,,,,,,,,,,,,,,,,275.5494,276.7322,l,1,0.5062,1,276.7323,277.2325,,,,,,200,MAS,NOWORD,DIS,150,fano,,la,,0.5062,,277.2326,277.2327,-0.19047619,-0.246666667,0,0,0,,0,60,60,199,1,lazo,,,
,,,,,,60daaa7f5ea36d3eff3c5709,676192165fb32c2e1fb7aee6,67d1558d740b22c52b1768e5,2025-03-12_03h40.33.427,Tarea de decisión léxica,2024.2.5,Win32,58.47953216,,,,,,,,,,,,,,,,,,,,,,,277.2334,278.4663,l,1,0.5516,1,278.4664,278.9668,,,,,,324,FEM,NOWORD,DIS,150,certa,,el,,0.5516,,278.9668,278.9669,-0.19047619,-0.246666667,0,0,0,,0,61,61,323,1,cinta,,,
,,,,,,60daaa7f5ea36d3eff3c5709,676192165fb32c2e1fb7aee6,67d1558d740b22c52b1768e5,2025-03-12_03h40.33.427,Tarea de decisión léxica,2024.2.5,Win32,58.47953216,,,,,,,,,,,,,,,,,,,,,,,278.9677,280.0675,a,1,0.4475,1,280.0676,280.5677,,,,,,449,FEM,WORD,AGR,150,pluma,,la,,0.4475,,280.5677,280.5678,-0.19047619,-0.246666667,0,0,0,,0,62,62,448,1,crusa,,,
,,,,,,60daaa7f5ea36d3eff3c5709,676192165fb32c2e1fb7aee6,67d1558d740b22c52b1768e5,2025-03-12_03h40.33.427,Tarea de decisión léxica,2024.2.5,Win32,58.47953216,,,,,,,,,,,,,,,,,,,,,,,280.5685,281.7852,a,1,0.5564,1,281.7853,282.286,,,,,,39,MAS,WORD,DIS,150,voto,,la,,0.5564,,282.286,282.2861,-0.19047619,-0.246666667,0,0,0,,0,63,63,38,1,redo,,,
,,,,,,60daaa7f5ea36d3eff3c5709,676192165fb32c2e1fb7aee6,67d1558d740b22c52b1768e5,2025-03-12_03h40.33.427,Tarea de decisión léxica,2024.2.5,Win32,58.47953216,,,,,,,,,,,,,,,,,,,,,,,282.2869,283.3204,a,1,0.3509,1,283.3205,283.8207,,,,,,411,MAS,WORD,DIS,150,pollo,,la,,0.3509,,283.8217,283.8221,-0.19047619,-0.246666667,0,0,0,,0,64,64,410,1,mobro,,,
,,,,,,60daaa7f5ea36d3eff3c5709,676192165fb32c2e1fb7aee6,67d1558d740b22c52b1768e5,2025-03-12_03h40.33.427,Tarea de decisión léxica,2024.2.5,Win32,58.47953216,,,,,,,,,,,,,,,,,,,,,,,283.8225,284.9382,a,1,0.4402,1,284.9384,285.4383,,,,,,7,MAS,WORD,DIS,150,hijo,,la,,0.4402,,285.4383,285.4384,-0.19047619,-0.246666667,0,0,0,,0,65,65,6,1,nivo,,,
,,,,,,60daaa7f5ea36d3eff3c5709,676192165fb32c2e1fb7aee6,67d1558d740b22c52b1768e5,2025-03-12_03h40.33.427,Tarea de decisión léxica,2024.2.5,Win32,58.47953216,,,,,,,,,,,,,,,,,,,,,,,285.439,286.5894,l,1,0.4861,1,286.5896,287.0895,,,,,,68,FEM,NOWORD,DIS,150,gesa,,el,,0.4861,,287.0896,287.0896,-0.19047619,-0.246666667,0,0,0,,0,66,66,67,1,nena,,,
,,,,,,60daaa7f5ea36d3eff3c5709,676192165fb32c2e1fb7aee6,67d1558d740b22c52b1768e5,2025-03-12_03h40.33.427,Tarea de decisión léxica,2024.2.5,Win32,58.47953216,,,,,,,,,,,,,,,,,,,,,,,287.0902,288.1571,a,1,0.412,1,288.1571,288.6579,,,,,,389,MAS,WORD,AGR,150,cerdo,,el,,0.412,,288.658,288.6581,-0.19047619,-0.246666667,0,0,0,,0,67,67,388,1,cenco,,,
,,,,,,60daaa7f5ea36d3eff3c5709,676192165fb32c2e1fb7aee6,67d1558d740b22c52b1768e5,2025-03-12_03h40.33.427,Tarea de decisión léxica,2024.2.5,Win32,58.47953216,,,,,,,,,,,,,,,,,,,,,,,288.6592,289.6752,a,1,0.3401,1,289.6753,290.1758,,,,,,311,MAS,WORD,DIS,150,honor,,la,,0.3401,,290.1759,290.176,-0.19047619,-0.246666667,0,0,0,,0,68,68,310,1,nosor,,,
,,,,,,60daaa7f5ea36d3eff3c5709,676192165fb32c2e1fb7aee6,67d1558d740b22c52b1768e5,2025-03-12_03h40.33.427,Tarea de decisión léxica,2024.2.5,Win32,58.47953216,,,,,,,,,,,,,,,,,,,,,,,290.1769,291.2428,l,1,0.3842,1,291.2429,291.7435,,,,,,170,MAS,NOWORD,AGR,150,mibo,,el,,0.3842,,291.7446,291.7452,-0.19047619,-0.246666667,0,0,0,,0,69,69,169,1,cubo,,,
,,,,,,60daaa7f5ea36d3eff3c5709,676192165fb32c2e1fb7aee6,67d1558d740b22c52b1768e5,2025-03-12_03h40.33.427,Tarea de decisión léxica,2024.2.5,Win32,58.47953216,,,,,,,,,,,,,,,,,,,,,,,291.7455,292.9105,a,1,0.4929,1,292.9105,293.4108,,,,,,451,FEM,WORD,DIS,150,fruta,,el,,0.4929,,293.4108,293.4109,-0.19047619,-0.246666667,0,0,0,,0,70,70,450,1,clita,,,
,,,,,,60daaa7f5ea36d3eff3c5709,676192165fb32c2e1fb7aee6,67d1558d740b22c52b1768e5,2025-03-12_03h40.33.427,Tarea de decisión léxica,2024.2.5,Win32,58.47953216,,,,,,,,,,,,,,,,,,,,,,,293.4114,294.5122,a,1,0.4423,1,294.5124,295.0125,,,,,,367,MAS,WORD,DIS,150,reloj,,la,,0.4423,,295.0125,295.0125,-0.19047619,-0.246666667,0,0,0,,0,71,71,366,1,rerob,,,
,,,,,,60daaa7f5ea36d3eff3c5709,676192165fb32c2e1fb7aee6,67d1558d740b22c52b1768e5,2025-03-12_03h40.33.427,Tarea de decisión léxica,2024.2.5,Win32,58.47953216,,,,,,,,,,,,,,,,,,,,,,,295.0131,296.1631,l,1,0.4812,1,296.1632,296.6638,,,,,,38,MAS,NOWORD,AGR,150,gaco,,el,,0.4812,,296.6638,296.6639,-0.19047619,-0.246666667,0,0,0,,0,72,72,37,1,rato,,,
,,,,,,60daaa7f5ea36d3eff3c5709,676192165fb32c2e1fb7aee6,67d1558d740b22c52b1768e5,2025-03-12_03h40.33.427,Tarea de decisión léxica,2024.2.5,Win32,58.47953216,,,,,,,,,,,,,,,,,,,,,,,296.6647,297.7809,a,1,0.4456,1,297.781,298.2814,,,,,,19,MAS,WORD,DIS,150,niño,,la,,0.4456,,298.2814,298.2815,-0.19047619,-0.246666667,0,0,0,,0,73,73,18,1,himo,,,
,,,,,,60daaa7f5ea36d3eff3c5709,676192165fb32c2e1fb7aee6,67d1558d740b22c52b1768e5,2025-03-12_03h40.33.427,Tarea de decisión léxica,2024.2.5,Win32,58.47953216,,,,,,,,,,,,,,,,,,,,,,,298.2824,299.2985,a,1,0.3628,1,299.2986,299.7994,,,,,,43,FEM,WORD,DIS,150,pena,,el,,0.3628,,299.8004,299.8012,-0.19047619,-0.246666667,0,0,0,,0,74,74,42,1,meda,,,
,,,,,,60daaa7f5ea36d3eff3c5709,676192165fb32c2e1fb7aee6,67d1558d740b22c52b1768e5,2025-03-12_03h40.33.427,Tarea de decisión léxica,2024.2.5,Win32,58.47953216,,,,,,,,,,,,,,,,,,,,,,,299.802,300.9668,l,1,0.4933,1,300.9669,301.4672,,,,,,296,MAS,NOWORD,DIS,150,goler,,la,,0.4933,,301.4672,301.4673,-0.19047619,-0.246666667,0,0,0,,0,75,75,295,1,dolor,,,
,,,,,,60daaa7f5ea36d3eff3c5709,676192165fb32c2e1fb7aee6,67d1558d740b22c52b1768e5,2025-03-12_03h40.33.427,Tarea de decisión léxica,2024.2.5,Win32,58.47953216,,,,,,,,,,,,,,,,,,,,,,,301.4684,302.7015,l,1,0.5775,1,302.7016,303.202,,,,,,124,FEM,NOWORD,DIS,150,maba,,el,,0.5775,,303.2021,303.2022,-0.19047619,-0.246666667,0,0,0,,0,76,76,123,1,flor,,,
,,,,,,60daaa7f5ea36d3eff3c5709,676192165fb32c2e1fb7aee6,67d1558d740b22c52b1768e5,2025-03-12_03h40.33.427,Tarea de decisión léxica,2024.2.5,Win32,58.47953216,,,,,,,,,,,,,,,,,,,,,,,303.2032,304.2358,l,1,0.3785,1,304.2359,304.7363,,,,,,102,MAS,NOWORD,AGR,150,gito,,el,,0.3785,,304.7364,304.7365,-0.19047619,-0.246666667,0,0,0,,0,77,77,101,1,tono,,,
,,,,,,60daaa7f5ea36d3eff3c5709,676192165fb32c2e1fb7aee6,67d1558d740b22c52b1768e5,2025-03-12_03h40.33.427,Tarea de decisión léxica,2024.2.5,Win32,58.47953216,,,,,,,,,,,,,,,,,,,,,,,304.7372,305.754,l,1,0.3347,1,305.754,306.2541,,,,,,474,FEM,NOWORD,AGR,150,felia,,la,,0.3347,,306.2542,306.2542,-0.19047619,-0.246666667,0,0,0,,0,78,78,473,1,feria,,,
,,,,,,60daaa7f5ea36d3eff3c5709,676192165fb32c2e1fb7aee6,67d1558d740b22c52b1768e5,2025-03-12_03h40.33.427,Tarea de decisión léxica,2024.2.5,Win32,58.47953216,,,,,,,,,,,,,,,,,,,,,,,306.2552,307.2716,l,1,0.3579,1,307.2716,307.7722,,,,,,360,MAS,NOWORD,DIS,150,cacer,,la,,0.3579,,307.7728,307.7732,-0.19047619,-0.246666667,0,0,0,,0,79,79,359,1,calor,,,
,,,,,,60daaa7f5ea36d3eff3c5709,676192165fb32c2e1fb7aee6,67d1558d740b22c52b1768e5,2025-03-12_03h40.33.427,Tarea de decisión léxica,2024.2.5,Win32,58.47953216,,,,,,,,,,,,,,,,,,,,,,,307.7736,308.8726,l,1,0.4252,1,308.8727,309.3732,,,,,,438,FEM,NOWORD,AGR,150,glava,,la,,0.4252,,309.3732,309.3732,-0.19047619,-0.246666667,0,0,0,,0,80,80,437,1,plaza,,,
,,,,,,60daaa7f5ea36d3eff3c5709,676192165fb32c2e1fb7aee6,67d1558d740b22c52b1768e5,2025-03-12_03h40.33.427,Tarea de decisión léxica,2024.2.5,Win32,58.47953216,,,,,,,,,,,,,,,,,,,,,,,309.3743,310.4241,l,1,0.3843,1,310.4243,310.9243,,,,,,450,FEM,NOWORD,AGR,150,crusa,,la,,0.3843,,310.9243,310.9244,-0.19047619,-0.246666667,0,0,0,,0,81,81,449,1,pluma,,,
,,,,,,60daaa7f5ea36d3eff3c5709,676192165fb32c2e1fb7aee6,67d1558d740b22c52b1768e5,2025-03-12_03h40.33.427,Tarea de decisión léxica,2024.2.5,Win32,58.47953216,,,,,,,,,,,,,,,,,,,,,,,310.925,312.1254,l,0,0.545,0,312.1258,312.6256,,,,,,313,MAS,WORD,AGR,150,novio,,el,,0.545,,312.6257,312.6257,-0.19047619,-0.246666667,0,0,0,,0,82,82,312,1,govio,,,
,,,,,,60daaa7f5ea36d3eff3c5709,676192165fb32c2e1fb7aee6,67d1558d740b22c52b1768e5,2025-03-12_03h40.33.427,Tarea de decisión léxica,2024.2.5,Win32,58.47953216,,,,,,,,,,,,,,,,,,,,,,,312.6263,314.0097,l,1,0.7314,1,314.0101,314.5108,,,,,,310,FEM,NOWORD,AGR,150,tirra,,la,,0.7314,,314.5116,314.5121,-0.19047619,-0.246666667,0,0,0,,0,83,83,309,1,silla,,,
,,,,,,60daaa7f5ea36d3eff3c5709,676192165fb32c2e1fb7aee6,67d1558d740b22c52b1768e5,2025-03-12_03h40.33.427,Tarea de decisión léxica,2024.2.5,Win32,58.47953216,,,,,,,,,,,,,,,,,,,,,,,314.5125,315.6111,l,1,0.4216,1,315.6112,316.1117,,,,,,188,MAS,NOWORD,DIS,150,suto,,la,,0.4216,,316.1117,316.1117,-0.19047619,-0.246666667,0,0,0,,0,84,84,187,1,mito,,,
,,,,,,60daaa7f5ea36d3eff3c5709,676192165fb32c2e1fb7aee6,67d1558d740b22c52b1768e5,2025-03-12_03h40.33.427,Tarea de decisión léxica,2024.2.5,Win32,58.47953216,,,,,,,,,,,,,,,,,,,,,,,316.1124,317.0628,l,1,0.2671,1,317.0629,317.5632,,,,,,50,FEM,NOWORD,AGR,150,ecat,,la,,0.2671,,317.5632,317.5633,-0.19047619,-0.246666667,0,0,0,,0,85,85,49,1,edad,,,
,,,,,,60daaa7f5ea36d3eff3c5709,676192165fb32c2e1fb7aee6,67d1558d740b22c52b1768e5,2025-03-12_03h40.33.427,Tarea de decisión léxica,2024.2.5,Win32,58.47953216,,,,,,,,,,,,,,,,,,,,,,,317.5639,318.4972,l,0,0.2576,0,318.4976,318.9972,,,,,,283,MAS,WORD,DIS,150,sueño,,la,,0.2576,,318.9972,318.9972,-0.19047619,-0.246666667,0,0,0,,0,86,86,282,1,tuevo,,,
,,,,,,60daaa7f5ea36d3eff3c5709,676192165fb32c2e1fb7aee6,67d1558d740b22c52b1768e5,2025-03-12_03h40.33.427,Tarea de decisión léxica,2024.2.5,Win32,58.47953216,,,,,,,,,,,,,,,,,,,,,,,318.9978,320.2817,l,1,0.6188,1,320.2826,320.7825,,,,,,54,FEM,NOWORD,AGR,150,rora,,la,,0.6188,,320.7825,320.7826,-0.19047619,-0.246666667,0,0,0,,0,87,87,53,1,boda,,,
,,,,,,60daaa7f5ea36d3eff3c5709,676192165fb32c2e1fb7aee6,67d1558d740b22c52b1768e5,2025-03-12_03h40.33.427,Tarea de decisión léxica,2024.2.5,Win32,58.47953216,,,,,,,,,,,,,,,,,,,,,,,320.7836,321.9995,a,1,0.5417,1,321.9995,322.5005,,,,,,217,MAS,WORD,AGR,150,luto,,el,,0.5417,,322.5012,322.5016,-0.19047619,-0.246666667,0,0,0,,0,88,88,216,1,budo,,,
,,,,,,60daaa7f5ea36d3eff3c5709,676192165fb32c2e1fb7aee6,67d1558d740b22c52b1768e5,2025-03-12_03h40.33.427,Tarea de decisión léxica,2024.2.5,Win32,58.47953216,,,,,,,,,,,,,,,,,,,,,,,322.502,323.6178,a,1,0.44,1,323.618,324.1182,,,,,,405,FEM,WORD,AGR,150,barra,,la,,0.44,,324.1183,324.1183,-0.19047619,-0.246666667,0,0,0,,0,89,89,404,1,rarra,,,
,,,,,,60daaa7f5ea36d3eff3c5709,676192165fb32c2e1fb7aee6,67d1558d740b22c52b1768e5,2025-03-12_03h40.33.427,Tarea de decisión léxica,2024.2.5,Win32,58.47953216,,,,,,,,,,,,,,,,,,,,,,,324.119,325.2189,a,1,0.4221,1,325.2189,325.7198,,,,,,365,FEM,WORD,AGR,150,ducha,,la,,0.4221,,325.7199,325.7199,-0.19047619,-0.246666667,0,0,0,,0,90,90,364,1,gulla,,,
,,,,,,60daaa7f5ea36d3eff3c5709,676192165fb32c2e1fb7aee6,67d1558d740b22c52b1768e5,2025-03-12_03h40.33.427,Tarea de decisión léxica,2024.2.5,Win32,58.47953216,,,,,,,,,,,,,,,,,,,,,,,325.7213,326.8865,l,1,0.4843,1,326.8866,327.3869,,,,,,432,MAS,NOWORD,DIS,150,tetor,,la,,0.4843,,327.387,327.387,-0.19047619,-0.246666667,0,0,0,,0,91,91,431,1,motor,,,
,,,,,,60daaa7f5ea36d3eff3c5709,676192165fb32c2e1fb7aee6,67d1558d740b22c52b1768e5,2025-03-12_03h40.33.427,Tarea de decisión léxica,2024.2.5,Win32,58.47953216,,,,,,,,,,,,,,,,,,,,,,,327.388,328.5879,l,1,0.5445,1,328.5879,329.088,,,,,,32,FEM,NOWORD,DIS,150,bova,,el,,0.5445,,329.0881,329.0881,-0.19047619,-0.246666667,0,0,0,,0,92,92,31,1,ropa,,,
,,,,,,60daaa7f5ea36d3eff3c5709,676192165fb32c2e1fb7aee6,67d1558d740b22c52b1768e5,2025-03-12_03h40.33.427,Tarea de decisión léxica,2024.2.5,Win32,58.47953216,,,,,,,,,,,,,,,,,,,,,,,329.089,330.1061,l,1,0.3495,1,330.1062,330.6063,,,,,,388,FEM,NOWORD,DIS,150,bresa,,el,,0.3495,,330.607,330.6074,-0.19047619,-0.246666667,0,0,0,,0,93,93,387,1,crema,,,
,,,,,,60daaa7f5ea36d3eff3c5709,676192165fb32c2e1fb7aee6,67d1558d740b22c52b1768e5,2025-03-12_03h40.33.427,Tarea de decisión léxica,2024.2.5,Win32,58.47953216,,,,,,,,,,,,,,,,,,,,,,,330.6079,331.6901,a,1,0.4133,1,331.6902,332.1908,,,,,,329,MAS,WORD,AGR,150,hueso,,el,,0.4133,,332.1909,332.1909,-0.19047619,-0.246666667,0,0,0,,0,94,94,328,1,nueno,,,
,,,,,,60daaa7f5ea36d3eff3c5709,676192165fb32c2e1fb7aee6,67d1558d740b22c52b1768e5,2025-03-12_03h40.33.427,Tarea de decisión léxica,2024.2.5,Win32,58.47953216,,,,,,,,,,,,,,,,,,,,,,,332.1915,333.2579,a,1,0.4139,1,333.2581,333.7585,,,,,,127,MAS,WORD,DIS,150,pico,,la,,0.4139,,333.7586,333.7586,-0.19047619,-0.246666667,0,0,0,,0,95,95,126,1,itio,,,
,,,,,,60daaa7f5ea36d3eff3c5709,676192165fb32c2e1fb7aee6,67d1558d740b22c52b1768e5,2025-03-12_03h40.33.427,Tarea de decisión léxica,2024.2.5,Win32,58.47953216,,,,,,,,,,,,,,,,,,,,,,,333.7592,334.8424,l,0,0.4294,0,334.8428,335.3428,,,,,,287,FEM,WORD,DIS,150,lista,,el,,0.4294,,335.3429,335.3429,-0.19047619,-0.246666667,0,0,0,,0,96,96,286,1,fosta,,,
,,,,,,60daaa7f5ea36d3eff3c5709,676192165fb32c2e1fb7aee6,67d1558d740b22c52b1768e5,2025-03-12_03h40.33.427,Tarea de decisión léxica,2024.2.5,Win32,58.47953216,,,,,,,,,,,,,,,,,,,,,,,335.3434,336.5103,a,1,0.4918,1,336.5107,337.0109,,,,,,453,FEM,WORD,AGR,150,mafia,,la,,0.4918,,337.011,337.011,-0.19047619,-0.246666667,0,0,0,,0,97,97,452,1,pafia,,,
,,,,,,60daaa7f5ea36d3eff3c5709,676192165fb32c2e1fb7aee6,67d1558d740b22c52b1768e5,2025-03-12_03h40.33.427,Tarea de decisión léxica,2024.2.5,Win32,58.47953216,,,,,,,,,,,,,,,,,,,,,,,337.0117,338.1452,l,1,0.4809,1,338.1452,338.646,,,,,,44,FEM,NOWORD,DIS,150,meda,,el,,0.4809,,338.6472,338.6478,-0.19047619,-0.246666667,0,0,0,,0,98,98,43,1,pena,,,
,,,,,,60daaa7f5ea36d3eff3c5709,676192165fb32c2e1fb7aee6,67d1558d740b22c52b1768e5,2025-03-12_03h40.33.427,Tarea de decisión léxica,2024.2.5,Win32,58.47953216,,,,,,,,,,,,,,,,,,,,,,,338.6483,339.8638,a,1,0.5344,1,339.8639,340.3639,,,,,,351,MAS,WORD,DIS,150,vuelo,,la,,0.5344,,340.3639,340.364,-0.19047619,-0.246666667,0,0,0,,0,99,99,350,1,duepo,,,
,,,,,,60daaa7f5ea36d3eff3c5709,676192165fb32c2e1fb7aee6,67d1558d740b22c52b1768e5,2025-03-12_03h40.33.427,Tarea de decisión léxica,2024.2.5,Win32,58.47953216,,,,,,,,,,,,,,,,,,,,,,,340.3645,341.3647,a,1,0.3354,1,341.3648,341.8648,,,,,,337,MAS,WORD,AGR,150,huevo,,el,,0.3354,,341.8649,341.8649,-0.19047619,-0.246666667,0,0,0,,0,100,100,336,1,nuejo,,,
,,,,,,60daaa7f5ea36d3eff3c5709,676192165fb32c2e1fb7aee6,67d1558d740b22c52b1768e5,2025-03-12_03h40.33.427,Tarea de decisión léxica,2024.2.5,Win32,58.47953216,,,,,,,,,,,,,,,,,,,,,,,341.8659,342.9657,l,1,0.4197,1,342.9658,343.4663,,,,,,174,FEM,NOWORD,AGR,150,boma,,la,,0.4197,,343.4663,343.4664,-0.19047619,-0.246666667,0,0,0,,0,101,101,173,1,rosa,,,
,,,,,,60daaa7f5ea36d3eff3c5709,676192165fb32c2e1fb7aee6,67d1558d740b22c52b1768e5,2025-03-12_03h40.33.427,Tarea de decisión léxica,2024.2.5,Win32,58.47953216,,,,,,,,,,,,,,,,,,,,,,,343.4672,344.8174,a,0,0.6686,0,344.8182,345.3169,,,,,,128,MAS,NOWORD,DIS,150,itio,,la,,0.6686,,345.3169,345.317,-0.19047619,-0.246666667,0,0,0,,0,102,102,127,1,pico,,,
,,,,,,60daaa7f5ea36d3eff3c5709,676192165fb32c2e1fb7aee6,67d1558d740b22c52b1768e5,2025-03-12_03h40.33.427,Tarea de decisión léxica,2024.2.5,Win32,58.47953216,,,,,,,,,,,,,,,,,,,,,,,345.3178,346.6012,a,1,0.6306,1,346.6016,347.1017,,,,,,183,FEM,WORD,DIS,150,raya,,el,,0.6306,,347.1027,347.1035,-0.19047619,-0.246666667,0,0,0,,0,103,103,182,1,raad,,,
,,,,,,60daaa7f5ea36d3eff3c5709,676192165fb32c2e1fb7aee6,67d1558d740b22c52b1768e5,2025-03-12_03h40.33.427,Tarea de decisión léxica,2024.2.5,Win32,58.47953216,,,,,,,,,,,,,,,,,,,,,,,347.1042,348.2866,a,1,0.5093,1,348.2868,348.7869,,,,,,319,MAS,WORD,DIS,150,suelo,,la,,0.5093,,348.787,348.787,-0.19047619,-0.246666667,0,0,0,,0,104,104,318,1,tuero,,,
,,,,,,60daaa7f5ea36d3eff3c5709,676192165fb32c2e1fb7aee6,67d1558d740b22c52b1768e5,2025-03-12_03h40.33.427,Tarea de decisión léxica,2024.2.5,Win32,58.47953216,,,,,,,,,,,,,,,,,,,,,,,348.7881,349.938,l,1,0.4724,1,349.9381,350.4382,,,,,,476,FEM,NOWORD,DIS,150,mucta,,el,,0.4724,,350.4382,350.4384,-0.19047619,-0.246666667,0,0,0,,0,105,105,475,1,manta,,,
,,,,,,60daaa7f5ea36d3eff3c5709,676192165fb32c2e1fb7aee6,67d1558d740b22c52b1768e5,2025-03-12_03h40.33.427,Tarea de decisión léxica,2024.2.5,Win32,58.47953216,,,,,,,,,,,,,,,,,,,,,,,350.4394,351.7059,l,1,0.5836,1,351.7061,352.2064,,,,,,408,FEM,NOWORD,DIS,150,cauba,,el,,0.5836,,352.2065,352.2065,-0.19047619,-0.246666667,0,0,0,,0,106,106,407,1,cueva,,,
,,,,,,60daaa7f5ea36d3eff3c5709,676192165fb32c2e1fb7aee6,67d1558d740b22c52b1768e5,2025-03-12_03h40.33.427,Tarea de decisión léxica,2024.2.5,Win32,58.47953216,,,,,,,,,,,,,,,,,,,,,,,352.2076,353.3069,a,1,0.4208,1,353.3069,353.807,,,,,,121,MAS,WORD,AGR,150,hoyo,,el,,0.4208,,353.8076,353.8081,-0.19047619,-0.246666667,0,0,0,,0,107,107,120,1,bomo,,,
,,,,,,60daaa7f5ea36d3eff3c5709,676192165fb32c2e1fb7aee6,67d1558d740b22c52b1768e5,2025-03-12_03h40.33.427,Tarea de decisión léxica,2024.2.5,Win32,58.47953216,,,,,,,,,,,,,,,,,,,,,,,353.8086,354.9745,l,1,0.4829,1,354.9745,355.4752,,,,,,284,MAS,NOWORD,DIS,150,tuevo,,la,,0.4829,,355.4753,355.4754,-0.19047619,-0.246666667,0,0,0,,0,108,108,283,1,sueño,,,
,,,,,,60daaa7f5ea36d3eff3c5709,676192165fb32c2e1fb7aee6,67d1558d740b22c52b1768e5,2025-03-12_03h40.33.427,Tarea de decisión léxica,2024.2.5,Win32,58.47953216,,,,,,,,,,,,,,,,,,,,,,,355.4766,356.8093,a,1,0.666,1,356.8094,357.3099,,,,,,195,FEM,WORD,DIS,150,tela,,el,,0.666,,357.3101,357.3102,-0.19047619,-0.246666667,0,0,0,,0,109,109,194,1,sira,,,
,,,,,,60daaa7f5ea36d3eff3c5709,676192165fb32c2e1fb7aee6,67d1558d740b22c52b1768e5,2025-03-12_03h40.33.427,Tarea de decisión léxica,2024.2.5,Win32,58.47953216,,,,,,,,,,,,,,,,,,,,,,,357.3112,358.4771,l,1,0.4918,1,358.4772,358.9784,,,,,,304,MAS,NOWORD,DIS,150,lanco,,la,,0.4918,,358.9784,358.9785,-0.19047619,-0.246666667,0,0,0,,0,110,110,303,1,barco,,,
,,,,,,60daaa7f5ea36d3eff3c5709,676192165fb32c2e1fb7aee6,67d1558d740b22c52b1768e5,2025-03-12_03h40.33.427,Tarea de decisión léxica,2024.2.5,Win32,58.47953216,,,,,,,,,,,,,,,,,,,,,,,358.9795,360.1449,a,0,0.488,0,360.1453,360.6457,,,,,,270,MAS,NOWORD,AGR,150,mello,,el,,0.488,,360.6458,360.6458,-0.19047619,-0.246666667,0,0,0,,0,111,111,269,1,perro,,,
,,,,,,60daaa7f5ea36d3eff3c5709,676192165fb32c2e1fb7aee6,67d1558d740b22c52b1768e5,2025-03-12_03h40.33.427,Tarea de decisión léxica,2024.2.5,Win32,58.47953216,,,,,,,,,,,,,,,,,,,,,,,360.6468,361.7965,l,1,0.47,1,361.7969,362.2968,,,,,,364,FEM,NOWORD,DIS,150,veida,,el,,0.47,,362.2976,362.2984,-0.19047619,-0.246666667,0,0,0,,0,112,112,363,1,deuda,,,
,,,,,,60daaa7f5ea36d3eff3c5709,676192165fb32c2e1fb7aee6,67d1558d740b22c52b1768e5,2025-03-12_03h40.33.427,Tarea de decisión léxica,2024.2.5,Win32,58.47953216,,,,,,,,,,,,,,,,,,,,,,,362.299,363.381,a,1,0.4107,1,363.3811,363.8819,,,,,,347,FEM,WORD,DIS,150,pieza,,el,,0.4107,,363.8819,363.882,-0.19047619,-0.246666667,0,0,0,,0,113,113,346,1,mueza,,,
,,,,,,60daaa7f5ea36d3eff3c5709,676192165fb32c2e1fb7aee6,67d1558d740b22c52b1768e5,2025-03-12_03h40.33.427,Tarea de decisión léxica,2024.2.5,Win32,58.47953216,,,,,,,,,,,,,,,,,,,,,,,363.883,365.0326,a,1,0.4673,1,365.0326,365.5326,,,,,,251,MAS,WORD,DIS,150,señor,,la,,0.4673,,365.5327,365.5327,-0.19047619,-0.246666667,0,0,0,,0,114,114,250,1,refor,,,
,,,,,,60daaa7f5ea36d3eff3c5709,676192165fb32c2e1fb7aee6,67d1558d740b22c52b1768e5,2025-03-12_03h40.33.427,Tarea de decisión léxica,2024.2.5,Win32,58.47953216,,,,,,,,,,,,,,,,,,,,,,,365.5333,366.9171,l,1,0.7096,1,366.9171,367.4172,,,,,,156,FEM,NOWORD,DIS,150,luma,,el,,0.7096,,367.4173,367.4173,-0.19047619,-0.246666667,0,0,0,,0,115,115,155,1,fuga,,,
,,,,,,60daaa7f5ea36d3eff3c5709,676192165fb32c2e1fb7aee6,67d1558d740b22c52b1768e5,2025-03-12_03h40.33.427,Tarea de decisión léxica,2024.2.5,Win32,58.47953216,,,,,,,,,,,,,,,,,,,,,,,367.4179,368.6681,l,1,0.5856,1,368.6682,369.1691,,,,,,420,MAS,NOWORD,DIS,150,chudo,,la,,0.5856,,369.1692,369.1693,-0.19047619,-0.246666667,0,0,0,,0,116,116,419,1,truco,,,
,,,,,,60daaa7f5ea36d3eff3c5709,676192165fb32c2e1fb7aee6,67d1558d740b22c52b1768e5,2025-03-12_03h40.33.427,Tarea de decisión léxica,2024.2.5,Win32,58.47953216,,,,,,,,,,,,,,,,,,,,,,,369.1703,370.5031,l,1,0.6589,1,370.5031,371.0037,,,,,,372,FEM,NOWORD,DIS,150,mosta,,el,,0.6589,,371.0043,371.0048,-0.19047619,-0.246666667,0,0,0,,0,117,117,371,1,pasta,,,
,,,,,,60daaa7f5ea36d3eff3c5709,676192165fb32c2e1fb7aee6,67d1558d740b22c52b1768e5,2025-03-12_03h40.33.427,Tarea de decisión léxica,2024.2.5,Win32,58.47953216,,,,,,,,,,,,,,,,,,,,,,,371.0051,372.1547,a,1,0.4706,1,372.1548,372.6548,,,,,,229,MAS,WORD,AGR,150,amor,,el,,0.4706,,372.6549,372.655,-0.19047619,-0.246666667,0,0,0,,0,118,118,228,1,ador,,,
,,,,,,60daaa7f5ea36d3eff3c5709,676192165fb32c2e1fb7aee6,67d1558d740b22c52b1768e5,2025-03-12_03h40.33.427,Tarea de decisión léxica,2024.2.5,Win32,58.47953216,,,,,,,,,,,,,,,,,,,,,,,372.6559,373.7055,l,1,0.3804,1,373.7055,374.206,,,,,,226,MAS,NOWORD,AGR,150,boco,,el,,0.3804,,374.2061,374.2063,-0.19047619,-0.246666667,0,0,0,,0,119,119,225,1,lodo,,,
,,,,,,60daaa7f5ea36d3eff3c5709,676192165fb32c2e1fb7aee6,67d1558d740b22c52b1768e5,2025-03-12_03h40.33.427,Tarea de decisión léxica,2024.2.5,Win32,58.47953216,,,,,,,,,,,,,,,,,,,,,,,374.207,375.3907,l,1,0.5085,1,375.3908,375.8908,,,,,,462,FEM,NOWORD,AGR,150,pagra,,la,,0.5085,,375.8909,375.891,-0.19047619,-0.246666667,0,0,0,,0,120,120,461,1,tabla,,,
,,,,,,60daaa7f5ea36d3eff3c5709,676192165fb32c2e1fb7aee6,67d1558d740b22c52b1768e5,2025-03-12_03h40.33.427,Tarea de decisión léxica,2024.2.5,Win32,58.47953216,,,,,,,,,,,,,,,,,,,,,,,375.892,377.0085,l,1,0.4405,1,377.0086,377.5084,,,,,,132,FEM,NOWORD,DIS,150,fada,,el,,0.4405,,377.5085,377.5085,-0.19047619,-0.246666667,0,0,0,,0,121,121,131,1,mina,,,
,,,,,,60daaa7f5ea36d3eff3c5709,676192165fb32c2e1fb7aee6,67d1558d740b22c52b1768e5,2025-03-12_03h40.33.427,Tarea de decisión léxica,2024.2.5,Win32,58.47953216,,,,,,,,,,,,,,,,,,,,,,,377.5096,378.5599,l,1,0.3822,1,378.56,379.06,,,,,,100,MAS,NOWORD,DIS,150,soro,,la,,0.3822,,379.061,379.0618,-0.19047619,-0.246666667,0,0,0,,0,122,122,99,1,lobo,,,
,,,,,,60daaa7f5ea36d3eff3c5709,676192165fb32c2e1fb7aee6,67d1558d740b22c52b1768e5,2025-03-12_03h40.33.427,Tarea de decisión léxica,2024.2.5,Win32,58.47953216,,,,,,,,,,,,,,,,,,,,,,,379.0623,380.2104,a,1,0.4716,1,380.2106,380.7108,,,,,,79,FEM,WORD,DIS,150,piel,,el,,0.4716,,380.7108,380.7109,-0.19047619,-0.246666667,0,0,0,,0,123,123,78,1,ciel,,,
,,,,,,60daaa7f5ea36d3eff3c5709,676192165fb32c2e1fb7aee6,67d1558d740b22c52b1768e5,2025-03-12_03h40.33.427,Tarea de decisión léxica,2024.2.5,Win32,58.47953216,,,,,,,,,,,,,,,,,,,,,,,380.7118,381.795,a,1,0.4281,1,381.7951,382.2952,,,,,,17,FEM,WORD,AGR,150,mamá,,la,,0.4281,,382.2952,382.2953,-0.19047619,-0.246666667,0,0,0,,0,124,124,16,1,paba,,,
,,,,,,60daaa7f5ea36d3eff3c5709,676192165fb32c2e1fb7aee6,67d1558d740b22c52b1768e5,2025-03-12_03h40.33.427,Tarea de decisión léxica,2024.2.5,Win32,58.47953216,,,,,,,,,,,,,,,,,,,,,,,382.2958,383.5127,l,1,0.5636,1,383.5127,384.0133,,,,,,88,MAS,NOWORD,DIS,150,damo,,la,,0.5636,,384.0135,384.0135,-0.19047619,-0.246666667,0,0,0,,0,125,125,87,1,vaso,,,
,,,,,,60daaa7f5ea36d3eff3c5709,676192165fb32c2e1fb7aee6,67d1558d740b22c52b1768e5,2025-03-12_03h40.33.427,Tarea de decisión léxica,2024.2.5,Win32,58.47953216,,,,,,,,,,,,,,,,,,,,,,,384.014,385.1477,l,1,0.4764,1,385.1477,385.6479,,,,,,440,FEM,NOWORD,DIS,150,prema,,el,,0.4764,,385.648,385.648,-0.19047619,-0.246666667,0,0,0,,0,126,126,439,1,presa,,,
,,,,,,60daaa7f5ea36d3eff3c5709,676192165fb32c2e1fb7aee6,67d1558d740b22c52b1768e5,2025-03-12_03h40.33.427,Tarea de decisión léxica,2024.2.5,Win32,58.47953216,,,,,,,,,,,,,,,,,,,,,,,385.6491,386.6494,l,1,0.3326,1,386.6494,387.1491,,,,,,370,MAS,NOWORD,AGR,150,rioco,,el,,0.3326,,387.1498,387.1506,-0.19047619,-0.246666667,0,0,0,,0,127,127,369,1,ruido,,,
,,,,,,60daaa7f5ea36d3eff3c5709,676192165fb32c2e1fb7aee6,67d1558d740b22c52b1768e5,2025-03-12_03h40.33.427,Tarea de decisión léxica,2024.2.5,Win32,58.47953216,,,,,,,,,,,,,,,,,,,,,,,387.151,388.2332,a,1,0.4055,1,388.2333,388.7343,,,,,,291,FEM,WORD,DIS,150,pista,,el,,0.4055,,388.7343,388.7344,-0.19047619,-0.246666667,0,0,0,,0,128,128,290,1,mesta,,,
,,,,,,60daaa7f5ea36d3eff3c5709,676192165fb32c2e1fb7aee6,67d1558d740b22c52b1768e5,2025-03-12_03h40.33.427,Tarea de decisión léxica,2024.2.5,Win32,58.47953216,,,,,,,,,,,,,,,,,,,,,,,388.735,389.8849,a,1,0.4689,1,389.8851,390.3854,,,,,,167,FEM,WORD,DIS,150,jefa,,el,,0.4689,,390.3855,390.3855,-0.19047619,-0.246666667,0,0,0,,0,129,129,166,1,zifa,,,
,,,,,,60daaa7f5ea36d3eff3c5709,676192165fb32c2e1fb7aee6,67d1558d740b22c52b1768e5,2025-03-12_03h40.33.427,Tarea de decisión léxica,2024.2.5,Win32,58.47953216,,,,,,,,,,,,,,,,,,,,,,,390.3866,391.5523,l,0,0.4899,0,391.5528,392.053,,,,,,191,FEM,WORD,DIS,150,pila,,el,,0.4899,,392.053,392.0532,-0.19047619,-0.246666667,0,0,0,,0,130,130,190,1,bila,,,
,,,,,,60daaa7f5ea36d3eff3c5709,676192165fb32c2e1fb7aee6,67d1558d740b22c52b1768e5,2025-03-12_03h40.33.427,Tarea de decisión léxica,2024.2.5,Win32,58.47953216,,,,,,,,,,,,,,,,,,,,,,,392.054,393.1537,a,1,0.4208,1,393.1545,393.6547,,,,,,55,MAS,WORD,DIS,150,gato,,la,,0.4208,,393.6554,393.6558,-0.19047619,-0.246666667,0,0,0,,0,131,131,54,1,jado,,,
,,,,,,60daaa7f5ea36d3eff3c5709,676192165fb32c2e1fb7aee6,67d1558d740b22c52b1768e5,2025-03-12_03h40.33.427,Tarea de decisión léxica,2024.2.5,Win32,58.47953216,,,,,,,,,,,,,,,,,,,,,,,393.6562,394.7886,a,1,0.4516,1,394.7888,395.2891,,,,,,415,FEM,WORD,DIS,150,jaula,,el,,0.4516,,395.2891,395.2892,-0.19047619,-0.246666667,0,0,0,,0,132,132,414,1,juira,,,
,,,,,,60daaa7f5ea36d3eff3c5709,676192165fb32c2e1fb7aee6,67d1558d740b22c52b1768e5,2025-03-12_03h40.33.427,Tarea de decisión léxica,2024.2.5,Win32,58.47953216,,,,,,,,,,,,,,,,,,,,,,,395.2906,396.4059,a,1,0.4341,1,396.406,396.9065,,,,,,235,FEM,WORD,DIS,150,grúa,,el,,0.4341,,396.9065,396.9066,-0.19047619,-0.246666667,0,0,0,,0,133,133,234,1,tria,,,
,,,,,,60daaa7f5ea36d3eff3c5709,676192165fb32c2e1fb7aee6,67d1558d740b22c52b1768e5,2025-03-12_03h40.33.427,Tarea de decisión léxica,2024.2.5,Win32,58.47953216,,,,,,,,,,,,,,,,,,,,,,,396.9072,397.958,a,1,0.3854,1,397.958,398.4578,,,,,,111,MAS,WORD,DIS,150,muro,,la,,0.3854,,398.4579,398.458,-0.19047619,-0.246666667,0,0,0,,0,134,134,110,1,siro,,,
,,,,,,60daaa7f5ea36d3eff3c5709,676192165fb32c2e1fb7aee6,67d1558d740b22c52b1768e5,2025-03-12_03h40.33.427,Tarea de decisión léxica,2024.2.5,Win32,58.47953216,,,,,,,,,,,,,,,,,,,,,,,398.459,399.4251,a,1,0.3044,1,399.4252,399.9259,,,,,,301,FEM,WORD,AGR,150,banda,,la,,0.3044,,399.926,399.926,-0.19047619,-0.246666667,0,0,0,,0,135,135,300,1,ranga,,,
,,,,,,60daaa7f5ea36d3eff3c5709,676192165fb32c2e1fb7aee6,67d1558d740b22c52b1768e5,2025-03-12_03h40.33.427,Tarea de decisión léxica,2024.2.5,Win32,58.47953216,,,,,,,,,,,,,,,,,,,,,,,399.9269,401.0434,a,1,0.4354,1,401.0436,401.5438,,,,,,197,MAS,WORD,AGR,150,bate,,el,,0.4354,,401.5448,401.5455,-0.19047619,-0.246666667,0,0,0,,0,136,136,196,1,dade,,,
,,,,,,60daaa7f5ea36d3eff3c5709,676192165fb32c2e1fb7aee6,67d1558d740b22c52b1768e5,2025-03-12_03h40.33.427,Tarea de decisión léxica,2024.2.5,Win32,58.47953216,,,,,,,,,,,,,,,,,,,,,,,401.5463,402.7442,l,1,0.5216,1,402.7442,403.2447,,,,,,4,FEM,NOWORD,DIS,150,dica,,el,,0.5216,,403.2448,403.2449,-0.19047619,-0.246666667,0,0,0,,0,137,137,3,1,vida,,,
,,,,,,60daaa7f5ea36d3eff3c5709,676192165fb32c2e1fb7aee6,67d1558d740b22c52b1768e5,2025-03-12_03h40.33.427,Tarea de decisión léxica,2024.2.5,Win32,58.47953216,,,,,,,,,,,,,,,,,,,,,,,403.2459,404.3625,a,1,0.4375,1,404.3626,404.8628,,,,,,95,FEM,WORD,DIS,151,moda,,el,,0.4375,,404.8629,404.8629,-0.19047619,-0.246666667,0,0,0,,0,138,138,94,1,neda,,,
,,,,,,60daaa7f5ea36d3eff3c5709,676192165fb32c2e1fb7aee6,67d1558d740b22c52b1768e5,2025-03-12_03h40.33.427,Tarea de decisión léxica,2024.2.5,Win32,58.47953216,,,,,,,,,,,,,,,,,,,,,,,404.8635,406.0635,l,1,0.5185,1,406.0635,406.5639,,,,,,52,FEM,NOWORD,DIS,150,mava,,el,,0.5185,,406.5639,406.564,-0.19047619,-0.246666667,0,0,0,,0,139,139,51,1,caja,,,
,,,,,,60daaa7f5ea36d3eff3c5709,676192165fb32c2e1fb7aee6,67d1558d740b22c52b1768e5,2025-03-12_03h40.33.427,Tarea de decisión léxica,2024.2.5,Win32,58.47953216,,,,,,,,,,,,,,,,,,,,,,,406.5646,407.615,a,1,0.3836,1,407.6151,408.1158,,,,,,395,FEM,WORD,DIS,150,caída,,el,,0.3836,,408.1159,408.1159,-0.19047619,-0.246666667,0,0,0,,0,140,140,394,1,paeda,,,
,,,,,,60daaa7f5ea36d3eff3c5709,676192165fb32c2e1fb7aee6,67d1558d740b22c52b1768e5,2025-03-12_03h40.33.427,Tarea de decisión léxica,2024.2.5,Win32,58.47953216,,,,,,,,,,,,,,,,,,,,,,,408.1168,409.2329,l,1,0.4327,1,409.233,409.7328,,,,,,122,MAS,NOWORD,AGR,150,bomo,,el,,0.4327,,409.7334,409.7338,-0.19047619,-0.246666667,0,0,0,,0,141,141,121,1,hoyo,,,
,,,,,,60daaa7f5ea36d3eff3c5709,676192165fb32c2e1fb7aee6,67d1558d740b22c52b1768e5,2025-03-12_03h40.33.427,Tarea de decisión léxica,2024.2.5,Win32,58.47953216,,,,,,,,,,,,,,,,,,,,,,,409.7343,411.0006,l,1,0.5964,1,411.0006,411.5011,,,,,,398,FEM,NOWORD,AGR,150,trigi,,la,,0.5964,,411.5012,411.5013,-0.19047619,-0.246666667,0,0,0,,0,142,142,397,1,tribu,,,
,,,,,,60daaa7f5ea36d3eff3c5709,676192165fb32c2e1fb7aee6,67d1558d740b22c52b1768e5,2025-03-12_03h40.33.427,Tarea de decisión léxica,2024.2.5,Win32,58.47953216,,,,,,,,,,,,,,,,,,,,,,,411.5022,412.5684,a,1,0.3902,1,412.5684,413.0687,,,,,,123,FEM,WORD,DIS,150,flor,,el,,0.3902,,413.0687,413.0688,-0.19047619,-0.246666667,0,0,0,,0,143,143,122,1,maba,,,
,,,,,,60daaa7f5ea36d3eff3c5709,676192165fb32c2e1fb7aee6,67d1558d740b22c52b1768e5,2025-03-12_03h40.33.427,Tarea de decisión léxica,2024.2.5,Win32,58.47953216,,,,,,,,,,,,,,,,,,,,,,,413.0694,414.3031,l,1,0.5741,1,414.3031,414.8042,,,,,,346,FEM,NOWORD,AGR,150,anera,,la,,0.5741,,414.8043,414.8044,-0.19047619,-0.246666667,0,0,0,,0,144,144,345,1,arena,,,
,,,,,,60daaa7f5ea36d3eff3c5709,676192165fb32c2e1fb7aee6,67d1558d740b22c52b1768e5,2025-03-12_03h40.33.427,Tarea de decisión léxica,2024.2.5,Win32,58.47953216,,,,,,,,,,,,,,,,,,,,,,,414.8049,415.9714,a,1,0.4862,1,415.9715,416.472,,,,,,141,FEM,WORD,AGR,150,cruz,,la,,0.4862,,416.472,416.472,-0.19047619,-0.246666667,0,0,0,,0,145,145,140,1,sina,,,
,,,,,,60daaa7f5ea36d3eff3c5709,676192165fb32c2e1fb7aee6,67d1558d740b22c52b1768e5,2025-03-12_03h40.33.427,Tarea de decisión léxica,2024.2.5,Win32,58.47953216,,,,,,,,,,,,,,,,,,,,,,,416.4731,417.5727,a,1,0.4259,1,417.5728,418.0725,,,,,,297,MAS,WORD,AGR,150,grupo,,el,,0.4259,,418.0733,418.0741,-0.19047619,-0.246666667,0,0,0,,0,146,146,296,1,brubo,,,
,,,,,,60daaa7f5ea36d3eff3c5709,676192165fb32c2e1fb7aee6,67d1558d740b22c52b1768e5,2025-03-12_03h40.33.427,Tarea de decisión léxica,2024.2.5,Win32,58.47953216,,,,,,,,,,,,,,,,,,,,,,,418.0748,419.2404,a,1,0.4984,1,419.2405,419.741,,,,,,421,MAS,WORD,AGR,150,primo,,el,,0.4984,,419.741,419.7412,-0.19047619,-0.246666667,0,0,0,,0,147,147,420,1,griso,,,
,,,,,,60daaa7f5ea36d3eff3c5709,676192165fb32c2e1fb7aee6,67d1558d740b22c52b1768e5,2025-03-12_03h40.33.427,Tarea de decisión léxica,2024.2.5,Win32,58.47953216,,,,,,,,,,,,,,,,,,,,,,,419.7423,420.9587,a,1,0.5404,1,420.9588,421.459,,,,,,423,MAS,WORD,DIS,150,queso,,la,,0.5404,,421.4591,421.4592,-0.19047619,-0.246666667,0,0,0,,0,148,148,422,1,quigo,,,
,,,,,,60daaa7f5ea36d3eff3c5709,676192165fb32c2e1fb7aee6,67d1558d740b22c52b1768e5,2025-03-12_03h40.33.427,Tarea de decisión léxica,2024.2.5,Win32,58.47953216,,,,,,,,,,,,,,,,,,,,,,,421.4597,422.693,l,1,0.5509,1,422.693,423.1934,,,,,,308,MAS,NOWORD,DIS,150,holol,,la,,0.5509,,423.1934,423.1935,-0.19047619,-0.246666667,0,0,0,,0,149,149,307,1,hotel,,,
,,,,,,60daaa7f5ea36d3eff3c5709,676192165fb32c2e1fb7aee6,67d1558d740b22c52b1768e5,2025-03-12_03h40.33.427,Tarea de decisión léxica,2024.2.5,Win32,58.47953216,,,,,,,,,,,,,,,,,,,,,,,423.1946,424.311,a,0,0.4566,0,424.3114,424.8109,,,,,,58,MAS,NOWORD,AGR,150,heco,,el,,0.4566,,424.811,424.8111,-0.19047619,-0.246666667,0,0,0,,0,150,150,57,1,dedo,,,
,,,,,,60daaa7f5ea36d3eff3c5709,676192165fb32c2e1fb7aee6,67d1558d740b22c52b1768e5,2025-03-12_03h40.33.427,Tarea de decisión léxica,2024.2.5,Win32,58.47953216,,,,,,,,,,,,,,,,,,,,,,,424.8117,426.2626,l,1,0.7841,1,426.2635,426.7631,,,,,,10,MAS,NOWORD,AGR,150,sibo,,el,,0.7841,,426.7637,426.7641,-0.19047619,-0.246666667,0,0,0,,0,151,151,9,1,tipo,,,
,,,,,,60daaa7f5ea36d3eff3c5709,676192165fb32c2e1fb7aee6,67d1558d740b22c52b1768e5,2025-03-12_03h40.33.427,Tarea de decisión léxica,2024.2.5,Win32,58.47953216,,,,,,,,,,,,,,,,,,,,,,,426.7645,427.9302,a,1,0.4936,1,427.9302,428.4312,,,,,,345,FEM,WORD,AGR,150,arena,,la,,0.4936,,428.4314,428.4314,-0.19047619,-0.246666667,0,0,0,,0,152,152,344,1,anera,,,
,,,,,,60daaa7f5ea36d3eff3c5709,676192165fb32c2e1fb7aee6,67d1558d740b22c52b1768e5,2025-03-12_03h40.33.427,Tarea de decisión léxica,2024.2.5,Win32,58.47953216,,,,,,,,,,,,,,,,,,,,,,,428.4324,429.5819,l,1,0.4754,1,429.5819,430.0819,,,,,,130,MAS,NOWORD,AGR,150,pima,,el,,0.4754,,430.082,430.0821,-0.19047619,-0.246666667,0,0,0,,0,153,153,129,1,oído,,,
,,,,,,60daaa7f5ea36d3eff3c5709,676192165fb32c2e1fb7aee6,67d1558d740b22c52b1768e5,2025-03-12_03h40.33.427,Tarea de decisión léxica,2024.2.5,Win32,58.47953216,,,,,,,,,,,,,,,,,,,,,,,430.0828,431.0661,l,1,0.3119,1,431.0661,431.5663,,,,,,288,FEM,NOWORD,DIS,150,fosta,,el,,0.3119,,431.5663,431.5664,-0.19047619,-0.246666667,0,0,0,,0,154,154,287,1,lista,,,
,,,,,,60daaa7f5ea36d3eff3c5709,676192165fb32c2e1fb7aee6,67d1558d740b22c52b1768e5,2025-03-12_03h40.33.427,Tarea de decisión léxica,2024.2.5,Win32,58.47953216,,,,,,,,,,,,,,,,,,,,,,,431.5669,432.6001,l,0,0.3634,0,432.6005,433.1011,,,,,,317,FEM,WORD,AGR,150,playa,,la,,0.3634,,433.1017,433.1022,-0.19047619,-0.246666667,0,0,0,,0,155,155,316,1,plaad,,,
,,,,,,60daaa7f5ea36d3eff3c5709,676192165fb32c2e1fb7aee6,67d1558d740b22c52b1768e5,2025-03-12_03h40.33.427,Tarea de decisión léxica,2024.2.5,Win32,58.47953216,,,,,,,,,,,,,,,,,,,,,,,433.103,434.3021,a,1,0.516,1,434.3028,434.8022,,,,,,207,MAS,WORD,DIS,150,kilo,,la,,0.516,,434.8022,434.8023,-0.19047619,-0.246666667,0,0,0,,0,156,156,206,1,kedo,,,
,,,,,,60daaa7f5ea36d3eff3c5709,676192165fb32c2e1fb7aee6,67d1558d740b22c52b1768e5,2025-03-12_03h40.33.427,Tarea de decisión léxica,2024.2.5,Win32,58.47953216,,,,,,,,,,,,,,,,,,,,,,,434.8031,436.0197,a,1,0.5427,1,436.0197,436.5203,,,,,,263,FEM,WORD,DIS,150,vista,,el,,0.5427,,436.5203,436.5204,-0.19047619,-0.246666667,0,0,0,,0,157,157,262,1,dosta,,,
,,,,,,60daaa7f5ea36d3eff3c5709,676192165fb32c2e1fb7aee6,67d1558d740b22c52b1768e5,2025-03-12_03h40.33.427,Tarea de decisión léxica,2024.2.5,Win32,58.47953216,,,,,,,,,,,,,,,,,,,,,,,436.5209,437.7377,l,1,0.5372,1,437.7377,438.2377,,,,,,406,FEM,NOWORD,AGR,150,rarra,,la,,0.5372,,438.2378,438.2379,-0.19047619,-0.246666667,0,0,0,,0,158,158,405,1,barra,,,
,,,,,,60daaa7f5ea36d3eff3c5709,676192165fb32c2e1fb7aee6,67d1558d740b22c52b1768e5,2025-03-12_03h40.33.427,Tarea de decisión léxica,2024.2.5,Win32,58.47953216,,,,,,,,,,,,,,,,,,,,,,,438.2384,439.3559,a,1,0.4607,1,439.3559,439.8561,,,,,,271,FEM,WORD,DIS,150,señal,,el,,0.4607,,439.8561,439.8562,-0.19047619,-0.246666667,0,0,0,,0,159,159,270,1,refal,,,
,,,,,,60daaa7f5ea36d3eff3c5709,676192165fb32c2e1fb7aee6,67d1558d740b22c52b1768e5,2025-03-12_03h40.33.427,Tarea de decisión léxica,2024.2.5,Win32,58.47953216,,,,,,,,,,,,,,,,,,,,,,,439.8568,441.0735,l,1,0.5619,1,441.0736,441.5742,,,,,,224,FEM,NOWORD,DIS,150,cira,,el,,0.5619,,441.5748,475.6338,-0.026666667,-0.386666667,1,0,0,,0,160,160,223,1,cera,break_done_button,,
,,,,,,60daaa7f5ea36d3eff3c5709,676192165fb32c2e1fb7aee6,67d1558d740b22c52b1768e5,2025-03-12_03h40.33.427,Tarea de decisión léxica,2024.2.5,Win32,58.47953216,,,,,,,,,,,,,,,,,,,,,,,475.6346,478.2849,,0,0.5619,-1,478.2855,478.7861,,,,,,171,MAS,WORD,DIS,150,hilo,,la,,,,478.7861,478.7863,-0.026666667,-0.386666667,0,0,0,,0,161,161,170,1,niro,,,
,,,,,,60daaa7f5ea36d3eff3c5709,676192165fb32c2e1fb7aee6,67d1558d740b22c52b1768e5,2025-03-12_03h40.33.427,Tarea de decisión léxica,2024.2.5,Win32,58.47953216,,,,,,,,,,,,,,,,,,,,,,,478.7873,480.037,a,1,0.567,1,480.0378,480.5372,,,,,,381,MAS,WORD,AGR,150,humor,,el,,0.567,,480.5373,480.5373,-0.026666667,-0.386666667,0,0,0,,0,162,162,380,1,nusor,,,
,,,,,,60daaa7f5ea36d3eff3c5709,676192165fb32c2e1fb7aee6,67d1558d740b22c52b1768e5,2025-03-12_03h40.33.427,Tarea de decisión léxica,2024.2.5,Win32,58.47953216,,,,,,,,,,,,,,,,,,,,,,,480.5384,481.6712,l,1,0.4556,1,481.6714,482.1718,,,,,,294,MAS,NOWORD,AGR,150,cacso,,el,,0.4556,,482.1719,482.1721,-0.026666667,-0.386666667,0,0,0,,0,163,163,293,1,campo,,,
,,,,,,60daaa7f5ea36d3eff3c5709,676192165fb32c2e1fb7aee6,67d1558d740b22c52b1768e5,2025-03-12_03h40.33.427,Tarea de decisión léxica,2024.2.5,Win32,58.47953216,,,,,,,,,,,,,,,,,,,,,,,482.1726,483.4058,l,1,0.5499,1,483.4058,483.9065,,,,,,160,MAS,NOWORD,DIS,150,bilo,,la,,0.5499,,483.9067,483.9068,-0.026666667,-0.386666667,0,0,0,,0,164,164,159,1,giro,,,
,,,,,,60daaa7f5ea36d3eff3c5709,676192165fb32c2e1fb7aee6,67d1558d740b22c52b1768e5,2025-03-12_03h40.33.427,Tarea de decisión léxica,2024.2.5,Win32,58.47953216,,,,,,,,,,,,,,,,,,,,,,,483.9077,485.0904,a,1,0.51,1,485.0904,485.5909,,,,,,237,MAS,WORD,AGR,150,nudo,,el,,0.51,,485.5918,485.5924,-0.026666667,-0.386666667,0,0,0,,0,165,165,236,1,huco,,,
,,,,,,60daaa7f5ea36d3eff3c5709,676192165fb32c2e1fb7aee6,67d1558d740b22c52b1768e5,2025-03-12_03h40.33.427,Tarea de decisión léxica,2024.2.5,Win32,58.47953216,,,,,,,,,,,,,,,,,,,,,,,485.593,486.6421,a,1,0.3703,1,486.6421,487.1419,,,,,,153,MAS,WORD,AGR,150,pato,,el,,0.3703,,487.142,487.142,-0.026666667,-0.386666667,0,0,0,,0,166,166,152,1,tado,,,
,,,,,,60daaa7f5ea36d3eff3c5709,676192165fb32c2e1fb7aee6,67d1558d740b22c52b1768e5,2025-03-12_03h40.33.427,Tarea de decisión léxica,2024.2.5,Win32,58.47953216,,,,,,,,,,,,,,,,,,,,,,,487.1426,488.3265,l,1,0.5312,1,488.3265,488.827,,,,,,442,FEM,NOWORD,AGR,150,telza,,la,,0.5312,,488.827,488.8271,-0.026666667,-0.386666667,0,0,0,,0,167,167,441,1,selva,,,
,,,,,,60daaa7f5ea36d3eff3c5709,676192165fb32c2e1fb7aee6,67d1558d740b22c52b1768e5,2025-03-12_03h40.33.427,Tarea de decisión léxica,2024.2.5,Win32,58.47953216,,,,,,,,,,,,,,,,,,,,,,,488.8282,490.0445,l,1,0.5324,1,490.0447,490.5443,,,,,,242,MAS,NOWORD,AGR,150,mirdo,,el,,0.5324,,490.5443,490.5444,-0.026666667,-0.386666667,0,0,0,,0,168,168,241,1,mundo,,,
,,,,,,60daaa7f5ea36d3eff3c5709,676192165fb32c2e1fb7aee6,67d1558d740b22c52b1768e5,2025-03-12_03h40.33.427,Tarea de decisión léxica,2024.2.5,Win32,58.47953216,,,,,,,,,,,,,,,,,,,,,,,490.5454,491.6458,l,1,0.433,1,491.6459,492.146,,,,,,56,MAS,NOWORD,DIS,150,jado,,la,,0.433,,492.146,492.146,-0.026666667,-0.386666667,0,0,0,,0,169,169,55,1,gato,,,
,,,,,,60daaa7f5ea36d3eff3c5709,676192165fb32c2e1fb7aee6,67d1558d740b22c52b1768e5,2025-03-12_03h40.33.427,Tarea de decisión léxica,2024.2.5,Win32,58.47953216,,,,,,,,,,,,,,,,,,,,,,,492.1467,493.2132,l,1,0.3994,1,493.2132,493.7137,,,,,,250,FEM,NOWORD,AGR,150,plane,,la,,0.3994,,493.7143,493.7147,-0.026666667,-0.386666667,0,0,0,,0,170,170,249,1,clase,,,
,,,,,,60daaa7f5ea36d3eff3c5709,676192165fb32c2e1fb7aee6,67d1558d740b22c52b1768e5,2025-03-12_03h40.33.427,Tarea de decisión léxica,2024.2.5,Win32,58.47953216,,,,,,,,,,,,,,,,,,,,,,,493.7151,494.7313,l,1,0.3429,1,494.7313,495.2316,,,,,,454,FEM,NOWORD,AGR,150,pafia,,la,,0.3429,,495.2316,495.2316,-0.026666667,-0.386666667,0,0,0,,0,171,171,453,1,mafia,,,
,,,,,,60daaa7f5ea36d3eff3c5709,676192165fb32c2e1fb7aee6,67d1558d740b22c52b1768e5,2025-03-12_03h40.33.427,Tarea de decisión léxica,2024.2.5,Win32,58.47953216,,,,,,,,,,,,,,,,,,,,,,,495.2323,496.382,a,1,0.4962,1,496.3821,496.883,,,,,,417,FEM,WORD,AGR,150,barba,,la,,0.4962,,496.883,496.8831,-0.026666667,-0.386666667,0,0,0,,0,172,172,416,1,banja,,,
,,,,,,60daaa7f5ea36d3eff3c5709,676192165fb32c2e1fb7aee6,67d1558d740b22c52b1768e5,2025-03-12_03h40.33.427,Tarea de decisión léxica,2024.2.5,Win32,58.47953216,,,,,,,,,,,,,,,,,,,,,,,496.8842,498.1334,l,1,0.5678,1,498.1335,498.6338,,,,,,422,MAS,NOWORD,AGR,150,griso,,el,,0.5678,,498.6338,498.6339,-0.026666667,-0.386666667,0,0,0,,0,173,173,421,1,primo,,,
,,,,,,60daaa7f5ea36d3eff3c5709,676192165fb32c2e1fb7aee6,67d1558d740b22c52b1768e5,2025-03-12_03h40.33.427,Tarea de decisión léxica,2024.2.5,Win32,58.47953216,,,,,,,,,,,,,,,,,,,,,,,498.6349,499.9188,a,1,0.6219,1,499.9189,500.4192,,,,,,131,FEM,WORD,DIS,150,mina,,el,,0.6219,,500.4193,500.4194,-0.026666667,-0.386666667,0,0,0,,0,174,174,130,1,fada,,,
,,,,,,60daaa7f5ea36d3eff3c5709,676192165fb32c2e1fb7aee6,67d1558d740b22c52b1768e5,2025-03-12_03h40.33.427,Tarea de decisión léxica,2024.2.5,Win32,58.47953216,,,,,,,,,,,,,,,,,,,,,,,500.4204,501.8365,l,1,0.7341,1,501.8366,502.3372,,,,,,282,MAS,NOWORD,AGR,150,cauro,,el,,0.7341,,502.3382,502.3389,-0.026666667,-0.386666667,0,0,0,,0,175,175,281,1,cielo,,,
,,,,,,60daaa7f5ea36d3eff3c5709,676192165fb32c2e1fb7aee6,67d1558d740b22c52b1768e5,2025-03-12_03h40.33.427,Tarea de decisión léxica,2024.2.5,Win32,58.47953216,,,,,,,,,,,,,,,,,,,,,,,502.3393,503.7046,a,1,0.6948,1,503.7047,504.2053,,,,,,335,FEM,WORD,DIS,150,costa,,el,,0.6948,,504.2054,504.2055,-0.026666667,-0.386666667,0,0,0,,0,176,176,334,1,pesta,,,
,,,,,,60daaa7f5ea36d3eff3c5709,676192165fb32c2e1fb7aee6,67d1558d740b22c52b1768e5,2025-03-12_03h40.33.427,Tarea de decisión léxica,2024.2.5,Win32,58.47953216,,,,,,,,,,,,,,,,,,,,,,,504.2065,505.7395,a,1,0.8589,1,505.7395,506.24,,,,,,377,MAS,WORD,AGR,150,hielo,,el,,0.8589,,506.2401,506.2402,-0.026666667,-0.386666667,0,0,0,,0,177,177,376,1,gaulo,,,
,,,,,,60daaa7f5ea36d3eff3c5709,676192165fb32c2e1fb7aee6,67d1558d740b22c52b1768e5,2025-03-12_03h40.33.427,Tarea de decisión léxica,2024.2.5,Win32,58.47953216,,,,,,,,,,,,,,,,,,,,,,,506.2412,507.6746,a,0,0.7508,0,507.6755,508.175,,,,,,180,MAS,NOWORD,DIS,150,sono,,la,,0.7508,,508.1752,508.1752,-0.026666667,-0.386666667,0,0,0,,0,178,178,179,1,toro,,,
,,,,,,60daaa7f5ea36d3eff3c5709,676192165fb32c2e1fb7aee6,67d1558d740b22c52b1768e5,2025-03-12_03h40.33.427,Tarea de decisión léxica,2024.2.5,Win32,58.47953216,,,,,,,,,,,,,,,,,,,,,,,508.1763,509.776,a,1,0.9215,1,509.7765,510.2765,,,,,,211,FEM,WORD,DIS,150,joya,,el,,0.9215,,510.277,510.2777,-0.026666667,-0.386666667,0,0,0,,0,179,179,210,1,joad,,,
,,,,,,60daaa7f5ea36d3eff3c5709,676192165fb32c2e1fb7aee6,67d1558d740b22c52b1768e5,2025-03-12_03h40.33.427,Tarea de decisión léxica,2024.2.5,Win32,58.47953216,,,,,,,,,,,,,,,,,,,,,,,510.2783,511.3771,a,1,0.4276,1,511.3771,511.8775,,,,,,265,FEM,WORD,AGR,150,mitad,,la,,0.4276,,511.8775,511.8775,-0.026666667,-0.386666667,0,0,0,,0,180,180,264,1,pitat,,,
,,,,,,60daaa7f5ea36d3eff3c5709,676192165fb32c2e1fb7aee6,67d1558d740b22c52b1768e5,2025-03-12_03h40.33.427,Tarea de decisión léxica,2024.2.5,Win32,58.47953216,,,,,,,,,,,,,,,,,,,,,,,511.8782,512.9283,a,1,0.3776,1,512.9283,513.4288,,,,,,169,MAS,WORD,AGR,150,cubo,,el,,0.3776,,513.4289,513.4291,-0.026666667,-0.386666667,0,0,0,,0,181,181,168,1,mibo,,,
,,,,,,60daaa7f5ea36d3eff3c5709,676192165fb32c2e1fb7aee6,67d1558d740b22c52b1768e5,2025-03-12_03h40.33.427,Tarea de decisión léxica,2024.2.5,Win32,58.47953216,,,,,,,,,,,,,,,,,,,,,,,513.4297,514.5629,a,1,0.4579,1,514.5629,515.0632,,,,,,103,FEM,WORD,DIS,150,ruta,,el,,0.4579,,515.0632,515.0632,-0.026666667,-0.386666667,0,0,0,,0,182,182,102,1,rova,,,
,,,,,,60daaa7f5ea36d3eff3c5709,676192165fb32c2e1fb7aee6,67d1558d740b22c52b1768e5,2025-03-12_03h40.33.427,Tarea de decisión léxica,2024.2.5,Win32,58.47953216,,,,,,,,,,,,,,,,,,,,,,,515.0637,516.2145,l,1,0.4723,1,516.2145,516.7147,,,,,,272,FEM,NOWORD,DIS,150,refal,,el,,0.4723,,516.7148,516.7149,-0.026666667,-0.386666667,0,0,0,,0,183,183,271,1,señal,,,
,,,,,,60daaa7f5ea36d3eff3c5709,676192165fb32c2e1fb7aee6,67d1558d740b22c52b1768e5,2025-03-12_03h40.33.427,Tarea de decisión léxica,2024.2.5,Win32,58.47953216,,,,,,,,,,,,,,,,,,,,,,,516.7156,517.9819,l,1,0.5975,1,517.982,518.4826,,,,,,204,FEM,NOWORD,DIS,150,beja,,el,,0.5975,,518.4831,518.4836,-0.026666667,-0.386666667,0,0,0,,0,184,184,203,1,leña,,,
,,,,,,60daaa7f5ea36d3eff3c5709,676192165fb32c2e1fb7aee6,67d1558d740b22c52b1768e5,2025-03-12_03h40.33.427,Tarea de decisión léxica,2024.2.5,Win32,58.47953216,,,,,,,,,,,,,,,,,,,,,,,518.484,519.7502,l,1,0.5975,1,519.7502,520.2507,,,,,,466,FEM,NOWORD,AGR,150,asuba,,la,,0.5975,,520.2508,520.2508,-0.026666667,-0.386666667,0,0,0,,0,185,185,465,1,aguja,,,
,,,,,,60daaa7f5ea36d3eff3c5709,676192165fb32c2e1fb7aee6,67d1558d740b22c52b1768e5,2025-03-12_03h40.33.427,Tarea de decisión léxica,2024.2.5,Win32,58.47953216,,,,,,,,,,,,,,,,,,,,,,,520.2515,521.4185,l,0,0.4853,0,521.4193,521.9188,,,,,,67,FEM,WORD,DIS,150,nena,,el,,0.4853,,521.9189,521.9189,-0.026666667,-0.386666667,0,0,0,,0,186,186,66,1,gesa,,,
,,,,,,60daaa7f5ea36d3eff3c5709,676192165fb32c2e1fb7aee6,67d1558d740b22c52b1768e5,2025-03-12_03h40.33.427,Tarea de decisión léxica,2024.2.5,Win32,58.47953216,,,,,,,,,,,,,,,,,,,,,,,521.9197,523.1194,a,0,0.5293,0,523.1194,523.6198,,,,,,234,FEM,NOWORD,AGR,150,fasa,,la,,0.5293,,523.6199,523.6199,-0.026666667,-0.386666667,0,0,0,,0,187,187,233,1,lana,,,
,,,,,,60daaa7f5ea36d3eff3c5709,676192165fb32c2e1fb7aee6,67d1558d740b22c52b1768e5,2025-03-12_03h40.33.427,Tarea de decisión léxica,2024.2.5,Win32,58.47953216,,,,,,,,,,,,,,,,,,,,,,,523.6205,525.0706,l,0,0.796,0,525.0706,525.571,,,,,,83,FEM,WORD,DIS,150,bala,,el,,0.796,,525.5711,525.5711,-0.026666667,-0.386666667,0,0,0,,0,188,188,82,1,taga,,,
,,,,,,60daaa7f5ea36d3eff3c5709,676192165fb32c2e1fb7aee6,67d1558d740b22c52b1768e5,2025-03-12_03h40.33.427,Tarea de decisión léxica,2024.2.5,Win32,58.47953216,,,,,,,,,,,,,,,,,,,,,,,525.5719,526.9223,a,0,0.6847,0,526.9224,527.4231,,,,,,316,FEM,NOWORD,DIS,150,riosa,,el,,0.6847,,527.4241,527.4248,-0.026666667,-0.386666667,0,0,0,,0,189,189,315,1,reina,,,
,,,,,,60daaa7f5ea36d3eff3c5709,676192165fb32c2e1fb7aee6,67d1558d740b22c52b1768e5,2025-03-12_03h40.33.427,Tarea de decisión léxica,2024.2.5,Win32,58.47953216,,,,,,,,,,,,,,,,,,,,,,,527.4253,528.8069,l,1,0.7042,1,528.8074,529.3074,,,,,,456,MAS,NOWORD,DIS,150,riaso,,la,,0.7042,,529.3074,529.3075,-0.026666667,-0.386666667,0,0,0,,0,190,190,455,1,reino,,,
,,,,,,60daaa7f5ea36d3eff3c5709,676192165fb32c2e1fb7aee6,67d1558d740b22c52b1768e5,2025-03-12_03h40.33.427,Tarea de decisión léxica,2024.2.5,Win32,58.47953216,,,,,,,,,,,,,,,,,,,,,,,529.3084,530.4587,l,1,0.4675,1,530.4588,530.9589,,,,,,72,FEM,NOWORD,DIS,150,urla,,el,,0.4675,,530.9589,530.959,-0.026666667,-0.386666667,0,0,0,,0,191,191,71,1,isla,,,
,,,,,,60daaa7f5ea36d3eff3c5709,676192165fb32c2e1fb7aee6,67d1558d740b22c52b1768e5,2025-03-12_03h40.33.427,Tarea de decisión léxica,2024.2.5,Win32,58.47953216,,,,,,,,,,,,,,,,,,,,,,,530.9599,532.3264,a,0,0.6895,0,532.3268,532.8267,,,,,,26,FEM,NOWORD,AGR,150,paza,,la,,0.6895,,532.8267,532.8268,-0.026666667,-0.386666667,0,0,0,,0,192,192,25,1,cama,,,
,,,,,,60daaa7f5ea36d3eff3c5709,676192165fb32c2e1fb7aee6,67d1558d740b22c52b1768e5,2025-03-12_03h40.33.427,Tarea de decisión léxica,2024.2.5,Win32,58.47953216,,,,,,,,,,,,,,,,,,,,,,,532.8277,535.4792,,0,0.6895,-1,535.4801,535.9794,,,,,,477,MAS,WORD,AGR,150,botón,,el,,,,535.9794,535.9795,-0.026666667,-0.386666667,0,0,0,,0,193,193,476,1,hocon,,,
,,,,,,60daaa7f5ea36d3eff3c5709,676192165fb32c2e1fb7aee6,67d1558d740b22c52b1768e5,2025-03-12_03h40.33.427,Tarea de decisión léxica,2024.2.5,Win32,58.47953216,,,,,,,,,,,,,,,,,,,,,,,535.9801,537.03,a,0,0.3973,0,537.0305,537.5303,,,,,,348,FEM,NOWORD,DIS,150,mueza,,el,,0.3973,,537.531,537.5314,-0.026666667,-0.386666667,0,0,0,,0,194,194,347,1,pieza,,,
,,,,,,60daaa7f5ea36d3eff3c5709,676192165fb32c2e1fb7aee6,67d1558d740b22c52b1768e5,2025-03-12_03h40.33.427,Tarea de decisión léxica,2024.2.5,Win32,58.47953216,,,,,,,,,,,,,,,,,,,,,,,537.5317,538.6477,a,1,0.4455,1,538.6482,539.1486,,,,,,349,MAS,WORD,AGR,150,color,,el,,0.4455,,539.1487,539.1488,-0.026666667,-0.386666667,0,0,0,,0,195,195,348,1,cosir,,,
,,,,,,60daaa7f5ea36d3eff3c5709,676192165fb32c2e1fb7aee6,67d1558d740b22c52b1768e5,2025-03-12_03h40.33.427,Tarea de decisión léxica,2024.2.5,Win32,58.47953216,,,,,,,,,,,,,,,,,,,,,,,539.1496,540.2323,a,1,0.4032,1,540.2323,540.7332,,,,,,455,MAS,WORD,DIS,150,reino,,la,,0.4032,,540.7333,540.7333,-0.026666667,-0.386666667,0,0,0,,0,196,196,454,1,riaso,,,
,,,,,,60daaa7f5ea36d3eff3c5709,676192165fb32c2e1fb7aee6,67d1558d740b22c52b1768e5,2025-03-12_03h40.33.427,Tarea de decisión léxica,2024.2.5,Win32,58.47953216,,,,,,,,,,,,,,,,,,,,,,,540.7345,541.9334,a,1,0.5303,1,541.9334,542.434,,,,,,213,FEM,WORD,AGR,150,rama,,la,,0.5303,,542.434,542.4341,-0.026666667,-0.386666667,0,0,0,,0,197,197,212,1,bana,,,
,,,,,,60daaa7f5ea36d3eff3c5709,676192165fb32c2e1fb7aee6,67d1558d740b22c52b1768e5,2025-03-12_03h40.33.427,Tarea de decisión léxica,2024.2.5,Win32,58.47953216,,,,,,,,,,,,,,,,,,,,,,,542.4352,543.3852,a,1,0.2849,1,543.3853,543.885,,,,,,75,MAS,WORD,DIS,150,olor,,la,,0.2849,,543.885,543.885,-0.026666667,-0.386666667,0,0,0,,0,198,198,74,1,ocer,,,
,,,,,,60daaa7f5ea36d3eff3c5709,676192165fb32c2e1fb7aee6,67d1558d740b22c52b1768e5,2025-03-12_03h40.33.427,Tarea de decisión léxica,2024.2.5,Win32,58.47953216,,,,,,,,,,,,,,,,,,,,,,,543.8855,545.0697,l,1,0.531,1,545.0699,545.57,,,,,,286,MAS,NOWORD,AGR,150,echor,,el,,0.531,,545.571,545.5717,-0.026666667,-0.386666667,0,0,0,,0,199,199,285,1,error,,,
,,,,,,60daaa7f5ea36d3eff3c5709,676192165fb32c2e1fb7aee6,67d1558d740b22c52b1768e5,2025-03-12_03h40.33.427,Tarea de decisión léxica,2024.2.5,Win32,58.47953216,,,,,,,,,,,,,,,,,,,,,,,545.5725,546.8712,l,1,0.6214,1,546.8713,547.3712,,,,,,430,FEM,NOWORD,AGR,150,tenta,,la,,0.6214,,547.3714,547.3714,-0.026666667,-0.386666667,0,0,0,,0,200,200,429,1,tarta,,,
,,,,,,60daaa7f5ea36d3eff3c5709,676192165fb32c2e1fb7aee6,67d1558d740b22c52b1768e5,2025-03-12_03h40.33.427,Tarea de decisión léxica,2024.2.5,Win32,58.47953216,,,,,,,,,,,,,,,,,,,,,,,547.3725,548.4221,a,1,0.372,1,548.4221,548.9224,,,,,,241,MAS,WORD,AGR,150,mundo,,el,,0.372,,548.9225,548.9226,-0.026666667,-0.386666667,0,0,0,,0,201,201,240,1,mirdo,,,
,,,,,,60daaa7f5ea36d3eff3c5709,676192165fb32c2e1fb7aee6,67d1558d740b22c52b1768e5,2025-03-12_03h40.33.427,Tarea de decisión léxica,2024.2.5,Win32,58.47953216,,,,,,,,,,,,,,,,,,,,,,,548.9234,550.0733,a,1,0.4679,1,550.0735,550.5739,,,,,,175,FEM,WORD,DIS,150,goma,,el,,0.4679,,550.5739,550.574,-0.026666667,-0.386666667,0,0,0,,0,202,202,174,1,hosa,,,
,,,,,,60daaa7f5ea36d3eff3c5709,676192165fb32c2e1fb7aee6,67d1558d740b22c52b1768e5,2025-03-12_03h40.33.427,Tarea de decisión léxica,2024.2.5,Win32,58.47953216,,,,,,,,,,,,,,,,,,,,,,,550.5746,551.7248,l,1,0.4844,1,551.725,552.2249,,,,,,126,MAS,NOWORD,AGR,150,vudo,,el,,0.4844,,552.2255,552.2259,-0.026666667,-0.386666667,0,0,0,,0,203,203,125,1,lujo,,,
,,,,,,60daaa7f5ea36d3eff3c5709,676192165fb32c2e1fb7aee6,67d1558d740b22c52b1768e5,2025-03-12_03h40.33.427,Tarea de decisión léxica,2024.2.5,Win32,58.47953216,,,,,,,,,,,,,,,,,,,,,,,552.2264,554.1767,l,0,1.27,0,554.1771,554.6767,,,,,,165,FEM,WORD,AGR,150,vela,,la,,1.27,,554.6768,554.6769,-0.026666667,-0.386666667,0,0,0,,0,204,204,164,1,dera,,,
,,,,,,60daaa7f5ea36d3eff3c5709,676192165fb32c2e1fb7aee6,67d1558d740b22c52b1768e5,2025-03-12_03h40.33.427,Tarea de decisión léxica,2024.2.5,Win32,58.47953216,,,,,,,,,,,,,,,,,,,,,,,554.6774,555.8281,a,1,0.4847,1,555.8289,556.3279,,,,,,275,MAS,WORD,DIS,150,punto,,la,,0.4847,,556.328,556.3281,-0.026666667,-0.386666667,0,0,0,,0,205,205,274,1,musto,,,
,,,,,,60daaa7f5ea36d3eff3c5709,676192165fb32c2e1fb7aee6,67d1558d740b22c52b1768e5,2025-03-12_03h40.33.427,Tarea de decisión léxica,2024.2.5,Win32,58.47953216,,,,,,,,,,,,,,,,,,,,,,,556.3289,557.4621,a,1,0.48,1,557.4623,557.9629,,,,,,37,MAS,WORD,AGR,150,rato,,el,,0.48,,557.963,557.963,-0.026666667,-0.386666667,0,0,0,,0,206,206,36,1,gaco,,,
,,,,,,60daaa7f5ea36d3eff3c5709,676192165fb32c2e1fb7aee6,67d1558d740b22c52b1768e5,2025-03-12_03h40.33.427,Tarea de decisión léxica,2024.2.5,Win32,58.47953216,,,,,,,,,,,,,,,,,,,,,,,557.9642,559.2639,a,0,0.6285,0,559.2644,559.7639,,,,,,134,FEM,NOWORD,AGR,150,vesa,,la,,0.6285,,559.764,559.764,-0.026666667,-0.386666667,0,0,0,,0,207,207,133,1,vaca,,,
,,,,,,60daaa7f5ea36d3eff3c5709,676192165fb32c2e1fb7aee6,67d1558d740b22c52b1768e5,2025-03-12_03h40.33.427,Tarea de decisión léxica,2024.2.5,Win32,58.47953216,,,,,,,,,,,,,,,,,,,,,,,559.7646,561.1649,l,0,0.7469,0,561.165,561.6651,,,,,,137,MAS,WORD,AGR,150,nene,,el,,0.7469,,561.6657,561.6662,-0.026666667,-0.386666667,0,0,0,,0,208,208,136,1,pamo,,,
,,,,,,60daaa7f5ea36d3eff3c5709,676192165fb32c2e1fb7aee6,67d1558d740b22c52b1768e5,2025-03-12_03h40.33.427,Tarea de decisión léxica,2024.2.5,Win32,58.47953216,,,,,,,,,,,,,,,,,,,,,,,561.6666,563.4338,l,1,1.0855,1,563.4343,563.9337,,,,,,120,MAS,NOWORD,DIS,150,hooy,,la,,1.0855,,563.9338,563.9338,-0.026666667,-0.386666667,0,0,0,,0,209,209,119,1,pozo,,,
,,,,,,60daaa7f5ea36d3eff3c5709,676192165fb32c2e1fb7aee6,67d1558d740b22c52b1768e5,2025-03-12_03h40.33.427,Tarea de decisión léxica,2024.2.5,Win32,58.47953216,,,,,,,,,,,,,,,,,,,,,,,563.9347,565.2012,l,1,0.5856,1,565.2013,565.7014,,,,,,146,MAS,NOWORD,AGR,150,nobo,,el,,0.5856,,565.7014,565.7014,-0.026666667,-0.386666667,0,0,0,,0,210,210,145,1,león,,,
,,,,,,60daaa7f5ea36d3eff3c5709,676192165fb32c2e1fb7aee6,67d1558d740b22c52b1768e5,2025-03-12_03h40.33.427,Tarea de decisión léxica,2024.2.5,Win32,58.47953216,,,,,,,,,,,,,,,,,,,,,,,565.7021,566.903,l,1,0.5458,1,566.903,567.4028,,,,,,366,FEM,NOWORD,AGR,150,gulla,,la,,0.5458,,567.4028,567.4028,-0.026666667,-0.386666667,0,0,0,,0,211,211,365,1,ducha,,,
,,,,,,60daaa7f5ea36d3eff3c5709,676192165fb32c2e1fb7aee6,67d1558d740b22c52b1768e5,2025-03-12_03h40.33.427,Tarea de decisión léxica,2024.2.5,Win32,58.47953216,,,,,,,,,,,,,,,,,,,,,,,567.4034,568.637,l,1,0.5716,1,568.637,569.1377,,,,,,412,MAS,NOWORD,DIS,150,mobro,,la,,0.5716,,569.1377,569.1378,-0.026666667,-0.386666667,0,0,0,,0,212,212,411,1,pollo,,,
,,,,,,60daaa7f5ea36d3eff3c5709,676192165fb32c2e1fb7aee6,67d1558d740b22c52b1768e5,2025-03-12_03h40.33.427,Tarea de decisión léxica,2024.2.5,Win32,58.47953216,,,,,,,,,,,,,,,,,,,,,,,569.1388,570.3724,a,1,0.5741,1,570.3725,570.8725,,,,,,439,FEM,WORD,DIS,150,presa,,el,,0.5741,,570.873,570.8734,-0.026666667,-0.386666667,0,0,0,,0,213,213,438,1,prema,,,
,,,,,,60daaa7f5ea36d3eff3c5709,676192165fb32c2e1fb7aee6,67d1558d740b22c52b1768e5,2025-03-12_03h40.33.427,Tarea de decisión léxica,2024.2.5,Win32,58.47953216,,,,,,,,,,,,,,,,,,,,,,,570.8739,572.3568,l,1,0.8008,1,572.3569,572.8577,,,,,,6,FEM,NOWORD,AGR,150,poga,,la,,0.8008,,572.8578,572.8579,-0.026666667,-0.386666667,0,0,0,,0,214,214,5,1,cosa,,,
,,,,,,60daaa7f5ea36d3eff3c5709,676192165fb32c2e1fb7aee6,67d1558d740b22c52b1768e5,2025-03-12_03h40.33.427,Tarea de decisión léxica,2024.2.5,Win32,58.47953216,,,,,,,,,,,,,,,,,,,,,,,572.8585,574.0749,l,1,0.5347,1,574.0751,574.5753,,,,,,446,MAS,NOWORD,AGR,150,ascor,,el,,0.5347,,574.5754,574.5754,-0.026666667,-0.386666667,0,0,0,,0,215,215,445,1,actor,,,
,,,,,,60daaa7f5ea36d3eff3c5709,676192165fb32c2e1fb7aee6,67d1558d740b22c52b1768e5,2025-03-12_03h40.33.427,Tarea de decisión léxica,2024.2.5,Win32,58.47953216,,,,,,,,,,,,,,,,,,,,,,,574.5764,575.7932,l,1,0.5522,1,575.7934,576.2935,,,,,,190,MAS,NOWORD,AGR,150,muvo,,el,,0.5522,,576.2936,576.2937,-0.026666667,-0.386666667,0,0,0,,0,216,216,189,1,puño,,,
,,,,,,60daaa7f5ea36d3eff3c5709,676192165fb32c2e1fb7aee6,67d1558d740b22c52b1768e5,2025-03-12_03h40.33.427,Tarea de decisión léxica,2024.2.5,Win32,58.47953216,,,,,,,,,,,,,,,,,,,,,,,576.2946,578.9454,,0,0.5522,-1,578.9463,579.4455,,,,,,93,FEM,WORD,AGR,150,bola,,la,,,,579.4457,579.4457,-0.026666667,-0.386666667,0,0,0,,0,217,217,92,1,rona,,,
,,,,,,60daaa7f5ea36d3eff3c5709,676192165fb32c2e1fb7aee6,67d1558d740b22c52b1768e5,2025-03-12_03h40.33.427,Tarea de decisión léxica,2024.2.5,Win32,58.47953216,,,,,,,,,,,,,,,,,,,,,,,579.4462,580.5966,a,0,0.4902,0,580.5971,581.0971,,,,,,280,FEM,NOWORD,DIS,150,grina,,el,,0.4902,,581.0977,581.0982,-0.026666667,-0.386666667,0,0,0,,0,218,218,279,1,prisa,,,
,,,,,,60daaa7f5ea36d3eff3c5709,676192165fb32c2e1fb7aee6,67d1558d740b22c52b1768e5,2025-03-12_03h40.33.427,Tarea de decisión léxica,2024.2.5,Win32,58.47953216,,,,,,,,,,,,,,,,,,,,,,,581.0986,583.7489,,0,0.4902,-1,583.7493,584.2497,,,,,,202,FEM,NOWORD,AGR,150,cusa,,la,,,,584.2498,584.2498,-0.026666667,-0.386666667,0,0,0,,0,219,219,201,1,cuna,,,
,,,,,,60daaa7f5ea36d3eff3c5709,676192165fb32c2e1fb7aee6,67d1558d740b22c52b1768e5,2025-03-12_03h40.33.427,Tarea de decisión léxica,2024.2.5,Win32,58.47953216,,,,,,,,,,,,,,,,,,,,,,,584.2508,586.9011,,0,0.4902,-1,586.9011,587.4016,,,,,,116,FEM,NOWORD,DIS,150,haca,,el,,,,587.4017,587.4018,-0.026666667,-0.386666667,0,0,0,,0,220,220,115,1,pata,,,
,,,,,,60daaa7f5ea36d3eff3c5709,676192165fb32c2e1fb7aee6,67d1558d740b22c52b1768e5,2025-03-12_03h40.33.427,Tarea de decisión léxica,2024.2.5,Win32,58.47953216,,,,,,,,,,,,,,,,,,,,,,,587.4023,590.0536,,0,0.4902,-1,590.0538,590.5545,,,,,,34,FEM,NOWORD,AGR,150,loda,,la,,,,590.5546,590.5547,-0.026666667,-0.386666667,0,0,0,,0,221,221,33,1,boca,,,
,,,,,,60daaa7f5ea36d3eff3c5709,676192165fb32c2e1fb7aee6,67d1558d740b22c52b1768e5,2025-03-12_03h40.33.427,Tarea de decisión léxica,2024.2.5,Win32,58.47953216,,,,,,,,,,,,,,,,,,,,,,,590.5553,591.6046,a,1,0.3806,1,591.6051,592.1053,,,,,,443,MAS,WORD,DIS,150,salón,,la,,0.3806,,592.1054,592.1054,-0.026666667,-0.386666667,0,0,0,,0,222,222,442,1,taron,,,
,,,,,,60daaa7f5ea36d3eff3c5709,676192165fb32c2e1fb7aee6,67d1558d740b22c52b1768e5,2025-03-12_03h40.33.427,Tarea de decisión léxica,2024.2.5,Win32,58.47953216,,,,,,,,,,,,,,,,,,,,,,,592.1062,593.2227,a,1,0.4451,1,593.2229,593.7236,,,,,,279,FEM,WORD,DIS,150,prisa,,el,,0.4451,,593.7243,593.7247,-0.026666667,-0.386666667,0,0,0,,0,223,223,278,1,grina,,,
,,,,,,60daaa7f5ea36d3eff3c5709,676192165fb32c2e1fb7aee6,67d1558d740b22c52b1768e5,2025-03-12_03h40.33.427,Tarea de decisión léxica,2024.2.5,Win32,58.47953216,,,,,,,,,,,,,,,,,,,,,,,593.7252,594.8411,a,1,0.442,1,594.8411,595.3412,,,,,,461,FEM,WORD,AGR,150,tabla,,la,,0.442,,595.3412,595.3413,-0.026666667,-0.386666667,0,0,0,,0,224,224,460,1,pagra,,,
,,,,,,60daaa7f5ea36d3eff3c5709,676192165fb32c2e1fb7aee6,67d1558d740b22c52b1768e5,2025-03-12_03h40.33.427,Tarea de decisión léxica,2024.2.5,Win32,58.47953216,,,,,,,,,,,,,,,,,,,,,,,595.3421,596.3923,a,0,0.3693,0,596.3932,596.8924,,,,,,444,MAS,NOWORD,DIS,150,taron,,la,,0.3693,,596.8925,596.8925,-0.026666667,-0.386666667,0,0,0,,0,225,225,443,1,salón,,,
,,,,,,60daaa7f5ea36d3eff3c5709,676192165fb32c2e1fb7aee6,67d1558d740b22c52b1768e5,2025-03-12_03h40.33.427,Tarea de decisión léxica,2024.2.5,Win32,58.47953216,,,,,,,,,,,,,,,,,,,,,,,596.8931,598.0263,l,1,0.4515,1,598.0268,598.5265,,,,,,198,MAS,NOWORD,AGR,150,dade,,el,,0.4515,,598.5266,598.5267,-0.026666667,-0.386666667,0,0,0,,0,226,226,197,1,bate,,,
,,,,,,60daaa7f5ea36d3eff3c5709,676192165fb32c2e1fb7aee6,67d1558d740b22c52b1768e5,2025-03-12_03h40.33.427,Tarea de decisión léxica,2024.2.5,Win32,58.47953216,,,,,,,,,,,,,,,,,,,,,,,598.5272,599.6281,a,1,0.4398,1,599.6282,600.1282,,,,,,25,FEM,WORD,AGR,150,cama,,la,,0.4398,,600.1292,600.1296,-0.026666667,-0.386666667,0,0,0,,0,227,227,24,1,paza,,,
,,,,,,60daaa7f5ea36d3eff3c5709,676192165fb32c2e1fb7aee6,67d1558d740b22c52b1768e5,2025-03-12_03h40.33.427,Tarea de decisión léxica,2024.2.5,Win32,58.47953216,,,,,,,,,,,,,,,,,,,,,,,600.1301,601.4456,a,1,0.6461,1,601.4457,601.9461,,,,,,239,MAS,WORD,DIS,150,mozo,,la,,0.6461,,601.9462,601.9463,-0.026666667,-0.386666667,0,0,0,,0,228,228,238,1,poño,,,
,,,,,,60daaa7f5ea36d3eff3c5709,676192165fb32c2e1fb7aee6,67d1558d740b22c52b1768e5,2025-03-12_03h40.33.427,Tarea de decisión léxica,2024.2.5,Win32,58.47953216,,,,,,,,,,,,,,,,,,,,,,,601.947,603.0636,a,1,0.4362,1,603.0636,603.5645,,,,,,355,FEM,WORD,DIS,150,regla,,el,,0.4362,,603.5646,603.5647,-0.026666667,-0.386666667,0,0,0,,0,229,229,354,1,bepla,,,
,,,,,,60daaa7f5ea36d3eff3c5709,676192165fb32c2e1fb7aee6,67d1558d740b22c52b1768e5,2025-03-12_03h40.33.427,Tarea de decisión léxica,2024.2.5,Win32,58.47953216,,,,,,,,,,,,,,,,,,,,,,,603.5658,604.5315,a,0,0.2897,0,604.5324,605.0319,,,,,,64,FEM,NOWORD,DIS,150,funa,,el,,0.2897,,605.0319,605.0321,-0.026666667,-0.386666667,0,0,0,,0,230,230,63,1,luna,,,
,,,,,,60daaa7f5ea36d3eff3c5709,676192165fb32c2e1fb7aee6,67d1558d740b22c52b1768e5,2025-03-12_03h40.33.427,Tarea de decisión léxica,2024.2.5,Win32,58.47953216,,,,,,,,,,,,,,,,,,,,,,,605.0331,606.2498,l,1,0.5593,1,606.2505,606.75,,,,,,338,MAS,NOWORD,AGR,150,nuejo,,el,,0.5593,,606.75,606.7501,-0.026666667,-0.386666667,0,0,0,,0,231,231,337,1,huevo,,,
,,,,,,60daaa7f5ea36d3eff3c5709,676192165fb32c2e1fb7aee6,67d1558d740b22c52b1768e5,2025-03-12_03h40.33.427,Tarea de decisión léxica,2024.2.5,Win32,58.47953216,,,,,,,,,,,,,,,,,,,,,,,606.7507,607.984,a,1,0.5676,1,607.984,608.4844,,,,,,33,FEM,WORD,AGR,150,boca,,la,,0.5676,,608.485,608.4854,-0.026666667,-0.386666667,0,0,0,,0,232,232,32,1,loda,,,
,,,,,,60daaa7f5ea36d3eff3c5709,676192165fb32c2e1fb7aee6,67d1558d740b22c52b1768e5,2025-03-12_03h40.33.427,Tarea de decisión léxica,2024.2.5,Win32,58.47953216,,,,,,,,,,,,,,,,,,,,,,,608.4859,610.236,a,0,1.073,0,610.2367,610.7361,,,,,,70,FEM,NOWORD,AGR,150,ñola,,la,,1.073,,610.7361,610.7362,-0.026666667,-0.386666667,0,0,0,,0,233,233,69,1,zona,,,
,,,,,,60daaa7f5ea36d3eff3c5709,676192165fb32c2e1fb7aee6,67d1558d740b22c52b1768e5,2025-03-12_03h40.33.427,Tarea de decisión léxica,2024.2.5,Win32,58.47953216,,,,,,,,,,,,,,,,,,,,,,,610.7368,611.5202,a,0,0.1262,0,611.5202,612.0204,,,,,,152,MAS,NOWORD,DIS,150,sogo,,la,,0.1262,,612.0204,612.0205,-0.026666667,-0.386666667,0,0,0,,0,234,234,151,1,tomo,,,
,,,,,,60daaa7f5ea36d3eff3c5709,676192165fb32c2e1fb7aee6,67d1558d740b22c52b1768e5,2025-03-12_03h40.33.427,Tarea de decisión léxica,2024.2.5,Win32,58.47953216,,,,,,,,,,,,,,,,,,,,,,,612.0214,613.4716,a,1,0.777,1,613.472,613.9718,,,,,,363,FEM,WORD,DIS,150,deuda,,el,,0.777,,613.9718,613.972,-0.026666667,-0.386666667,0,0,0,,0,235,235,362,1,veida,,,
,,,,,,60daaa7f5ea36d3eff3c5709,676192165fb32c2e1fb7aee6,67d1558d740b22c52b1768e5,2025-03-12_03h40.33.427,Tarea de decisión léxica,2024.2.5,Win32,58.47953216,,,,,,,,,,,,,,,,,,,,,,,613.9725,614.9898,a,1,0.3554,1,614.9899,615.4898,,,,,,101,MAS,WORD,AGR,150,tono,,el,,0.3554,,615.4899,615.4899,-0.026666667,-0.386666667,0,0,0,,0,236,236,100,1,gito,,,
,,,,,,60daaa7f5ea36d3eff3c5709,676192165fb32c2e1fb7aee6,67d1558d740b22c52b1768e5,2025-03-12_03h40.33.427,Tarea de decisión léxica,2024.2.5,Win32,58.47953216,,,,,,,,,,,,,,,,,,,,,,,615.4908,616.6243,l,1,0.4671,1,616.6243,617.1247,,,,,,18,FEM,NOWORD,AGR,150,paba,,la,,0.4671,,617.1253,617.1256,-0.026666667,-0.386666667,0,0,0,,0,237,237,17,1,mamá,,,
,,,,,,60daaa7f5ea36d3eff3c5709,676192165fb32c2e1fb7aee6,67d1558d740b22c52b1768e5,2025-03-12_03h40.33.427,Tarea de decisión léxica,2024.2.5,Win32,58.47953216,,,,,,,,,,,,,,,,,,,,,,,617.126,618.2253,a,1,0.4173,1,618.2254,618.7258,,,,,,63,FEM,WORD,DIS,150,luna,,el,,0.4173,,618.7258,618.726,-0.026666667,-0.386666667,0,0,0,,0,238,238,62,1,funa,,,
,,,,,,60daaa7f5ea36d3eff3c5709,676192165fb32c2e1fb7aee6,67d1558d740b22c52b1768e5,2025-03-12_03h40.33.427,Tarea de decisión léxica,2024.2.5,Win32,58.47953216,,,,,,,,,,,,,,,,,,,,,,,618.7265,619.8602,l,1,0.4561,1,619.8603,620.3603,,,,,,458,MAS,NOWORD,AGR,150,glaco,,el,,0.4561,,620.3604,620.3605,-0.026666667,-0.386666667,0,0,0,,0,239,239,457,1,plato,,,
,,,,,,60daaa7f5ea36d3eff3c5709,676192165fb32c2e1fb7aee6,67d1558d740b22c52b1768e5,2025-03-12_03h40.33.427,Tarea de decisión léxica,2024.2.5,Win32,58.47953216,,,,,,,,,,,,,,,,,,,,,,,620.3618,621.5276,a,1,0.4849,1,621.5276,622.0282,,,,,,97,MAS,WORD,AGR,150,mono,,el,,0.4849,,622.0283,622.0283,-0.026666667,-0.386666667,0,0,0,,0,240,240,96,1,fopo,,,
,,,,,,60daaa7f5ea36d3eff3c5709,676192165fb32c2e1fb7aee6,67d1558d740b22c52b1768e5,2025-03-12_03h40.33.427,Tarea de decisión léxica,2024.2.5,Win32,58.47953216,,,,,,,,,,,,,,,,,,,,,,,622.0292,623.229,l,1,0.5218,1,623.229,623.7296,,,,,,428,FEM,NOWORD,DIS,150,oseva,,el,,0.5218,,623.7297,623.7298,-0.026666667,-0.386666667,0,0,0,,0,241,241,427,1,oreja,,,
,,,,,,60daaa7f5ea36d3eff3c5709,676192165fb32c2e1fb7aee6,67d1558d740b22c52b1768e5,2025-03-12_03h40.33.427,Tarea de decisión léxica,2024.2.5,Win32,58.47953216,,,,,,,,,,,,,,,,,,,,,,,623.7305,625.0136,a,1,0.6276,1,625.0136,625.5137,,,,,,375,FEM,WORD,DIS,150,salsa,,el,,0.6276,,625.5143,625.5147,-0.026666667,-0.386666667,0,0,0,,0,242,242,374,1,sasna,,,
,,,,,,60daaa7f5ea36d3eff3c5709,676192165fb32c2e1fb7aee6,67d1558d740b22c52b1768e5,2025-03-12_03h40.33.427,Tarea de decisión léxica,2024.2.5,Win32,58.47953216,,,,,,,,,,,,,,,,,,,,,,,625.5151,627.2992,a,0,1.1238,0,627.3,627.7991,,,,,,92,FEM,NOWORD,DIS,150,sava,,el,,1.1238,,627.7991,627.7992,-0.026666667,-0.386666667,0,0,0,,0,243,243,91,1,taza,,,
,,,,,,60daaa7f5ea36d3eff3c5709,676192165fb32c2e1fb7aee6,67d1558d740b22c52b1768e5,2025-03-12_03h40.33.427,Tarea de decisión léxica,2024.2.5,Win32,58.47953216,,,,,,,,,,,,,,,,,,,,,,,627.7998,629.4171,l,1,0.9576,1,629.4175,629.9179,,,,,,260,MAS,NOWORD,DIS,150,jaumo,,la,,0.9576,,629.918,629.9181,-0.026666667,-0.386666667,0,0,0,,0,244,244,259,1,juego,,,
,,,,,,60daaa7f5ea36d3eff3c5709,676192165fb32c2e1fb7aee6,67d1558d740b22c52b1768e5,2025-03-12_03h40.33.427,Tarea de decisión léxica,2024.2.5,Win32,58.47953216,,,,,,,,,,,,,,,,,,,,,,,629.9191,631.1351,a,1,0.5442,1,631.1352,631.6354,,,,,,245,FEM,WORD,AGR,150,madre,,la,,0.5442,,631.6354,631.6355,-0.026666667,-0.386666667,0,0,0,,0,245,245,244,1,pafle,,,
,,,,,,60daaa7f5ea36d3eff3c5709,676192165fb32c2e1fb7aee6,67d1558d740b22c52b1768e5,2025-03-12_03h40.33.427,Tarea de decisión léxica,2024.2.5,Win32,58.47953216,,,,,,,,,,,,,,,,,,,,,,,631.636,632.7863,a,1,0.4824,1,632.7863,633.2867,,,,,,65,MAS,WORD,AGR,150,dios,,el,,0.4824,,633.2867,633.2868,-0.026666667,-0.386666667,0,0,0,,0,246,246,64,1,nios,,,
,,,,,,60daaa7f5ea36d3eff3c5709,676192165fb32c2e1fb7aee6,67d1558d740b22c52b1768e5,2025-03-12_03h40.33.427,Tarea de decisión léxica,2024.2.5,Win32,58.47953216,,,,,,,,,,,,,,,,,,,,,,,633.2877,634.2037,a,1,0.2627,1,634.2037,634.7041,,,,,,391,MAS,WORD,DIS,150,dueño,,la,,0.2627,,634.705,634.7055,-0.026666667,-0.386666667,0,0,0,,0,247,247,390,1,dievo,,,
,,,,,,60daaa7f5ea36d3eff3c5709,676192165fb32c2e1fb7aee6,67d1558d740b22c52b1768e5,2025-03-12_03h40.33.427,Tarea de decisión léxica,2024.2.5,Win32,58.47953216,,,,,,,,,,,,,,,,,,,,,,,634.706,637.3567,,0,0.2627,-1,637.3575,637.8566,,,,,,51,FEM,WORD,DIS,150,caja,,el,,,,637.8568,637.8568,-0.026666667,-0.386666667,0,0,0,,0,248,248,50,1,mava,,,
,,,,,,60daaa7f5ea36d3eff3c5709,676192165fb32c2e1fb7aee6,67d1558d740b22c52b1768e5,2025-03-12_03h40.33.427,Tarea de decisión léxica,2024.2.5,Win32,58.47953216,,,,,,,,,,,,,,,,,,,,,,,637.8574,638.9578,a,1,0.4463,1,638.9583,639.4579,,,,,,445,MAS,WORD,AGR,150,actor,,el,,0.4463,,639.4579,639.458,-0.026666667,-0.386666667,0,0,0,,0,249,249,444,1,ascor,,,
,,,,,,60daaa7f5ea36d3eff3c5709,676192165fb32c2e1fb7aee6,67d1558d740b22c52b1768e5,2025-03-12_03h40.33.427,Tarea de decisión léxica,2024.2.5,Win32,58.47953216,,,,,,,,,,,,,,,,,,,,,,,639.4586,640.5091,a,1,0.3956,1,640.5091,641.0089,,,,,,267,MAS,WORD,DIS,150,libro,,la,,0.3956,,641.0089,641.0089,-0.026666667,-0.386666667,0,0,0,,0,250,250,266,1,figro,,,
,,,,,,60daaa7f5ea36d3eff3c5709,676192165fb32c2e1fb7aee6,67d1558d740b22c52b1768e5,2025-03-12_03h40.33.427,Tarea de decisión léxica,2024.2.5,Win32,58.47953216,,,,,,,,,,,,,,,,,,,,,,,641.0095,642.7939,l,1,1.1243,1,642.794,643.2945,,,,,,12,MAS,NOWORD,DIS,150,bapo,,la,,1.1243,,643.2952,643.2956,-0.026666667,-0.386666667,0,0,0,,0,251,251,11,1,lado,,,
,,,,,,60daaa7f5ea36d3eff3c5709,676192165fb32c2e1fb7aee6,67d1558d740b22c52b1768e5,2025-03-12_03h40.33.427,Tarea de decisión léxica,2024.2.5,Win32,58.47953216,,,,,,,,,,,,,,,,,,,,,,,643.296,644.5956,l,1,0.6234,1,644.5956,645.0956,,,,,,276,MAS,NOWORD,DIS,150,musto,,la,,0.6234,,645.0956,645.0957,-0.026666667,-0.386666667,0,0,0,,0,252,252,275,1,punto,,,
,,,,,,60daaa7f5ea36d3eff3c5709,676192165fb32c2e1fb7aee6,67d1558d740b22c52b1768e5,2025-03-12_03h40.33.427,Tarea de decisión léxica,2024.2.5,Win32,58.47953216,,,,,,,,,,,,,,,,,,,,,,,645.0962,646.2803,a,1,0.5265,1,646.2803,646.7806,,,,,,371,FEM,WORD,DIS,150,pasta,,el,,0.5265,,646.7807,646.7807,-0.026666667,-0.386666667,0,0,0,,0,253,253,370,1,mosta,,,
,,,,,,60daaa7f5ea36d3eff3c5709,676192165fb32c2e1fb7aee6,67d1558d740b22c52b1768e5,2025-03-12_03h40.33.427,Tarea de decisión léxica,2024.2.5,Win32,58.47953216,,,,,,,,,,,,,,,,,,,,,,,646.7816,648.1317,l,1,0.6725,1,648.1319,648.6318,,,,,,94,FEM,NOWORD,AGR,150,rona,,la,,0.6725,,648.6319,648.6319,-0.026666667,-0.386666667,0,0,0,,0,254,254,93,1,bola,,,
,,,,,,60daaa7f5ea36d3eff3c5709,676192165fb32c2e1fb7aee6,67d1558d740b22c52b1768e5,2025-03-12_03h40.33.427,Tarea de decisión léxica,2024.2.5,Win32,58.47953216,,,,,,,,,,,,,,,,,,,,,,,648.633,649.9828,a,1,0.6683,1,649.9829,650.4834,,,,,,109,MAS,WORD,AGR,150,rayo,,el,,0.6683,,650.4835,650.4836,-0.026666667,-0.386666667,0,0,0,,0,255,255,108,1,suno,,,
,,,,,,60daaa7f5ea36d3eff3c5709,676192165fb32c2e1fb7aee6,67d1558d740b22c52b1768e5,2025-03-12_03h40.33.427,Tarea de decisión léxica,2024.2.5,Win32,58.47953216,,,,,,,,,,,,,,,,,,,,,,,650.4846,653.1353,,0,0.6683,-1,653.1358,653.6358,,,,,,104,FEM,NOWORD,DIS,150,rova,,el,,,,653.6364,653.6369,-0.026666667,-0.386666667,0,0,0,,0,256,256,103,1,ruta,,,
,,,,,,60daaa7f5ea36d3eff3c5709,676192165fb32c2e1fb7aee6,67d1558d740b22c52b1768e5,2025-03-12_03h40.33.427,Tarea de decisión léxica,2024.2.5,Win32,58.47953216,,,,,,,,,,,,,,,,,,,,,,,653.6374,656.2874,,0,0.6683,-1,656.2875,656.7884,,,,,,20,MAS,NOWORD,DIS,150,himo,,la,,,,656.7885,656.7886,-0.026666667,-0.386666667,0,0,0,,0,257,257,19,1,niño,,,
,,,,,,60daaa7f5ea36d3eff3c5709,676192165fb32c2e1fb7aee6,67d1558d740b22c52b1768e5,2025-03-12_03h40.33.427,Tarea de decisión léxica,2024.2.5,Win32,58.47953216,,,,,,,,,,,,,,,,,,,,,,,656.7897,657.5054,a,0,0.0317,0,657.5058,658.0056,,,,,,344,FEM,NOWORD,DIS,150,trada,,el,,0.0317,,658.0057,658.0058,-0.026666667,-0.386666667,0,0,0,,0,258,258,343,1,plata,,,
,,,,,,60daaa7f5ea36d3eff3c5709,676192165fb32c2e1fb7aee6,67d1558d740b22c52b1768e5,2025-03-12_03h40.33.427,Tarea de decisión léxica,2024.2.5,Win32,58.47953216,,,,,,,,,,,,,,,,,,,,,,,658.0064,660.0568,l,1,1.3766,1,660.0573,660.5571,,,,,,40,MAS,NOWORD,DIS,150,redo,,la,,1.3766,,660.5571,660.5572,-0.026666667,-0.386666667,0,0,0,,0,259,259,39,1,voto,,,
,,,,,,60daaa7f5ea36d3eff3c5709,676192165fb32c2e1fb7aee6,67d1558d740b22c52b1768e5,2025-03-12_03h40.33.427,Tarea de decisión léxica,2024.2.5,Win32,58.47953216,,,,,,,,,,,,,,,,,,,,,,,660.5577,661.6087,a,1,0.3927,1,661.6088,662.109,,,,,,129,MAS,WORD,AGR,150,oído,,el,,0.3927,,662.109,662.109,-0.026666667,-0.386666667,0,0,0,,0,260,260,128,1,pima,,,
,,,,,,60daaa7f5ea36d3eff3c5709,676192165fb32c2e1fb7aee6,67d1558d740b22c52b1768e5,2025-03-12_03h40.33.427,Tarea de decisión léxica,2024.2.5,Win32,58.47953216,,,,,,,,,,,,,,,,,,,,,,,662.1096,663.3929,l,1,0.6011,1,663.393,663.8937,,,,,,42,FEM,NOWORD,AGR,150,haje,,la,,0.6011,,663.8945,663.895,-0.026666667,-0.386666667,0,0,0,,0,261,261,41,1,nave,,,
,,,,,,60daaa7f5ea36d3eff3c5709,676192165fb32c2e1fb7aee6,67d1558d740b22c52b1768e5,2025-03-12_03h40.33.427,Tarea de decisión léxica,2024.2.5,Win32,58.47953216,,,,,,,,,,,,,,,,,,,,,,,663.8955,665.5614,l,1,0.9835,1,665.5614,666.062,,,,,,322,MAS,NOWORD,AGR,150,rarco,,el,,0.9835,,666.062,666.0622,-0.026666667,-0.386666667,0,0,0,,0,262,262,321,1,banco,,,
,,,,,,60daaa7f5ea36d3eff3c5709,676192165fb32c2e1fb7aee6,67d1558d740b22c52b1768e5,2025-03-12_03h40.33.427,Tarea de decisión léxica,2024.2.5,Win32,58.47953216,,,,,,,,,,,,,,,,,,,,,,,666.0632,667.2625,a,1,0.5187,1,667.2625,667.7633,,,,,,379,MAS,WORD,DIS,150,turno,,la,,0.5187,,667.7634,667.7635,-0.026666667,-0.386666667,0,0,0,,0,263,263,378,1,tunso,,,
,,,,,,60daaa7f5ea36d3eff3c5709,676192165fb32c2e1fb7aee6,67d1558d740b22c52b1768e5,2025-03-12_03h40.33.427,Tarea de decisión léxica,2024.2.5,Win32,58.47953216,,,,,,,,,,,,,,,,,,,,,,,667.7645,668.8809,a,1,0.441,1,668.881,669.3811,,,,,,163,FEM,WORD,DIS,150,fama,,el,,0.441,,669.3812,669.3812,-0.026666667,-0.386666667,0,0,0,,0,264,264,162,1,laga,,,
