counterbalancing_condition,consent_prescreening.block_1/declare_consent,consent_prescreening.block_1/age_years,consent_prescreening.block_1/gender,consent_prescreening.block_1/language_disorder,consent_prescreening.block_1/first_language,PROLIFIC_PID,STUDY_ID,SESSION_ID,date,expName,psychopyVersion,OS,frameRate,check_prescreening_answers.started,check_prescreening_answers.stopped,Instructions.started,Instructions.stopped,instr_done_keyboard.keys,instr_done_keyboard.rt,instr_done_keyboard.duration,instr_done_touch.x,instr_done_touch.y,instr_done_touch.leftButton,instr_done_touch.midButton,instr_done_touch.rightButton,instruction_pages.thisRepN,instruction_pages.thisTrialN,instruction_pages.thisN,instruction_pages.thisIndex,instruction_pages.ran,pageN,phase,instruct_text,has_image,instruct_image,presentTrial.started,presentTrial.stopped,response.keys,response.corr,response.rt,response.duration,rt,corr,feedback.started,feedback.stopped,practice_trials.thisRepN,practice_trials.thisTrialN,practice_trials.thisN,practice_trials.thisIndex,practice_trials.ran,TrialID,Gender,StimulusType,Condition,PrimeDuration,Prime,len,Flanker,corrAns,Break.started,Break.stopped,break_done_touch.x,break_done_touch.y,break_done_touch.leftButton,break_done_touch.midButton,break_done_touch.rightButton,break_done_keyboard.keys,experiment_trials.thisRepN,experiment_trials.thisTrialN,experiment_trials.thisN,experiment_trials.thisIndex,experiment_trials.ran,PairedWith,break_done_keyboard.rt,break_done_keyboard.duration,End.started,End.stopped
2,"[""over_18"",""comfortable"",""read_info"",""consent_given""]",25,M,"[""none""]","[""spanish""]",60da1796c3e41ab8e6885c04,676192165fb32c2e1fb7aee6,67d1ab7e74592039b17bcba4,2025-03-12_09h45.17.331,Tarea de decisión léxica,2024.2.5,Win32,370.3703704,,,,,,,,,,,,,,,,,,,,,,,,,,,,,,,,,,,,,,,,,,,,,,,,,,,,,,,,,,,,,,,,
,,,,,,60da1796c3e41ab8e6885c04,676192165fb32c2e1fb7aee6,67d1ab7e74592039b17bcba4,2025-03-12_09h45.17.331,Tarea de decisión léxica,2024.2.5,Win32,370.3703704,57.4194,57.4195,,,,,,,,,,,,,,,,,,,,,,,,,,,,,,,,,,,,,,,,,,,,,,,,,,,,,,,,,,,,,,
,,,,,,60da1796c3e41ab8e6885c04,676192165fb32c2e1fb7aee6,67d1ab7e74592039b17bcba4,2025-03-12_09h45.17.331,Tarea de decisión léxica,2024.2.5,Win32,370.3703704,,,57.43,80.1941,space,22.7487,,0.031481481,-0.398148148,0,0,0,0,0,0,0,1,1,instructions,"INSTRUCCIONES
Va a realizar una prueba de decisión léxica. Desde el comienzo de la prueba mire siempre al centro de la pantalla. Se presentará una serie de cadenas de letras, una a la vez, en la pantalla. Su tarea consiste en determinar si cada cadena de letras constituye una palabra real en español o una no-palabra (una secuencia de letras que no constituye una palabra real). 

Pulse la tecla ESPACIO para continuar.",0,keyboardresponseWN.png,,,,,,,,,,,,,,,,,,,,,,,,,,,,,,,,,,,,,,,,,,
,,,,,,60da1796c3e41ab8e6885c04,676192165fb32c2e1fb7aee6,67d1ab7e74592039b17bcba4,2025-03-12_09h45.17.331,Tarea de decisión léxica,2024.2.5,Win32,370.3703704,,,80.1972,95.5451,space,15.341,,0.031481481,-0.398148148,0,0,0,0,1,1,1,1,2,instructions,"El procedimiento es el siguiente: Aparecerán dos barras verticales posicionadas en el centro de la pantalla, separadas por un pequeño espacio.Por favor, enfoque su atención en el espacio entre las barras. Esto preparará sus ojos para la siguiente cadena de letras, que aparecerá entre las dos barras durante un instante.

Pulse la tecla ESPACIO para continuar.",0,keyboardresponseWN.png,,,,,,,,,,,,,,,,,,,,,,,,,,,,,,,,,,,,,,,,,,
,,,,,,60da1796c3e41ab8e6885c04,676192165fb32c2e1fb7aee6,67d1ab7e74592039b17bcba4,2025-03-12_09h45.17.331,Tarea de decisión léxica,2024.2.5,Win32,370.3703704,,,95.5462,110.0841,space,14.5089,,0.031481481,-0.398148148,0,0,0,0,2,2,2,1,3,instructions,"En el teclado de su dispositivo, pulse la tecla ""A"" si la cadena de letras es una palabra real en español (por ejemplo: ""mano"") y la tecla ""L"" si la cadena de letras es una no-palabra (por ejemplo: ""minu"").
Pulse la tecla ESPACIO para continuar.",1,keyboardresponseWN.png,,,,,,,,,,,,,,,,,,,,,,,,,,,,,,,,,,,,,,,,,,
,,,,,,60da1796c3e41ab8e6885c04,676192165fb32c2e1fb7aee6,67d1ab7e74592039b17bcba4,2025-03-12_09h45.17.331,Tarea de decisión léxica,2024.2.5,Win32,370.3703704,,,110.0889,131.8225,space,21.7282,,0.031481481,-0.398148148,0,0,0,0,3,3,3,1,4,instructions,"Es muy importante que responda con la mayor rapidez y precisión posibles. Si no responde dentro de 2 segundos, aparecerá el mensaje ""Muy lento"" y el experimento pasará a la siguiente palabra. Inmediatamente después de su respuesta se indicará si fue correcta o no. Los primeros 15 intentos serán de práctica y habrá dos descansos durante la prueba.

Pulse la tecla ESPACIO  para iniciar la parte de práctica.",0,keyboardresponseWN.png,,,,,,,,,,,,,,,,,,,,,,,,,,,,,,,,,,,,,,,,,,
,,,,,,60da1796c3e41ab8e6885c04,676192165fb32c2e1fb7aee6,67d1ab7e74592039b17bcba4,2025-03-12_09h45.17.331,Tarea de decisión léxica,2024.2.5,Win32,370.3703704,,,,,,,,,,,,,,,,,,,,,,,131.8311,132.8724,l,0,0.3879,,0.3879,0,132.8731,133.3716,0,0,0,7,1,1008,MAS,WORD,DIS,150,frío,4,la,l,,,,,,,,,,,,,,,,,,
,,,,,,60da1796c3e41ab8e6885c04,676192165fb32c2e1fb7aee6,67d1ab7e74592039b17bcba4,2025-03-12_09h45.17.331,Tarea de decisión léxica,2024.2.5,Win32,370.3703704,,,,,,,,,,,,,,,,,,,,,,,133.3732,134.7081,a,1,0.6789,,0.6789,1,134.7092,135.2072,0,1,1,6,1,1007,MAS,WORD,DIS,150,masa,4,la,l,,,,,,,,,,,,,,,,,,
,,,,,,60da1796c3e41ab8e6885c04,676192165fb32c2e1fb7aee6,67d1ab7e74592039b17bcba4,2025-03-12_09h45.17.331,Tarea de decisión léxica,2024.2.5,Win32,370.3703704,,,,,,,,,,,,,,,,,,,,,,,135.2107,136.3304,a,0,0.4667,,0.4667,0,136.3321,136.8311,0,2,2,2,1,1003,FEM,NOWORD,DIS,150,muvor,5,el,a,,,,,,,,,,,,,,,,,,
,,,,,,60da1796c3e41ab8e6885c04,676192165fb32c2e1fb7aee6,67d1ab7e74592039b17bcba4,2025-03-12_09h45.17.331,Tarea de decisión léxica,2024.2.5,Win32,370.3703704,,,,,,,,,,,,,,,,,,,,,,,136.8352,138.2288,a,0,0.7413,,0.7413,0,138.2289,138.7272,0,3,3,3,1,1004,FEM,NOWORD,AGR,150,bireo,5,la,a,,,,,,,,,,,,,,,,,,
,,,,,,60da1796c3e41ab8e6885c04,676192165fb32c2e1fb7aee6,67d1ab7e74592039b17bcba4,2025-03-12_09h45.17.331,Tarea de decisión léxica,2024.2.5,Win32,370.3703704,,,,,,,,,,,,,,,,,,,,,,,138.7281,139.8312,a,1,0.4503,,0.4503,1,139.8317,140.3305,0,4,4,8,1,1009,FEM,WORD,AGR,150,viejo,5,la,l,,,,,,,,,,,,,,,,,,
,,,,,,60da1796c3e41ab8e6885c04,676192165fb32c2e1fb7aee6,67d1ab7e74592039b17bcba4,2025-03-12_09h45.17.331,Tarea de decisión léxica,2024.2.5,Win32,370.3703704,,,,,,,,,,,,,,,,,,,,,,,140.333,141.5654,l,1,0.5814,,0.5814,1,141.5655,142.0639,0,5,5,4,1,1005,MAS,NOWORD,DIS,150,nobad,5,la,a,,,,,,,,,,,,,,,,,,
,,,,,,60da1796c3e41ab8e6885c04,676192165fb32c2e1fb7aee6,67d1ab7e74592039b17bcba4,2025-03-12_09h45.17.331,Tarea de decisión léxica,2024.2.5,Win32,370.3703704,,,,,,,,,,,,,,,,,,,,,,,142.0657,143.3624,l,1,0.6442,,0.6442,1,143.3625,143.8607,0,6,6,0,1,1001,FEM,NOWORD,AGR,150,croz,4,la,a,,,,,,,,,,,,,,,,,,
,,,,,,60da1796c3e41ab8e6885c04,676192165fb32c2e1fb7aee6,67d1ab7e74592039b17bcba4,2025-03-12_09h45.17.331,Tarea de decisión léxica,2024.2.5,Win32,370.3703704,,,,,,,,,,,,,,,,,,,,,,,143.8628,145.1856,a,1,0.6697,,0.6697,1,145.1857,145.6867,0,7,7,5,1,1006,FEM,WORD,AGR,150,cara,4,la,l,,,,,,,,,,,,,,,,,,
,,,,,,60da1796c3e41ab8e6885c04,676192165fb32c2e1fb7aee6,67d1ab7e74592039b17bcba4,2025-03-12_09h45.17.331,Tarea de decisión léxica,2024.2.5,Win32,370.3703704,,,,,,,,,,,,,,,,,,,,,,,145.6873,146.846,a,1,0.5037,,0.5037,1,146.846,147.3476,0,8,8,9,1,1010,MAS,WORD,DIS,150,video,5,la,l,,,,,,,,,,,,,,,,,,
,,,,,,60da1796c3e41ab8e6885c04,676192165fb32c2e1fb7aee6,67d1ab7e74592039b17bcba4,2025-03-12_09h45.17.331,Tarea de decisión léxica,2024.2.5,Win32,370.3703704,,,,,,,,,,,,,,,,,,,,,,,147.3483,148.4517,l,1,0.4478,,0.4478,1,148.4517,148.9507,0,9,9,1,1,1002,FEM,NOWORD,DIS,150,mabo,4,el,a,,,,,,,,,,,,,,,,,,
,,,,,,60da1796c3e41ab8e6885c04,676192165fb32c2e1fb7aee6,67d1ab7e74592039b17bcba4,2025-03-12_09h45.17.331,Tarea de decisión léxica,2024.2.5,Win32,370.3703704,,,155.9496,167.8357,space,11.8811,,0.031481481,-0.398148148,0,0,0,,,,,,,,,,,167.8601,168.8572,a,1,0.3429,,0.3429,1,168.8573,169.357,,,,,,459,MAS,WORD,AGR,150,grado,,el,,169.3574,169.3615,0.031481481,-0.398148148,0,0,0,,0,0,0,458,1,fraco,,,,
,,,,,,60da1796c3e41ab8e6885c04,676192165fb32c2e1fb7aee6,67d1ab7e74592039b17bcba4,2025-03-12_09h45.17.331,Tarea de decisión léxica,2024.2.5,Win32,370.3703704,,,,,,,,,,,,,,,,,,,,,,,169.362,170.497,a,1,0.4806,,0.4806,1,170.4971,170.9975,,,,,,465,FEM,WORD,DIS,150,aguja,,el,,170.9975,170.9977,0.031481481,-0.398148148,0,0,0,,0,1,1,464,1,asuba,,,,
,,,,,,60da1796c3e41ab8e6885c04,676192165fb32c2e1fb7aee6,67d1ab7e74592039b17bcba4,2025-03-12_09h45.17.331,Tarea de decisión léxica,2024.2.5,Win32,370.3703704,,,,,,,,,,,,,,,,,,,,,,,170.9986,171.995,a,0,0.3451,,0.3451,0,171.9955,172.4966,,,,,,54,FEM,NOWORD,DIS,150,rora,,el,,172.5014,172.5019,0.031481481,-0.398148148,0,0,0,,0,2,2,53,1,boda,,,,
,,,,,,60da1796c3e41ab8e6885c04,676192165fb32c2e1fb7aee6,67d1ab7e74592039b17bcba4,2025-03-12_09h45.17.331,Tarea de decisión léxica,2024.2.5,Win32,370.3703704,,,,,,,,,,,,,,,,,,,,,,,172.5024,173.798,l,1,0.638,,0.638,1,173.7984,174.2978,,,,,,140,MAS,NOWORD,AGR,150,nila,,el,,174.2979,174.2979,0.031481481,-0.398148148,0,0,0,,0,3,3,139,1,mago,,,,
,,,,,,60da1796c3e41ab8e6885c04,676192165fb32c2e1fb7aee6,67d1ab7e74592039b17bcba4,2025-03-12_09h45.17.331,Tarea de decisión léxica,2024.2.5,Win32,370.3703704,,,,,,,,,,,,,,,,,,,,,,,174.2987,175.4609,a,1,0.5085,,0.5085,1,175.4609,175.9614,,,,,,405,FEM,WORD,DIS,150,barra,,el,,175.9614,175.9615,0.031481481,-0.398148148,0,0,0,,0,4,4,404,1,rarra,,,,
,,,,,,60da1796c3e41ab8e6885c04,676192165fb32c2e1fb7aee6,67d1ab7e74592039b17bcba4,2025-03-12_09h45.17.331,Tarea de decisión léxica,2024.2.5,Win32,370.3703704,,,,,,,,,,,,,,,,,,,,,,,175.9648,177.0256,a,1,0.4116,,0.4116,1,177.0256,177.5257,,,,,,381,MAS,WORD,DIS,150,humor,,la,,177.5258,177.5259,0.031481481,-0.398148148,0,0,0,,0,5,5,380,1,nusor,,,,
,,,,,,60da1796c3e41ab8e6885c04,676192165fb32c2e1fb7aee6,67d1ab7e74592039b17bcba4,2025-03-12_09h45.17.331,Tarea de decisión léxica,2024.2.5,Win32,370.3703704,,,,,,,,,,,,,,,,,,,,,,,177.5266,178.8029,l,1,0.6228,,0.6228,1,178.803,179.3011,,,,,,204,FEM,NOWORD,AGR,150,beja,,la,,179.3011,179.3013,0.031481481,-0.398148148,0,0,0,,0,6,6,203,1,leña,,,,
,,,,,,60da1796c3e41ab8e6885c04,676192165fb32c2e1fb7aee6,67d1ab7e74592039b17bcba4,2025-03-12_09h45.17.331,Tarea de decisión léxica,2024.2.5,Win32,370.3703704,,,,,,,,,,,,,,,,,,,,,,,179.3022,180.4187,a,1,0.464,,0.464,1,180.4188,180.9175,,,,,,135,MAS,WORD,AGR,150,tubo,,el,,180.9189,180.9195,0.031481481,-0.398148148,0,0,0,,0,7,7,134,1,geso,,,,
,,,,,,60da1796c3e41ab8e6885c04,676192165fb32c2e1fb7aee6,67d1ab7e74592039b17bcba4,2025-03-12_09h45.17.331,Tarea de decisión léxica,2024.2.5,Win32,370.3703704,,,,,,,,,,,,,,,,,,,,,,,180.92,182.075,a,1,0.5,,0.5,1,182.0751,182.5747,,,,,,39,MAS,WORD,AGR,150,voto,,el,,182.5748,182.575,0.031481481,-0.398148148,0,0,0,,0,8,8,38,1,redo,,,,
,,,,,,60da1796c3e41ab8e6885c04,676192165fb32c2e1fb7aee6,67d1ab7e74592039b17bcba4,2025-03-12_09h45.17.331,Tarea de decisión léxica,2024.2.5,Win32,370.3703704,,,,,,,,,,,,,,,,,,,,,,,182.5761,183.5395,a,1,0.3098,,0.3098,1,183.5396,184.0388,,,,,,283,MAS,WORD,AGR,150,sueño,,el,,184.0388,184.0389,0.031481481,-0.398148148,0,0,0,,0,9,9,282,1,tuevo,,,,
,,,,,,60da1796c3e41ab8e6885c04,676192165fb32c2e1fb7aee6,67d1ab7e74592039b17bcba4,2025-03-12_09h45.17.331,Tarea de decisión léxica,2024.2.5,Win32,370.3703704,,,,,,,,,,,,,,,,,,,,,,,184.0396,185.1128,l,1,0.4191,,0.4191,1,185.113,185.6125,,,,,,258,FEM,NOWORD,DIS,150,asama,,el,,185.6126,185.6127,0.031481481,-0.398148148,0,0,0,,0,10,10,257,1,amiga,,,,
,,,,,,60da1796c3e41ab8e6885c04,676192165fb32c2e1fb7aee6,67d1ab7e74592039b17bcba4,2025-03-12_09h45.17.331,Tarea de decisión léxica,2024.2.5,Win32,370.3703704,,,,,,,,,,,,,,,,,,,,,,,185.6145,186.6914,a,1,0.4233,,0.4233,1,186.6914,187.1927,,,,,,247,FEM,WORD,AGR,150,chica,,la,,187.194,187.1944,0.031481481,-0.398148148,0,0,0,,0,11,11,246,1,trida,,,,
,,,,,,60da1796c3e41ab8e6885c04,676192165fb32c2e1fb7aee6,67d1ab7e74592039b17bcba4,2025-03-12_09h45.17.331,Tarea de decisión léxica,2024.2.5,Win32,370.3703704,,,,,,,,,,,,,,,,,,,,,,,187.1964,188.5449,l,1,0.6946,,0.6946,1,188.545,189.0435,,,,,,336,FEM,NOWORD,AGR,150,pesta,,la,,189.0435,189.0436,0.031481481,-0.398148148,0,0,0,,0,12,12,335,1,costa,,,,
,,,,,,60da1796c3e41ab8e6885c04,676192165fb32c2e1fb7aee6,67d1ab7e74592039b17bcba4,2025-03-12_09h45.17.331,Tarea de decisión léxica,2024.2.5,Win32,370.3703704,,,,,,,,,,,,,,,,,,,,,,,189.0442,190.03,a,1,0.3313,,0.3313,1,190.0303,190.5294,,,,,,5,FEM,WORD,DIS,150,cosa,,el,,190.5296,190.53,0.031481481,-0.398148148,0,0,0,,0,13,13,4,1,poga,,,,
,,,,,,60da1796c3e41ab8e6885c04,676192165fb32c2e1fb7aee6,67d1ab7e74592039b17bcba4,2025-03-12_09h45.17.331,Tarea de decisión léxica,2024.2.5,Win32,370.3703704,,,,,,,,,,,,,,,,,,,,,,,190.5327,191.5045,a,1,0.3194,,0.3194,1,191.5046,192.0061,,,,,,451,FEM,WORD,AGR,150,fruta,,la,,192.0061,192.0062,0.031481481,-0.398148148,0,0,0,,0,14,14,450,1,clita,,,,
,,,,,,60da1796c3e41ab8e6885c04,676192165fb32c2e1fb7aee6,67d1ab7e74592039b17bcba4,2025-03-12_09h45.17.331,Tarea de decisión léxica,2024.2.5,Win32,370.3703704,,,,,,,,,,,,,,,,,,,,,,,192.0089,193.2553,l,0,0.5884,,0.5884,0,193.2562,193.757,,,,,,475,FEM,WORD,AGR,150,manta,,la,,193.757,193.7571,0.031481481,-0.398148148,0,0,0,,0,15,15,474,1,mucta,,,,
,,,,,,60da1796c3e41ab8e6885c04,676192165fb32c2e1fb7aee6,67d1ab7e74592039b17bcba4,2025-03-12_09h45.17.331,Tarea de decisión léxica,2024.2.5,Win32,370.3703704,,,,,,,,,,,,,,,,,,,,,,,193.7581,194.8946,l,1,0.4806,,0.4806,1,194.8953,195.3944,,,,,,396,FEM,NOWORD,AGR,150,paeda,,la,,195.3953,195.3956,0.031481481,-0.398148148,0,0,0,,0,16,16,395,1,caída,,,,
,,,,,,60da1796c3e41ab8e6885c04,676192165fb32c2e1fb7aee6,67d1ab7e74592039b17bcba4,2025-03-12_09h45.17.331,Tarea de decisión léxica,2024.2.5,Win32,370.3703704,,,,,,,,,,,,,,,,,,,,,,,195.3974,196.4897,a,1,0.4386,,0.4386,1,196.49,196.9894,,,,,,473,FEM,WORD,DIS,150,feria,,el,,196.9894,196.9894,0.031481481,-0.398148148,0,0,0,,0,17,17,472,1,felia,,,,
,,,,,,60da1796c3e41ab8e6885c04,676192165fb32c2e1fb7aee6,67d1ab7e74592039b17bcba4,2025-03-12_09h45.17.331,Tarea de decisión léxica,2024.2.5,Win32,370.3703704,,,,,,,,,,,,,,,,,,,,,,,196.9914,198.1386,a,1,0.4901,,0.4901,1,198.1387,198.6378,,,,,,437,FEM,WORD,DIS,150,plaza,,el,,198.6379,198.6379,0.031481481,-0.398148148,0,0,0,,0,18,18,436,1,glava,,,,
,,,,,,60da1796c3e41ab8e6885c04,676192165fb32c2e1fb7aee6,67d1ab7e74592039b17bcba4,2025-03-12_09h45.17.331,Tarea de decisión léxica,2024.2.5,Win32,370.3703704,,,,,,,,,,,,,,,,,,,,,,,198.6384,199.7178,l,1,0.4256,,0.4256,1,199.718,200.215,,,,,,232,FEM,NOWORD,AGR,150,heta,,la,,200.215,200.2151,0.031481481,-0.398148148,0,0,0,,0,19,19,231,1,bota,,,,
,,,,,,60da1796c3e41ab8e6885c04,676192165fb32c2e1fb7aee6,67d1ab7e74592039b17bcba4,2025-03-12_09h45.17.331,Tarea de decisión léxica,2024.2.5,Win32,370.3703704,,,,,,,,,,,,,,,,,,,,,,,200.217,201.2436,a,1,0.3732,,0.3732,1,201.2437,201.7445,,,,,,177,MAS,WORD,DIS,150,reto,,la,,201.7446,201.7447,0.031481481,-0.398148148,0,0,0,,0,20,20,176,1,bito,,,,
,,,,,,60da1796c3e41ab8e6885c04,676192165fb32c2e1fb7aee6,67d1ab7e74592039b17bcba4,2025-03-12_09h45.17.331,Tarea de decisión léxica,2024.2.5,Win32,370.3703704,,,,,,,,,,,,,,,,,,,,,,,201.7455,202.8347,l,1,0.4358,,0.4358,1,202.8348,203.3337,,,,,,432,MAS,NOWORD,AGR,150,tetor,,el,,203.3347,203.3352,0.031481481,-0.398148148,0,0,0,,0,21,21,431,1,motor,,,,
,,,,,,60da1796c3e41ab8e6885c04,676192165fb32c2e1fb7aee6,67d1ab7e74592039b17bcba4,2025-03-12_09h45.17.331,Tarea de decisión léxica,2024.2.5,Win32,370.3703704,,,,,,,,,,,,,,,,,,,,,,,203.3366,204.3552,a,1,0.3647,,0.3647,1,204.3554,204.8555,,,,,,225,MAS,WORD,DIS,150,lodo,,la,,204.8561,204.8567,0.031481481,-0.398148148,0,0,0,,0,22,22,224,1,boco,,,,
,,,,,,60da1796c3e41ab8e6885c04,676192165fb32c2e1fb7aee6,67d1ab7e74592039b17bcba4,2025-03-12_09h45.17.331,Tarea de decisión léxica,2024.2.5,Win32,370.3703704,,,,,,,,,,,,,,,,,,,,,,,204.859,205.8917,l,1,0.3801,,0.3801,1,205.892,206.3907,,,,,,12,MAS,NOWORD,AGR,150,bapo,,el,,206.3908,206.3908,0.031481481,-0.398148148,0,0,0,,0,23,23,11,1,lado,,,,
,,,,,,60da1796c3e41ab8e6885c04,676192165fb32c2e1fb7aee6,67d1ab7e74592039b17bcba4,2025-03-12_09h45.17.331,Tarea de decisión léxica,2024.2.5,Win32,370.3703704,,,,,,,,,,,,,,,,,,,,,,,206.3913,207.5708,a,1,0.5262,,0.5262,1,207.5709,208.0723,,,,,,461,FEM,WORD,DIS,150,tabla,,el,,208.0724,208.0724,0.031481481,-0.398148148,0,0,0,,0,24,24,460,1,pagra,,,,
,,,,,,60da1796c3e41ab8e6885c04,676192165fb32c2e1fb7aee6,67d1ab7e74592039b17bcba4,2025-03-12_09h45.17.331,Tarea de decisión léxica,2024.2.5,Win32,370.3703704,,,,,,,,,,,,,,,,,,,,,,,208.0731,209.0979,a,1,0.3733,,0.3733,1,209.0979,209.5966,,,,,,245,FEM,WORD,DIS,150,madre,,el,,209.5967,209.5967,0.031481481,-0.398148148,0,0,0,,0,25,25,244,1,pafle,,,,
,,,,,,60da1796c3e41ab8e6885c04,676192165fb32c2e1fb7aee6,67d1ab7e74592039b17bcba4,2025-03-12_09h45.17.331,Tarea de decisión léxica,2024.2.5,Win32,370.3703704,,,,,,,,,,,,,,,,,,,,,,,209.5976,210.79,l,1,0.5403,,0.5403,1,210.7901,211.2904,,,,,,100,MAS,NOWORD,AGR,150,soro,,el,,211.2917,211.2934,0.031481481,-0.398148148,0,0,0,,0,26,26,99,1,lobo,,,,
,,,,,,60da1796c3e41ab8e6885c04,676192165fb32c2e1fb7aee6,67d1ab7e74592039b17bcba4,2025-03-12_09h45.17.331,Tarea de decisión léxica,2024.2.5,Win32,370.3703704,,,,,,,,,,,,,,,,,,,,,,,211.2958,212.397,a,1,0.4465,,0.4465,1,212.397,212.8968,,,,,,87,MAS,WORD,AGR,150,vaso,,el,,212.8968,212.8969,0.031481481,-0.398148148,0,0,0,,0,27,27,86,1,damo,,,,
,,,,,,60da1796c3e41ab8e6885c04,676192165fb32c2e1fb7aee6,67d1ab7e74592039b17bcba4,2025-03-12_09h45.17.331,Tarea de decisión léxica,2024.2.5,Win32,370.3703704,,,,,,,,,,,,,,,,,,,,,,,212.8975,213.9599,l,1,0.4086,,0.4086,1,213.9599,214.4583,,,,,,436,MAS,NOWORD,AGR,150,ricno,,el,,214.4583,214.4584,0.031481481,-0.398148148,0,0,0,,0,28,28,435,1,ritmo,,,,
,,,,,,60da1796c3e41ab8e6885c04,676192165fb32c2e1fb7aee6,67d1ab7e74592039b17bcba4,2025-03-12_09h45.17.331,Tarea de decisión léxica,2024.2.5,Win32,370.3703704,,,,,,,,,,,,,,,,,,,,,,,214.4591,215.5369,l,1,0.4244,,0.4244,1,215.537,216.0356,,,,,,136,MAS,NOWORD,AGR,150,geso,,el,,216.0357,216.0357,0.031481481,-0.398148148,0,0,0,,0,29,29,135,1,tubo,,,,
,,,,,,60da1796c3e41ab8e6885c04,676192165fb32c2e1fb7aee6,67d1ab7e74592039b17bcba4,2025-03-12_09h45.17.331,Tarea de decisión léxica,2024.2.5,Win32,370.3703704,,,,,,,,,,,,,,,,,,,,,,,216.0364,217.1379,a,1,0.4483,,0.4483,1,217.1379,217.6383,,,,,,287,FEM,WORD,AGR,150,lista,,la,,217.6383,217.6384,0.031481481,-0.398148148,0,0,0,,0,30,30,286,1,fosta,,,,
,,,,,,60da1796c3e41ab8e6885c04,676192165fb32c2e1fb7aee6,67d1ab7e74592039b17bcba4,2025-03-12_09h45.17.331,Tarea de decisión léxica,2024.2.5,Win32,370.3703704,,,,,,,,,,,,,,,,,,,,,,,217.6389,218.7814,a,1,0.4868,,0.4868,1,218.7814,219.2793,,,,,,25,FEM,WORD,DIS,150,cama,,el,,219.2806,219.2819,0.031481481,-0.398148148,0,0,0,,0,31,31,24,1,paza,,,,
,,,,,,60da1796c3e41ab8e6885c04,676192165fb32c2e1fb7aee6,67d1ab7e74592039b17bcba4,2025-03-12_09h45.17.331,Tarea de decisión léxica,2024.2.5,Win32,370.3703704,,,,,,,,,,,,,,,,,,,,,,,219.2833,220.3868,a,1,0.4509,,0.4509,1,220.3868,220.8875,,,,,,149,MAS,WORD,DIS,150,cabo,,la,,220.8876,220.8877,0.031481481,-0.398148148,0,0,0,,0,32,32,148,1,pafo,,,,
,,,,,,60da1796c3e41ab8e6885c04,676192165fb32c2e1fb7aee6,67d1ab7e74592039b17bcba4,2025-03-12_09h45.17.331,Tarea de decisión léxica,2024.2.5,Win32,370.3703704,,,,,,,,,,,,,,,,,,,,,,,220.8882,221.9088,a,1,0.3671,,0.3671,1,221.9088,222.4071,,,,,,299,FEM,WORD,AGR,150,bolsa,,la,,222.4071,222.4071,0.031481481,-0.398148148,0,0,0,,0,33,33,298,1,bosga,,,,
,,,,,,60da1796c3e41ab8e6885c04,676192165fb32c2e1fb7aee6,67d1ab7e74592039b17bcba4,2025-03-12_09h45.17.331,Tarea de decisión léxica,2024.2.5,Win32,370.3703704,,,,,,,,,,,,,,,,,,,,,,,222.4092,223.4498,l,1,0.3863,,0.3863,1,223.4499,223.9503,,,,,,38,MAS,NOWORD,DIS,150,gaco,,la,,223.9504,223.9504,0.031481481,-0.398148148,0,0,0,,0,34,34,37,1,rato,,,,
,,,,,,60da1796c3e41ab8e6885c04,676192165fb32c2e1fb7aee6,67d1ab7e74592039b17bcba4,2025-03-12_09h45.17.331,Tarea de decisión léxica,2024.2.5,Win32,370.3703704,,,,,,,,,,,,,,,,,,,,,,,223.951,224.8685,a,1,0.2632,,0.2632,1,224.8687,225.3695,,,,,,193,FEM,WORD,DIS,150,loca,,el,,225.3718,225.3724,0.031481481,-0.398148148,0,0,0,,0,35,35,192,1,foda,,,,
,,,,,,60da1796c3e41ab8e6885c04,676192165fb32c2e1fb7aee6,67d1ab7e74592039b17bcba4,2025-03-12_09h45.17.331,Tarea de decisión léxica,2024.2.5,Win32,370.3703704,,,,,,,,,,,,,,,,,,,,,,,225.374,226.2886,l,1,0.2633,,0.2633,1,226.2888,226.7876,,,,,,170,MAS,NOWORD,DIS,150,mibo,,la,,226.7878,226.7879,0.031481481,-0.398148148,0,0,0,,0,36,36,169,1,cubo,,,,
,,,,,,60da1796c3e41ab8e6885c04,676192165fb32c2e1fb7aee6,67d1ab7e74592039b17bcba4,2025-03-12_09h45.17.331,Tarea de decisión léxica,2024.2.5,Win32,370.3703704,,,,,,,,,,,,,,,,,,,,,,,226.7902,227.7156,a,0,0.2713,,0.2713,0,227.7161,228.2153,,,,,,430,FEM,NOWORD,DIS,150,tenta,,el,,228.2154,228.2154,0.031481481,-0.398148148,0,0,0,,0,37,37,429,1,tarta,,,,
,,,,,,60da1796c3e41ab8e6885c04,676192165fb32c2e1fb7aee6,67d1ab7e74592039b17bcba4,2025-03-12_09h45.17.331,Tarea de decisión léxica,2024.2.5,Win32,370.3703704,,,,,,,,,,,,,,,,,,,,,,,228.2174,229.2444,a,1,0.3771,,0.3771,1,229.2447,229.7429,,,,,,471,FEM,WORD,AGR,150,grasa,,la,,229.743,229.7431,0.031481481,-0.398148148,0,0,0,,0,38,38,470,1,prana,,,,
,,,,,,60da1796c3e41ab8e6885c04,676192165fb32c2e1fb7aee6,67d1ab7e74592039b17bcba4,2025-03-12_09h45.17.331,Tarea de decisión léxica,2024.2.5,Win32,370.3703704,,,,,,,,,,,,,,,,,,,,,,,229.745,230.7292,l,1,0.3323,,0.3323,1,230.7292,231.2271,,,,,,260,MAS,NOWORD,AGR,150,jaumo,,el,,231.2271,231.2271,0.031481481,-0.398148148,0,0,0,,0,39,39,259,1,juego,,,,
,,,,,,60da1796c3e41ab8e6885c04,676192165fb32c2e1fb7aee6,67d1ab7e74592039b17bcba4,2025-03-12_09h45.17.331,Tarea de decisión léxica,2024.2.5,Win32,370.3703704,,,,,,,,,,,,,,,,,,,,,,,231.2276,232.0707,a,1,0.1914,,0.1914,1,232.0707,232.5717,,,,,,375,FEM,WORD,AGR,150,salsa,,la,,232.5729,232.5735,0.031481481,-0.398148148,0,0,0,,0,40,40,374,1,sasna,,,,
,,,,,,60da1796c3e41ab8e6885c04,676192165fb32c2e1fb7aee6,67d1ab7e74592039b17bcba4,2025-03-12_09h45.17.331,Tarea de decisión léxica,2024.2.5,Win32,370.3703704,,,,,,,,,,,,,,,,,,,,,,,232.574,233.5532,l,1,0.3239,,0.3239,1,233.5533,234.0547,,,,,,158,MAS,NOWORD,DIS,150,hico,,la,,234.0547,234.0548,0.031481481,-0.398148148,0,0,0,,0,41,41,157,1,nido,,,,
,,,,,,60da1796c3e41ab8e6885c04,676192165fb32c2e1fb7aee6,67d1ab7e74592039b17bcba4,2025-03-12_09h45.17.331,Tarea de decisión léxica,2024.2.5,Win32,370.3703704,,,,,,,,,,,,,,,,,,,,,,,234.0562,235.1567,l,1,0.4483,,0.4483,1,235.1567,235.6571,,,,,,112,MAS,NOWORD,AGR,150,siro,,el,,235.6571,235.6572,0.031481481,-0.398148148,0,0,0,,0,42,42,111,1,muro,,,,
,,,,,,60da1796c3e41ab8e6885c04,676192165fb32c2e1fb7aee6,67d1ab7e74592039b17bcba4,2025-03-12_09h45.17.331,Tarea de decisión léxica,2024.2.5,Win32,370.3703704,,,,,,,,,,,,,,,,,,,,,,,235.6601,236.641,l,1,0.3276,,0.3276,1,236.641,237.1398,,,,,,274,FEM,NOWORD,DIS,150,frosa,,el,,237.1398,237.1399,0.031481481,-0.398148148,0,0,0,,0,43,43,273,1,broma,,,,
,,,,,,60da1796c3e41ab8e6885c04,676192165fb32c2e1fb7aee6,67d1ab7e74592039b17bcba4,2025-03-12_09h45.17.331,Tarea de decisión léxica,2024.2.5,Win32,370.3703704,,,,,,,,,,,,,,,,,,,,,,,237.1407,238.0756,a,1,0.282,,0.282,1,238.0758,238.5787,,,,,,441,FEM,WORD,DIS,150,selva,,el,,238.5787,238.5789,0.031481481,-0.398148148,0,0,0,,0,44,44,440,1,telza,,,,
,,,,,,60da1796c3e41ab8e6885c04,676192165fb32c2e1fb7aee6,67d1ab7e74592039b17bcba4,2025-03-12_09h45.17.331,Tarea de decisión léxica,2024.2.5,Win32,370.3703704,,,,,,,,,,,,,,,,,,,,,,,238.5796,239.7158,l,1,0.4841,,0.4841,1,239.7158,240.2168,,,,,,52,FEM,NOWORD,AGR,150,mava,,la,,240.2176,240.2181,0.031481481,-0.398148148,0,0,0,,0,45,45,51,1,caja,,,,
,,,,,,60da1796c3e41ab8e6885c04,676192165fb32c2e1fb7aee6,67d1ab7e74592039b17bcba4,2025-03-12_09h45.17.331,Tarea de decisión léxica,2024.2.5,Win32,370.3703704,,,,,,,,,,,,,,,,,,,,,,,240.2185,241.4497,l,1,0.5753,,0.5753,1,241.4498,241.9498,,,,,,64,FEM,NOWORD,AGR,150,funa,,la,,241.9498,241.9499,0.031481481,-0.398148148,0,0,0,,0,46,46,63,1,luna,,,,
,,,,,,60da1796c3e41ab8e6885c04,676192165fb32c2e1fb7aee6,67d1ab7e74592039b17bcba4,2025-03-12_09h45.17.331,Tarea de decisión léxica,2024.2.5,Win32,370.3703704,,,,,,,,,,,,,,,,,,,,,,,241.9507,242.9849,a,1,0.3816,,0.3816,1,242.9849,243.4851,,,,,,69,FEM,WORD,DIS,150,zona,,el,,243.4852,243.4852,0.031481481,-0.398148148,0,0,0,,0,47,47,68,1,ñola,,,,
,,,,,,60da1796c3e41ab8e6885c04,676192165fb32c2e1fb7aee6,67d1ab7e74592039b17bcba4,2025-03-12_09h45.17.331,Tarea de decisión léxica,2024.2.5,Win32,370.3703704,,,,,,,,,,,,,,,,,,,,,,,243.4883,244.5852,a,1,0.4441,,0.4441,1,244.5853,245.0847,,,,,,151,MAS,WORD,AGR,150,tomo,,el,,245.0848,245.0849,0.031481481,-0.398148148,0,0,0,,0,48,48,150,1,sogo,,,,
,,,,,,60da1796c3e41ab8e6885c04,676192165fb32c2e1fb7aee6,67d1ab7e74592039b17bcba4,2025-03-12_09h45.17.331,Tarea de decisión léxica,2024.2.5,Win32,370.3703704,,,,,,,,,,,,,,,,,,,,,,,245.0867,246.1958,a,1,0.4579,,0.4579,1,246.1961,246.6953,,,,,,423,MAS,WORD,AGR,150,queso,,el,,246.6954,246.6954,0.031481481,-0.398148148,0,0,0,,0,49,49,422,1,quigo,,,,
,,,,,,60da1796c3e41ab8e6885c04,676192165fb32c2e1fb7aee6,67d1ab7e74592039b17bcba4,2025-03-12_09h45.17.331,Tarea de decisión léxica,2024.2.5,Win32,370.3703704,,,,,,,,,,,,,,,,,,,,,,,246.6972,247.6478,l,1,0.296,,0.296,1,247.648,248.1462,,,,,,178,MAS,NOWORD,DIS,150,bito,,la,,248.1467,248.1471,0.031481481,-0.398148148,0,0,0,,0,50,50,177,1,reto,,,,
,,,,,,60da1796c3e41ab8e6885c04,676192165fb32c2e1fb7aee6,67d1ab7e74592039b17bcba4,2025-03-12_09h45.17.331,Tarea de decisión léxica,2024.2.5,Win32,370.3703704,,,,,,,,,,,,,,,,,,,,,,,248.1476,249.2967,l,1,0.4938,,0.4938,1,249.2968,249.7982,,,,,,126,MAS,NOWORD,DIS,150,vudo,,la,,249.7982,249.7982,0.031481481,-0.398148148,0,0,0,,0,51,51,125,1,lujo,,,,
,,,,,,60da1796c3e41ab8e6885c04,676192165fb32c2e1fb7aee6,67d1ab7e74592039b17bcba4,2025-03-12_09h45.17.331,Tarea de decisión léxica,2024.2.5,Win32,370.3703704,,,,,,,,,,,,,,,,,,,,,,,249.7987,250.775,a,1,0.3226,,0.3226,1,250.7752,251.2731,,,,,,257,FEM,WORD,DIS,150,amiga,,el,,251.2731,251.2731,0.031481481,-0.398148148,0,0,0,,0,52,52,256,1,asama,,,,
,,,,,,60da1796c3e41ab8e6885c04,676192165fb32c2e1fb7aee6,67d1ab7e74592039b17bcba4,2025-03-12_09h45.17.331,Tarea de decisión léxica,2024.2.5,Win32,370.3703704,,,,,,,,,,,,,,,,,,,,,,,251.2736,252.2703,l,0,0.3401,,0.3401,0,252.271,252.7719,,,,,,77,MAS,WORD,DIS,150,loco,,la,,252.7719,252.772,0.031481481,-0.398148148,0,0,0,,0,53,53,76,1,fodo,,,,
,,,,,,60da1796c3e41ab8e6885c04,676192165fb32c2e1fb7aee6,67d1ab7e74592039b17bcba4,2025-03-12_09h45.17.331,Tarea de decisión léxica,2024.2.5,Win32,370.3703704,,,,,,,,,,,,,,,,,,,,,,,252.7729,253.8611,l,1,0.4335,,0.4335,1,253.8617,254.3586,,,,,,176,FEM,NOWORD,AGR,150,hosa,,la,,254.3586,254.3587,0.031481481,-0.398148148,0,0,0,,0,54,54,175,1,goma,,,,
,,,,,,60da1796c3e41ab8e6885c04,676192165fb32c2e1fb7aee6,67d1ab7e74592039b17bcba4,2025-03-12_09h45.17.331,Tarea de decisión léxica,2024.2.5,Win32,370.3703704,,,,,,,,,,,,,,,,,,,,,,,254.3595,255.2904,a,1,0.2773,,0.2773,1,255.2905,255.7923,,,,,,269,MAS,WORD,DIS,150,perro,,la,,255.793,255.7938,0.031481481,-0.398148148,0,0,0,,0,55,55,268,1,mello,,,,
,,,,,,60da1796c3e41ab8e6885c04,676192165fb32c2e1fb7aee6,67d1ab7e74592039b17bcba4,2025-03-12_09h45.17.331,Tarea de decisión léxica,2024.2.5,Win32,370.3703704,,,,,,,,,,,,,,,,,,,,,,,255.7961,257.0392,l,1,0.5891,,0.5891,1,257.0393,257.5391,,,,,,10,MAS,NOWORD,DIS,150,sibo,,la,,257.5392,257.5392,0.031481481,-0.398148148,0,0,0,,0,56,56,9,1,tipo,,,,
,,,,,,60da1796c3e41ab8e6885c04,676192165fb32c2e1fb7aee6,67d1ab7e74592039b17bcba4,2025-03-12_09h45.17.331,Tarea de decisión léxica,2024.2.5,Win32,370.3703704,,,,,,,,,,,,,,,,,,,,,,,257.5411,258.4997,a,1,0.3034,,0.3034,1,258.4998,258.9995,,,,,,389,MAS,WORD,DIS,150,cerdo,,la,,258.9995,258.9997,0.031481481,-0.398148148,0,0,0,,0,57,57,388,1,cenco,,,,
,,,,,,60da1796c3e41ab8e6885c04,676192165fb32c2e1fb7aee6,67d1ab7e74592039b17bcba4,2025-03-12_09h45.17.331,Tarea de decisión léxica,2024.2.5,Win32,370.3703704,,,,,,,,,,,,,,,,,,,,,,,259.0015,259.9656,l,0,0.3132,,0.3132,0,259.9662,260.4661,,,,,,343,FEM,WORD,AGR,150,plata,,la,,260.4662,260.4663,0.031481481,-0.398148148,0,0,0,,0,58,58,342,1,trada,,,,
,,,,,,60da1796c3e41ab8e6885c04,676192165fb32c2e1fb7aee6,67d1ab7e74592039b17bcba4,2025-03-12_09h45.17.331,Tarea de decisión léxica,2024.2.5,Win32,370.3703704,,,,,,,,,,,,,,,,,,,,,,,260.4679,261.5054,l,1,0.3843,,0.3843,1,261.5072,262.0043,,,,,,142,FEM,NOWORD,DIS,150,sina,,el,,262.0049,262.0053,0.031481481,-0.398148148,0,0,0,,0,59,59,141,1,cruz,,,,
,,,,,,60da1796c3e41ab8e6885c04,676192165fb32c2e1fb7aee6,67d1ab7e74592039b17bcba4,2025-03-12_09h45.17.331,Tarea de decisión léxica,2024.2.5,Win32,370.3703704,,,,,,,,,,,,,,,,,,,,,,,262.0057,263.085,l,1,0.4258,,0.4258,1,263.085,263.584,,,,,,444,MAS,NOWORD,AGR,150,taron,,el,,263.584,263.584,0.031481481,-0.398148148,0,0,0,,0,60,60,443,1,salón,,,,
,,,,,,60da1796c3e41ab8e6885c04,676192165fb32c2e1fb7aee6,67d1ab7e74592039b17bcba4,2025-03-12_09h45.17.331,Tarea de decisión léxica,2024.2.5,Win32,370.3703704,,,,,,,,,,,,,,,,,,,,,,,263.586,264.6225,a,1,0.383,,0.383,1,264.6227,265.121,,,,,,413,FEM,WORD,DIS,150,rueda,,el,,265.121,265.1212,0.031481481,-0.398148148,0,0,0,,0,61,61,412,1,bieda,,,,
,,,,,,60da1796c3e41ab8e6885c04,676192165fb32c2e1fb7aee6,67d1ab7e74592039b17bcba4,2025-03-12_09h45.17.331,Tarea de decisión léxica,2024.2.5,Win32,370.3703704,,,,,,,,,,,,,,,,,,,,,,,265.1225,266.2376,l,0,0.4619,,0.4619,0,266.2393,266.74,,,,,,265,FEM,WORD,DIS,150,mitad,,el,,266.7402,266.7404,0.031481481,-0.398148148,0,0,0,,0,62,62,264,1,pitat,,,,
,,,,,,60da1796c3e41ab8e6885c04,676192165fb32c2e1fb7aee6,67d1ab7e74592039b17bcba4,2025-03-12_09h45.17.331,Tarea de decisión léxica,2024.2.5,Win32,370.3703704,,,,,,,,,,,,,,,,,,,,,,,266.741,267.9257,l,1,0.5294,,0.5294,1,267.9276,268.4273,,,,,,50,FEM,NOWORD,DIS,150,ecat,,el,,268.4273,268.4274,0.031481481,-0.398148148,0,0,0,,0,63,63,49,1,edad,,,,
,,,,,,60da1796c3e41ab8e6885c04,676192165fb32c2e1fb7aee6,67d1ab7e74592039b17bcba4,2025-03-12_09h45.17.331,Tarea de decisión léxica,2024.2.5,Win32,370.3703704,,,,,,,,,,,,,,,,,,,,,,,268.4294,269.5434,a,1,0.463,,0.463,1,269.5434,270.0424,,,,,,243,MAS,WORD,AGR,150,amigo,,el,,270.0431,270.0434,0.031481481,-0.398148148,0,0,0,,0,64,64,242,1,asamo,,,,
,,,,,,60da1796c3e41ab8e6885c04,676192165fb32c2e1fb7aee6,67d1ab7e74592039b17bcba4,2025-03-12_09h45.17.331,Tarea de decisión léxica,2024.2.5,Win32,370.3703704,,,,,,,,,,,,,,,,,,,,,,,270.0438,271.2147,a,1,0.5176,,0.5176,1,271.2149,271.7145,,,,,,181,FEM,WORD,DIS,150,seda,,el,,271.7146,271.7146,0.031481481,-0.398148148,0,0,0,,0,65,65,180,1,teda,,,,
,,,,,,60da1796c3e41ab8e6885c04,676192165fb32c2e1fb7aee6,67d1ab7e74592039b17bcba4,2025-03-12_09h45.17.331,Tarea de decisión léxica,2024.2.5,Win32,370.3703704,,,,,,,,,,,,,,,,,,,,,,,271.7154,272.7906,a,1,0.4227,,0.4227,1,272.7906,273.29,,,,,,377,MAS,WORD,DIS,150,hielo,,la,,273.29,273.2902,0.031481481,-0.398148148,0,0,0,,0,66,66,376,1,gaulo,,,,
,,,,,,60da1796c3e41ab8e6885c04,676192165fb32c2e1fb7aee6,67d1ab7e74592039b17bcba4,2025-03-12_09h45.17.331,Tarea de decisión léxica,2024.2.5,Win32,370.3703704,,,,,,,,,,,,,,,,,,,,,,,273.2921,274.3255,a,1,0.3823,,0.3823,1,274.3257,274.8256,,,,,,359,MAS,WORD,AGR,150,calor,,el,,274.8257,274.8258,0.031481481,-0.398148148,0,0,0,,0,67,67,358,1,cacer,,,,
,,,,,,60da1796c3e41ab8e6885c04,676192165fb32c2e1fb7aee6,67d1ab7e74592039b17bcba4,2025-03-12_09h45.17.331,Tarea de decisión léxica,2024.2.5,Win32,370.3703704,,,,,,,,,,,,,,,,,,,,,,,274.8267,275.9242,a,1,0.445,,0.445,1,275.9244,276.4253,,,,,,383,FEM,WORD,AGR,150,frase,,la,,276.4254,276.4255,0.031481481,-0.398148148,0,0,0,,0,68,68,382,1,brame,,,,
,,,,,,60da1796c3e41ab8e6885c04,676192165fb32c2e1fb7aee6,67d1ab7e74592039b17bcba4,2025-03-12_09h45.17.331,Tarea de decisión léxica,2024.2.5,Win32,370.3703704,,,,,,,,,,,,,,,,,,,,,,,276.4264,277.3547,a,1,0.2748,,0.2748,1,277.3548,277.8548,,,,,,109,MAS,WORD,DIS,150,rayo,,la,,277.8559,277.8562,0.031481481,-0.398148148,0,0,0,,0,69,69,108,1,suno,,,,
,,,,,,60da1796c3e41ab8e6885c04,676192165fb32c2e1fb7aee6,67d1ab7e74592039b17bcba4,2025-03-12_09h45.17.331,Tarea de decisión léxica,2024.2.5,Win32,370.3703704,,,,,,,,,,,,,,,,,,,,,,,277.8566,278.9152,l,1,0.4049,,0.4049,1,278.9152,279.42,,,,,,416,FEM,NOWORD,AGR,150,juira,,la,,279.4201,279.4204,0.031481481,-0.398148148,0,0,0,,0,70,70,415,1,jaula,,,,
,,,,,,60da1796c3e41ab8e6885c04,676192165fb32c2e1fb7aee6,67d1ab7e74592039b17bcba4,2025-03-12_09h45.17.331,Tarea de decisión léxica,2024.2.5,Win32,370.3703704,,,,,,,,,,,,,,,,,,,,,,,279.4213,280.3973,l,0,0.3235,,0.3235,0,280.3977,280.8974,,,,,,53,FEM,WORD,DIS,150,boda,,el,,280.8974,280.8975,0.031481481,-0.398148148,0,0,0,,0,71,71,52,1,rora,,,,
,,,,,,60da1796c3e41ab8e6885c04,676192165fb32c2e1fb7aee6,67d1ab7e74592039b17bcba4,2025-03-12_09h45.17.331,Tarea de decisión léxica,2024.2.5,Win32,370.3703704,,,,,,,,,,,,,,,,,,,,,,,280.8981,281.8936,a,1,0.3416,,0.3416,1,281.894,282.3949,,,,,,277,MAS,WORD,DIS,150,fuego,,la,,282.395,282.395,0.031481481,-0.398148148,0,0,0,,0,72,72,276,1,vuemo,,,,
,,,,,,60da1796c3e41ab8e6885c04,676192165fb32c2e1fb7aee6,67d1ab7e74592039b17bcba4,2025-03-12_09h45.17.331,Tarea de decisión léxica,2024.2.5,Win32,370.3703704,,,,,,,,,,,,,,,,,,,,,,,282.3969,283.4656,l,1,0.4178,,0.4178,1,283.4658,283.9657,,,,,,326,FEM,NOWORD,DIS,150,mabia,,el,,283.9658,283.9659,0.031481481,-0.398148148,0,0,0,,0,73,73,325,1,magia,,,,
,,,,,,60da1796c3e41ab8e6885c04,676192165fb32c2e1fb7aee6,67d1ab7e74592039b17bcba4,2025-03-12_09h45.17.331,Tarea de decisión léxica,2024.2.5,Win32,370.3703704,,,,,,,,,,,,,,,,,,,,,,,283.9667,285.3029,l,1,0.6803,,0.6803,1,285.3031,285.8024,,,,,,230,MAS,NOWORD,DIS,150,ador,,la,,285.8054,285.8059,0.031481481,-0.398148148,0,0,0,,0,74,74,229,1,amor,,,,
,,,,,,60da1796c3e41ab8e6885c04,676192165fb32c2e1fb7aee6,67d1ab7e74592039b17bcba4,2025-03-12_09h45.17.331,Tarea de decisión léxica,2024.2.5,Win32,370.3703704,,,,,,,,,,,,,,,,,,,,,,,285.8064,286.7837,a,1,0.3246,,0.3246,1,286.7837,287.2815,,,,,,101,MAS,WORD,DIS,150,tono,,la,,287.2815,287.2815,0.031481481,-0.398148148,0,0,0,,0,75,75,100,1,gito,,,,
,,,,,,60da1796c3e41ab8e6885c04,676192165fb32c2e1fb7aee6,67d1ab7e74592039b17bcba4,2025-03-12_09h45.17.331,Tarea de decisión léxica,2024.2.5,Win32,370.3703704,,,,,,,,,,,,,,,,,,,,,,,287.2822,288.2248,a,1,0.288,,0.288,1,288.2249,288.7229,,,,,,103,FEM,WORD,AGR,150,ruta,,la,,288.7229,288.723,0.031481481,-0.398148148,0,0,0,,0,76,76,102,1,rova,,,,
,,,,,,60da1796c3e41ab8e6885c04,676192165fb32c2e1fb7aee6,67d1ab7e74592039b17bcba4,2025-03-12_09h45.17.331,Tarea de decisión léxica,2024.2.5,Win32,370.3703704,,,,,,,,,,,,,,,,,,,,,,,288.7235,289.778,a,1,0.4018,,0.4018,1,289.7781,290.2801,,,,,,27,MAS,WORD,AGR,150,baño,,el,,290.2802,290.2804,0.031481481,-0.398148148,0,0,0,,0,77,77,26,1,ravo,,,,
,,,,,,60da1796c3e41ab8e6885c04,676192165fb32c2e1fb7aee6,67d1ab7e74592039b17bcba4,2025-03-12_09h45.17.331,Tarea de decisión léxica,2024.2.5,Win32,370.3703704,,,,,,,,,,,,,,,,,,,,,,,290.2814,291.2039,l,1,0.2675,,0.2675,1,291.2041,291.703,,,,,,352,MAS,NOWORD,AGR,150,duepo,,el,,291.7031,291.7031,0.031481481,-0.398148148,0,0,0,,0,78,78,351,1,vuelo,,,,
,,,,,,60da1796c3e41ab8e6885c04,676192165fb32c2e1fb7aee6,67d1ab7e74592039b17bcba4,2025-03-12_09h45.17.331,Tarea de decisión léxica,2024.2.5,Win32,370.3703704,,,,,,,,,,,,,,,,,,,,,,,291.705,292.6297,l,1,0.2739,,0.2739,1,292.6298,293.1292,,,,,,200,MAS,NOWORD,AGR,150,fano,,el,,293.131,293.1323,0.031481481,-0.398148148,0,0,0,,0,79,79,199,1,lazo,,,,
,,,,,,60da1796c3e41ab8e6885c04,676192165fb32c2e1fb7aee6,67d1ab7e74592039b17bcba4,2025-03-12_09h45.17.331,Tarea de decisión léxica,2024.2.5,Win32,370.3703704,,,,,,,,,,,,,,,,,,,,,,,293.133,294.0373,l,1,0.2504,,0.2504,1,294.0373,294.5376,,,,,,62,FEM,NOWORD,DIS,150,efla,,el,,294.5377,294.5377,0.031481481,-0.398148148,0,0,0,,0,80,80,61,1,obra,,,,
,,,,,,60da1796c3e41ab8e6885c04,676192165fb32c2e1fb7aee6,67d1ab7e74592039b17bcba4,2025-03-12_09h45.17.331,Tarea de decisión léxica,2024.2.5,Win32,370.3703704,,,,,,,,,,,,,,,,,,,,,,,294.5397,295.3944,l,1,0.2006,,0.2006,1,295.3945,295.8939,,,,,,360,MAS,NOWORD,AGR,150,cacer,,el,,295.894,295.894,0.031481481,-0.398148148,0,0,0,,0,81,81,359,1,calor,,,,
,,,,,,60da1796c3e41ab8e6885c04,676192165fb32c2e1fb7aee6,67d1ab7e74592039b17bcba4,2025-03-12_09h45.17.331,Tarea de decisión léxica,2024.2.5,Win32,370.3703704,,,,,,,,,,,,,,,,,,,,,,,295.8947,297.0237,l,1,0.4748,,0.4748,1,297.0238,297.5225,,,,,,122,MAS,NOWORD,DIS,150,bomo,,la,,297.5226,297.5227,0.031481481,-0.398148148,0,0,0,,0,82,82,121,1,hoyo,,,,
,,,,,,60da1796c3e41ab8e6885c04,676192165fb32c2e1fb7aee6,67d1ab7e74592039b17bcba4,2025-03-12_09h45.17.331,Tarea de decisión léxica,2024.2.5,Win32,370.3703704,,,,,,,,,,,,,,,,,,,,,,,297.5231,298.4856,a,1,0.3104,,0.3104,1,298.4857,298.985,,,,,,99,MAS,WORD,AGR,150,lobo,,el,,298.9856,298.986,0.031481481,-0.398148148,0,0,0,,0,83,83,98,1,soro,,,,
,,,,,,60da1796c3e41ab8e6885c04,676192165fb32c2e1fb7aee6,67d1ab7e74592039b17bcba4,2025-03-12_09h45.17.331,Tarea de decisión léxica,2024.2.5,Win32,370.3703704,,,,,,,,,,,,,,,,,,,,,,,298.9862,299.8945,l,1,0.2533,,0.2533,1,299.8947,300.3946,,,,,,20,MAS,NOWORD,AGR,150,himo,,el,,300.3946,300.3947,0.031481481,-0.398148148,0,0,0,,0,84,84,19,1,niño,,,,
,,,,,,60da1796c3e41ab8e6885c04,676192165fb32c2e1fb7aee6,67d1ab7e74592039b17bcba4,2025-03-12_09h45.17.331,Tarea de decisión léxica,2024.2.5,Win32,370.3703704,,,,,,,,,,,,,,,,,,,,,,,300.3955,301.4157,l,1,0.3669,,0.3669,1,301.4158,301.9147,,,,,,220,FEM,NOWORD,AGR,150,miva,,la,,301.9147,301.9148,0.031481481,-0.398148148,0,0,0,,0,85,85,219,1,pipa,,,,
,,,,,,60da1796c3e41ab8e6885c04,676192165fb32c2e1fb7aee6,67d1ab7e74592039b17bcba4,2025-03-12_09h45.17.331,Tarea de decisión léxica,2024.2.5,Win32,370.3703704,,,,,,,,,,,,,,,,,,,,,,,301.9165,302.8923,a,1,0.3232,,0.3232,1,302.8923,303.3923,,,,,,19,MAS,WORD,AGR,150,niño,,el,,303.3924,303.3924,0.031481481,-0.398148148,0,0,0,,0,86,86,18,1,himo,,,,
,,,,,,60da1796c3e41ab8e6885c04,676192165fb32c2e1fb7aee6,67d1ab7e74592039b17bcba4,2025-03-12_09h45.17.331,Tarea de decisión léxica,2024.2.5,Win32,370.3703704,,,,,,,,,,,,,,,,,,,,,,,303.3932,304.3464,a,1,0.2986,,0.2986,1,304.3465,304.8445,,,,,,107,MAS,WORD,AGR,150,saco,,el,,304.8445,304.8446,0.031481481,-0.398148148,0,0,0,,0,87,87,106,1,raot,,,,
,,,,,,60da1796c3e41ab8e6885c04,676192165fb32c2e1fb7aee6,67d1ab7e74592039b17bcba4,2025-03-12_09h45.17.331,Tarea de decisión léxica,2024.2.5,Win32,370.3703704,,,,,,,,,,,,,,,,,,,,,,,304.8454,305.8255,a,0,0.3256,,0.3256,0,305.8273,306.3245,,,,,,422,MAS,NOWORD,DIS,150,griso,,la,,306.3266,306.3284,0.031481481,-0.398148148,0,0,0,,0,88,88,421,1,primo,,,,
,,,,,,60da1796c3e41ab8e6885c04,676192165fb32c2e1fb7aee6,67d1ab7e74592039b17bcba4,2025-03-12_09h45.17.331,Tarea de decisión léxica,2024.2.5,Win32,370.3703704,,,,,,,,,,,,,,,,,,,,,,,306.3295,307.2915,l,1,0.3077,,0.3077,1,307.2919,307.7916,,,,,,454,FEM,NOWORD,DIS,150,pafia,,el,,307.7917,307.7917,0.031481481,-0.398148148,0,0,0,,0,89,89,453,1,mafia,,,,
,,,,,,60da1796c3e41ab8e6885c04,676192165fb32c2e1fb7aee6,67d1ab7e74592039b17bcba4,2025-03-12_09h45.17.331,Tarea de decisión léxica,2024.2.5,Win32,370.3703704,,,,,,,,,,,,,,,,,,,,,,,307.7926,308.7195,a,1,0.2705,,0.2705,1,308.7195,309.2205,,,,,,331,MAS,WORD,AGR,150,éxito,,el,,309.2206,309.2207,0.031481481,-0.398148148,0,0,0,,0,90,90,330,1,erato,,,,
,,,,,,60da1796c3e41ab8e6885c04,676192165fb32c2e1fb7aee6,67d1ab7e74592039b17bcba4,2025-03-12_09h45.17.331,Tarea de decisión léxica,2024.2.5,Win32,370.3703704,,,,,,,,,,,,,,,,,,,,,,,309.2225,310.2306,a,1,0.3545,,0.3545,1,310.2307,310.7304,,,,,,157,MAS,WORD,DIS,150,nido,,la,,310.7305,310.7305,0.031481481,-0.398148148,0,0,0,,0,91,91,156,1,hico,,,,
,,,,,,60da1796c3e41ab8e6885c04,676192165fb32c2e1fb7aee6,67d1ab7e74592039b17bcba4,2025-03-12_09h45.17.331,Tarea de decisión léxica,2024.2.5,Win32,370.3703704,,,,,,,,,,,,,,,,,,,,,,,310.7311,311.8068,l,1,0.4226,,0.4226,1,311.8069,312.3064,,,,,,442,FEM,NOWORD,DIS,150,telza,,el,,312.3064,312.3065,0.031481481,-0.398148148,0,0,0,,0,92,92,441,1,selva,,,,
,,,,,,60da1796c3e41ab8e6885c04,676192165fb32c2e1fb7aee6,67d1ab7e74592039b17bcba4,2025-03-12_09h45.17.331,Tarea de decisión léxica,2024.2.5,Win32,370.3703704,,,,,,,,,,,,,,,,,,,,,,,312.3073,313.4276,a,0,0.4656,,0.4656,0,313.4283,313.927,,,,,,34,FEM,NOWORD,DIS,150,loda,,el,,313.9291,313.9296,0.031481481,-0.398148148,0,0,0,,0,93,93,33,1,boca,,,,
,,,,,,60da1796c3e41ab8e6885c04,676192165fb32c2e1fb7aee6,67d1ab7e74592039b17bcba4,2025-03-12_09h45.17.331,Tarea de decisión léxica,2024.2.5,Win32,370.3703704,,,,,,,,,,,,,,,,,,,,,,,313.931,314.9098,a,0,0.3231,,0.3231,0,314.91,315.41,,,,,,400,MAS,NOWORD,AGR,150,serro,,el,,315.4101,315.4101,0.031481481,-0.398148148,0,0,0,,0,94,94,399,1,techo,,,,
,,,,,,60da1796c3e41ab8e6885c04,676192165fb32c2e1fb7aee6,67d1ab7e74592039b17bcba4,2025-03-12_09h45.17.331,Tarea de decisión léxica,2024.2.5,Win32,370.3703704,,,,,,,,,,,,,,,,,,,,,,,315.4109,316.5386,l,1,0.472,,0.472,1,316.5389,317.0393,,,,,,28,MAS,NOWORD,AGR,150,ravo,,el,,317.0394,317.0394,0.031481481,-0.398148148,0,0,0,,0,95,95,27,1,baño,,,,
,,,,,,60da1796c3e41ab8e6885c04,676192165fb32c2e1fb7aee6,67d1ab7e74592039b17bcba4,2025-03-12_09h45.17.331,Tarea de decisión léxica,2024.2.5,Win32,370.3703704,,,,,,,,,,,,,,,,,,,,,,,317.0399,318.0205,l,1,0.3268,,0.3268,1,318.0208,318.5197,,,,,,24,FEM,NOWORD,AGR,150,giva,,la,,318.5197,318.5197,0.031481481,-0.398148148,0,0,0,,0,96,96,23,1,hija,,,,
,,,,,,60da1796c3e41ab8e6885c04,676192165fb32c2e1fb7aee6,67d1ab7e74592039b17bcba4,2025-03-12_09h45.17.331,Tarea de decisión léxica,2024.2.5,Win32,370.3703704,,,,,,,,,,,,,,,,,,,,,,,318.521,319.7847,a,1,0.6105,,0.6105,1,319.7847,320.2866,,,,,,427,FEM,WORD,AGR,150,oreja,,la,,320.2866,320.2866,0.031481481,-0.398148148,0,0,0,,0,97,97,426,1,oseva,,,,
,,,,,,60da1796c3e41ab8e6885c04,676192165fb32c2e1fb7aee6,67d1ab7e74592039b17bcba4,2025-03-12_09h45.17.331,Tarea de decisión léxica,2024.2.5,Win32,370.3703704,,,,,,,,,,,,,,,,,,,,,,,320.2873,321.3261,a,1,0.3829,,0.3829,1,321.3261,321.8248,,,,,,395,FEM,WORD,AGR,150,caída,,la,,321.8268,321.8274,0.031481481,-0.398148148,0,0,0,,0,98,98,394,1,paeda,,,,
,,,,,,60da1796c3e41ab8e6885c04,676192165fb32c2e1fb7aee6,67d1ab7e74592039b17bcba4,2025-03-12_09h45.17.331,Tarea de decisión léxica,2024.2.5,Win32,370.3703704,,,,,,,,,,,,,,,,,,,,,,,321.8279,322.8866,l,1,0.4054,,0.4054,1,322.8867,323.3856,,,,,,462,FEM,NOWORD,DIS,150,pagra,,el,,323.3856,323.3857,0.031481481,-0.398148148,0,0,0,,0,99,99,461,1,tabla,,,,
,,,,,,60da1796c3e41ab8e6885c04,676192165fb32c2e1fb7aee6,67d1ab7e74592039b17bcba4,2025-03-12_09h45.17.331,Tarea de decisión léxica,2024.2.5,Win32,370.3703704,,,,,,,,,,,,,,,,,,,,,,,323.3864,324.496,l,1,0.4552,,0.4552,1,324.496,324.9953,,,,,,202,FEM,NOWORD,DIS,150,cusa,,el,,324.9953,324.9953,0.031481481,-0.398148148,0,0,0,,0,100,100,201,1,cuna,,,,
,,,,,,60da1796c3e41ab8e6885c04,676192165fb32c2e1fb7aee6,67d1ab7e74592039b17bcba4,2025-03-12_09h45.17.331,Tarea de decisión léxica,2024.2.5,Win32,370.3703704,,,,,,,,,,,,,,,,,,,,,,,324.9959,326.008,l,1,0.359,,0.359,1,326.008,326.5069,,,,,,246,FEM,NOWORD,DIS,150,pafle,,el,,326.5069,326.507,0.031481481,-0.398148148,0,0,0,,0,101,101,245,1,madre,,,,
,,,,,,60da1796c3e41ab8e6885c04,676192165fb32c2e1fb7aee6,67d1ab7e74592039b17bcba4,2025-03-12_09h45.17.331,Tarea de decisión léxica,2024.2.5,Win32,370.3703704,,,,,,,,,,,,,,,,,,,,,,,326.5077,327.5412,a,1,0.3765,,0.3765,1,327.5413,328.0407,,,,,,79,FEM,WORD,AGR,150,piel,,la,,328.0408,328.0414,0.031481481,-0.398148148,0,0,0,,0,102,102,78,1,ciel,,,,
,,,,,,60da1796c3e41ab8e6885c04,676192165fb32c2e1fb7aee6,67d1ab7e74592039b17bcba4,2025-03-12_09h45.17.331,Tarea de decisión léxica,2024.2.5,Win32,370.3703704,,,,,,,,,,,,,,,,,,,,,,,328.0442,329.0077,l,1,0.3096,,0.3096,1,329.0078,329.5076,,,,,,464,FEM,NOWORD,AGR,150,matla,,la,,329.5093,329.5106,0.031481481,-0.398148148,0,0,0,,0,103,103,463,1,cabra,,,,
,,,,,,60da1796c3e41ab8e6885c04,676192165fb32c2e1fb7aee6,67d1ab7e74592039b17bcba4,2025-03-12_09h45.17.331,Tarea de decisión léxica,2024.2.5,Win32,370.3703704,,,,,,,,,,,,,,,,,,,,,,,329.5111,330.6336,l,1,0.469,,0.469,1,330.6337,331.1326,,,,,,270,MAS,NOWORD,DIS,150,mello,,la,,331.1326,331.1327,0.031481481,-0.398148148,0,0,0,,0,104,104,269,1,perro,,,,
,,,,,,60da1796c3e41ab8e6885c04,676192165fb32c2e1fb7aee6,67d1ab7e74592039b17bcba4,2025-03-12_09h45.17.331,Tarea de decisión léxica,2024.2.5,Win32,370.3703704,,,,,,,,,,,,,,,,,,,,,,,331.1334,332.1823,a,1,0.3932,,0.3932,1,332.1823,332.6804,,,,,,189,MAS,WORD,DIS,150,puño,,la,,332.6804,332.6805,0.031481481,-0.398148148,0,0,0,,0,105,105,188,1,muvo,,,,
,,,,,,60da1796c3e41ab8e6885c04,676192165fb32c2e1fb7aee6,67d1ab7e74592039b17bcba4,2025-03-12_09h45.17.331,Tarea de decisión léxica,2024.2.5,Win32,370.3703704,,,,,,,,,,,,,,,,,,,,,,,332.6811,333.7248,l,1,0.3922,,0.3922,1,333.7249,334.2224,,,,,,30,MAS,NOWORD,DIS,150,pono,,la,,334.2224,334.2224,0.031481481,-0.398148148,0,0,0,,0,106,106,29,1,modo,,,,
,,,,,,60da1796c3e41ab8e6885c04,676192165fb32c2e1fb7aee6,67d1ab7e74592039b17bcba4,2025-03-12_09h45.17.331,Tarea de decisión léxica,2024.2.5,Win32,370.3703704,,,,,,,,,,,,,,,,,,,,,,,334.223,335.344,a,1,0.4669,,0.4669,1,335.344,335.8459,,,,,,93,FEM,WORD,DIS,150,bola,,el,,335.8495,335.8502,0.031481481,-0.398148148,0,0,0,,0,107,107,92,1,rona,,,,
,,,,,,60da1796c3e41ab8e6885c04,676192165fb32c2e1fb7aee6,67d1ab7e74592039b17bcba4,2025-03-12_09h45.17.331,Tarea de decisión léxica,2024.2.5,Win32,370.3703704,,,,,,,,,,,,,,,,,,,,,,,335.8507,336.8077,l,1,0.3034,,0.3034,1,336.8078,337.306,,,,,,308,MAS,NOWORD,AGR,150,holol,,el,,337.3061,337.3062,0.031481481,-0.398148148,0,0,0,,0,108,108,307,1,hotel,,,,
,,,,,,60da1796c3e41ab8e6885c04,676192165fb32c2e1fb7aee6,67d1ab7e74592039b17bcba4,2025-03-12_09h45.17.331,Tarea de decisión léxica,2024.2.5,Win32,370.3703704,,,,,,,,,,,,,,,,,,,,,,,337.3072,338.2372,l,1,0.2748,,0.2748,1,338.2373,338.7386,,,,,,40,MAS,NOWORD,AGR,150,redo,,el,,338.7386,338.7387,0.031481481,-0.398148148,0,0,0,,0,109,109,39,1,voto,,,,
,,,,,,60da1796c3e41ab8e6885c04,676192165fb32c2e1fb7aee6,67d1ab7e74592039b17bcba4,2025-03-12_09h45.17.331,Tarea de decisión léxica,2024.2.5,Win32,370.3703704,,,,,,,,,,,,,,,,,,,,,,,338.7396,339.7339,a,1,0.34,,0.34,1,339.734,340.2334,,,,,,379,MAS,WORD,AGR,150,turno,,el,,340.2334,340.2334,0.031481481,-0.398148148,0,0,0,,0,110,110,378,1,tunso,,,,
,,,,,,60da1796c3e41ab8e6885c04,676192165fb32c2e1fb7aee6,67d1ab7e74592039b17bcba4,2025-03-12_09h45.17.331,Tarea de decisión léxica,2024.2.5,Win32,370.3703704,,,,,,,,,,,,,,,,,,,,,,,340.2342,341.3609,a,1,0.4732,,0.4732,1,341.3609,341.8624,,,,,,463,FEM,WORD,AGR,150,cabra,,la,,341.8625,341.8626,0.031481481,-0.398148148,0,0,0,,0,111,111,462,1,matla,,,,
,,,,,,60da1796c3e41ab8e6885c04,676192165fb32c2e1fb7aee6,67d1ab7e74592039b17bcba4,2025-03-12_09h45.17.331,Tarea de decisión léxica,2024.2.5,Win32,370.3703704,,,,,,,,,,,,,,,,,,,,,,,341.8644,342.8396,l,1,0.3244,,0.3244,1,342.8397,343.3393,,,,,,172,MAS,NOWORD,AGR,150,niro,,el,,343.3398,343.3403,0.031481481,-0.398148148,0,0,0,,0,112,112,171,1,hilo,,,,
,,,,,,60da1796c3e41ab8e6885c04,676192165fb32c2e1fb7aee6,67d1ab7e74592039b17bcba4,2025-03-12_09h45.17.331,Tarea de decisión léxica,2024.2.5,Win32,370.3703704,,,,,,,,,,,,,,,,,,,,,,,343.3418,344.3992,a,1,0.4033,,0.4033,1,344.3992,344.8967,,,,,,311,MAS,WORD,AGR,150,honor,,el,,344.8967,344.8968,0.031481481,-0.398148148,0,0,0,,0,113,113,310,1,nosor,,,,
,,,,,,60da1796c3e41ab8e6885c04,676192165fb32c2e1fb7aee6,67d1ab7e74592039b17bcba4,2025-03-12_09h45.17.331,Tarea de decisión léxica,2024.2.5,Win32,370.3703704,,,,,,,,,,,,,,,,,,,,,,,344.8972,345.8733,a,1,0.3229,,0.3229,1,345.8734,346.3745,,,,,,63,FEM,WORD,AGR,150,luna,,la,,346.3746,346.3746,0.031481481,-0.398148148,0,0,0,,0,114,114,62,1,funa,,,,
,,,,,,60da1796c3e41ab8e6885c04,676192165fb32c2e1fb7aee6,67d1ab7e74592039b17bcba4,2025-03-12_09h45.17.331,Tarea de decisión léxica,2024.2.5,Win32,370.3703704,,,,,,,,,,,,,,,,,,,,,,,346.3758,347.487,l,1,0.4562,,0.4562,1,347.4871,347.9867,,,,,,374,FEM,NOWORD,DIS,150,pogza,,el,,347.9867,347.9868,0.031481481,-0.398148148,0,0,0,,0,115,115,373,1,pizza,,,,
,,,,,,60da1796c3e41ab8e6885c04,676192165fb32c2e1fb7aee6,67d1ab7e74592039b17bcba4,2025-03-12_09h45.17.331,Tarea de decisión léxica,2024.2.5,Win32,370.3703704,,,,,,,,,,,,,,,,,,,,,,,347.9873,348.9977,a,1,0.3551,,0.3551,1,348.9977,349.4962,,,,,,259,MAS,WORD,AGR,150,juego,,el,,349.4962,349.4962,0.031481481,-0.398148148,0,0,0,,0,116,116,258,1,jaumo,,,,
,,,,,,60da1796c3e41ab8e6885c04,676192165fb32c2e1fb7aee6,67d1ab7e74592039b17bcba4,2025-03-12_09h45.17.331,Tarea de decisión léxica,2024.2.5,Win32,370.3703704,,,,,,,,,,,,,,,,,,,,,,,349.4981,350.4918,l,1,0.3429,,0.3429,1,350.4919,350.9926,,,,,,252,MAS,NOWORD,AGR,150,refor,,el,,350.9944,350.9949,0.031481481,-0.398148148,0,0,0,,0,117,117,251,1,señor,,,,
,,,,,,60da1796c3e41ab8e6885c04,676192165fb32c2e1fb7aee6,67d1ab7e74592039b17bcba4,2025-03-12_09h45.17.331,Tarea de decisión léxica,2024.2.5,Win32,370.3703704,,,,,,,,,,,,,,,,,,,,,,,350.9953,352.0314,l,1,0.383,,0.383,1,352.0315,352.5297,,,,,,166,FEM,NOWORD,DIS,150,dera,,el,,352.5297,352.5298,0.031481481,-0.398148148,0,0,0,,0,118,118,165,1,vela,,,,
,,,,,,60da1796c3e41ab8e6885c04,676192165fb32c2e1fb7aee6,67d1ab7e74592039b17bcba4,2025-03-12_09h45.17.331,Tarea de decisión léxica,2024.2.5,Win32,370.3703704,,,,,,,,,,,,,,,,,,,,,,,352.5306,353.4061,l,1,0.2222,,0.2222,1,353.4063,353.9048,,,,,,372,FEM,NOWORD,AGR,150,mosta,,la,,353.9049,353.9049,0.031481481,-0.398148148,0,0,0,,0,119,119,371,1,pasta,,,,
,,,,,,60da1796c3e41ab8e6885c04,676192165fb32c2e1fb7aee6,67d1ab7e74592039b17bcba4,2025-03-12_09h45.17.331,Tarea de decisión léxica,2024.2.5,Win32,370.3703704,,,,,,,,,,,,,,,,,,,,,,,353.9056,354.7882,l,1,0.2304,,0.2304,1,354.7883,355.2879,,,,,,198,MAS,NOWORD,DIS,150,dade,,la,,355.2879,355.2881,0.031481481,-0.398148148,0,0,0,,0,120,120,197,1,bate,,,,
,,,,,,60da1796c3e41ab8e6885c04,676192165fb32c2e1fb7aee6,67d1ab7e74592039b17bcba4,2025-03-12_09h45.17.331,Tarea de decisión léxica,2024.2.5,Win32,370.3703704,,,,,,,,,,,,,,,,,,,,,,,355.2899,356.2343,l,1,0.2902,,0.2902,1,356.2344,356.736,,,,,,300,FEM,NOWORD,AGR,150,bosga,,la,,356.7361,356.7363,0.031481481,-0.398148148,0,0,0,,0,121,121,299,1,bolsa,,,,
,,,,,,60da1796c3e41ab8e6885c04,676192165fb32c2e1fb7aee6,67d1ab7e74592039b17bcba4,2025-03-12_09h45.17.331,Tarea de decisión léxica,2024.2.5,Win32,370.3703704,,,,,,,,,,,,,,,,,,,,,,,356.7387,357.8061,a,1,0.4163,,0.4163,1,357.8061,358.3062,,,,,,467,MAS,WORD,AGR,150,piano,,el,,358.308,358.3094,0.031481481,-0.398148148,0,0,0,,0,122,122,466,1,peiso,,,,
,,,,,,60da1796c3e41ab8e6885c04,676192165fb32c2e1fb7aee6,67d1ab7e74592039b17bcba4,2025-03-12_09h45.17.331,Tarea de decisión léxica,2024.2.5,Win32,370.3703704,,,,,,,,,,,,,,,,,,,,,,,358.3102,359.3959,l,1,0.4319,,0.4319,1,359.3959,359.8973,,,,,,324,FEM,NOWORD,AGR,150,certa,,la,,359.8974,359.8975,0.031481481,-0.398148148,0,0,0,,0,123,123,323,1,cinta,,,,
,,,,,,60da1796c3e41ab8e6885c04,676192165fb32c2e1fb7aee6,67d1ab7e74592039b17bcba4,2025-03-12_09h45.17.331,Tarea de decisión léxica,2024.2.5,Win32,370.3703704,,,,,,,,,,,,,,,,,,,,,,,359.8996,360.8204,a,1,0.2697,,0.2697,1,360.8207,361.3185,,,,,,89,MAS,WORD,DIS,150,humo,,la,,361.3187,361.3191,0.031481481,-0.398148148,0,0,0,,0,124,124,88,1,guso,,,,
,,,,,,60da1796c3e41ab8e6885c04,676192165fb32c2e1fb7aee6,67d1ab7e74592039b17bcba4,2025-03-12_09h45.17.331,Tarea de decisión léxica,2024.2.5,Win32,370.3703704,,,,,,,,,,,,,,,,,,,,,,,361.3211,362.2215,l,1,0.2452,,0.2452,1,362.2216,362.7216,,,,,,124,FEM,NOWORD,AGR,150,maba,,la,,362.7216,362.7217,0.031481481,-0.398148148,0,0,0,,0,125,125,123,1,flor,,,,
,,,,,,60da1796c3e41ab8e6885c04,676192165fb32c2e1fb7aee6,67d1ab7e74592039b17bcba4,2025-03-12_09h45.17.331,Tarea de decisión léxica,2024.2.5,Win32,370.3703704,,,,,,,,,,,,,,,,,,,,,,,362.7222,363.6955,l,1,0.3217,,0.3217,1,363.6956,364.1941,,,,,,334,FEM,NOWORD,DIS,150,dalea,,el,,364.1941,364.1942,0.031481481,-0.398148148,0,0,0,,0,126,126,333,1,tarea,,,,
,,,,,,60da1796c3e41ab8e6885c04,676192165fb32c2e1fb7aee6,67d1ab7e74592039b17bcba4,2025-03-12_09h45.17.331,Tarea de decisión léxica,2024.2.5,Win32,370.3703704,,,,,,,,,,,,,,,,,,,,,,,364.1949,365.1978,l,1,0.3488,,0.3488,1,365.1979,365.6971,,,,,,168,FEM,NOWORD,AGR,150,zifa,,la,,365.6985,365.6994,0.031481481,-0.398148148,0,0,0,,0,127,127,167,1,jefa,,,,
,,,,,,60da1796c3e41ab8e6885c04,676192165fb32c2e1fb7aee6,67d1ab7e74592039b17bcba4,2025-03-12_09h45.17.331,Tarea de decisión léxica,2024.2.5,Win32,370.3703704,,,,,,,,,,,,,,,,,,,,,,,365.6999,366.746,a,1,0.3919,,0.3919,1,366.7461,367.2459,,,,,,209,MAS,WORD,DIS,150,velo,,la,,367.246,367.2461,0.031481481,-0.398148148,0,0,0,,0,128,128,208,1,dero,,,,
,,,,,,60da1796c3e41ab8e6885c04,676192165fb32c2e1fb7aee6,67d1ab7e74592039b17bcba4,2025-03-12_09h45.17.331,Tarea de decisión léxica,2024.2.5,Win32,370.3703704,,,,,,,,,,,,,,,,,,,,,,,367.2471,368.1538,l,0,0.2534,,0.2534,0,368.1556,368.6557,,,,,,129,MAS,WORD,DIS,150,oído,,la,,368.6557,368.656,0.031481481,-0.398148148,0,0,0,,0,129,129,128,1,pima,,,,
,,,,,,60da1796c3e41ab8e6885c04,676192165fb32c2e1fb7aee6,67d1ab7e74592039b17bcba4,2025-03-12_09h45.17.331,Tarea de decisión léxica,2024.2.5,Win32,370.3703704,,,,,,,,,,,,,,,,,,,,,,,368.6591,369.6615,a,0,0.3501,,0.3501,0,369.6615,370.1616,,,,,,102,MAS,NOWORD,DIS,150,gito,,la,,370.1618,370.162,0.031481481,-0.398148148,0,0,0,,0,130,130,101,1,tono,,,,
,,,,,,60da1796c3e41ab8e6885c04,676192165fb32c2e1fb7aee6,67d1ab7e74592039b17bcba4,2025-03-12_09h45.17.331,Tarea de decisión léxica,2024.2.5,Win32,370.3703704,,,,,,,,,,,,,,,,,,,,,,,370.1641,371.2922,l,1,0.4734,,0.4734,1,371.2939,371.7935,,,,,,56,MAS,NOWORD,AGR,150,jado,,el,,371.7941,371.7945,0.031481481,-0.398148148,0,0,0,,0,131,131,55,1,gato,,,,
,,,,,,60da1796c3e41ab8e6885c04,676192165fb32c2e1fb7aee6,67d1ab7e74592039b17bcba4,2025-03-12_09h45.17.331,Tarea de decisión léxica,2024.2.5,Win32,370.3703704,,,,,,,,,,,,,,,,,,,,,,,371.795,372.8366,l,1,0.3878,,0.3878,1,372.8367,373.3353,,,,,,394,FEM,NOWORD,DIS,150,ashea,,el,,373.3353,373.3354,0.031481481,-0.398148148,0,0,0,,0,132,132,393,1,aldea,,,,
,,,,,,60da1796c3e41ab8e6885c04,676192165fb32c2e1fb7aee6,67d1ab7e74592039b17bcba4,2025-03-12_09h45.17.331,Tarea de decisión léxica,2024.2.5,Win32,370.3703704,,,,,,,,,,,,,,,,,,,,,,,373.3358,374.5123,l,1,0.5197,,0.5197,1,374.5123,375.0103,,,,,,164,FEM,NOWORD,AGR,150,laga,,la,,375.0103,375.0104,0.031481481,-0.398148148,0,0,0,,0,133,133,163,1,fama,,,,
,,,,,,60da1796c3e41ab8e6885c04,676192165fb32c2e1fb7aee6,67d1ab7e74592039b17bcba4,2025-03-12_09h45.17.331,Tarea de decisión léxica,2024.2.5,Win32,370.3703704,,,,,,,,,,,,,,,,,,,,,,,375.011,376.1713,a,0,0.5033,,0.5033,0,376.1718,376.6705,,,,,,36,MAS,NOWORD,AGR,150,meno,,el,,376.6705,376.6706,0.031481481,-0.398148148,0,0,0,,0,134,134,35,1,pelo,,,,
,,,,,,60da1796c3e41ab8e6885c04,676192165fb32c2e1fb7aee6,67d1ab7e74592039b17bcba4,2025-03-12_09h45.17.331,Tarea de decisión léxica,2024.2.5,Win32,370.3703704,,,,,,,,,,,,,,,,,,,,,,,376.6715,377.7172,l,1,0.3926,,0.3926,1,377.7182,378.2158,,,,,,190,MAS,NOWORD,DIS,150,muvo,,la,,378.2158,378.2159,0.031481481,-0.398148148,0,0,0,,0,135,135,189,1,puño,,,,
,,,,,,60da1796c3e41ab8e6885c04,676192165fb32c2e1fb7aee6,67d1ab7e74592039b17bcba4,2025-03-12_09h45.17.331,Tarea de decisión léxica,2024.2.5,Win32,370.3703704,,,,,,,,,,,,,,,,,,,,,,,378.2167,379.1761,l,1,0.3052,,0.3052,1,379.1761,379.6764,,,,,,70,FEM,NOWORD,DIS,150,ñola,,el,,379.6771,379.6777,0.031481481,-0.398148148,0,0,0,,0,136,136,69,1,zona,,,,
,,,,,,60da1796c3e41ab8e6885c04,676192165fb32c2e1fb7aee6,67d1ab7e74592039b17bcba4,2025-03-12_09h45.17.331,Tarea de decisión léxica,2024.2.5,Win32,370.3703704,,,,,,,,,,,,,,,,,,,,,,,379.6782,380.7008,a,0,0.3677,,0.3677,0,380.7012,381.1994,,,,,,174,FEM,NOWORD,DIS,150,boma,,el,,381.1995,381.1998,0.031481481,-0.398148148,0,0,0,,0,137,137,173,1,rosa,,,,
,,,,,,60da1796c3e41ab8e6885c04,676192165fb32c2e1fb7aee6,67d1ab7e74592039b17bcba4,2025-03-12_09h45.17.331,Tarea de decisión léxica,2024.2.5,Win32,370.3703704,,,,,,,,,,,,,,,,,,,,,,,381.2009,382.245,a,1,0.3904,,0.3904,1,382.2454,382.7448,,,,,,33,FEM,WORD,DIS,150,boca,,el,,382.7448,382.745,0.031481481,-0.398148148,0,0,0,,0,138,138,32,1,loda,,,,
,,,,,,60da1796c3e41ab8e6885c04,676192165fb32c2e1fb7aee6,67d1ab7e74592039b17bcba4,2025-03-12_09h45.17.331,Tarea de decisión léxica,2024.2.5,Win32,370.3703704,,,,,,,,,,,,,,,,,,,,,,,382.7458,383.7606,l,0,0.3632,,0.3632,0,383.7611,384.2596,,,,,,71,FEM,WORD,AGR,150,isla,,la,,384.2596,384.2597,0.031481481,-0.398148148,0,0,0,,0,139,139,70,1,urla,,,,
,,,,,,60da1796c3e41ab8e6885c04,676192165fb32c2e1fb7aee6,67d1ab7e74592039b17bcba4,2025-03-12_09h45.17.331,Tarea de decisión léxica,2024.2.5,Win32,370.3703704,,,,,,,,,,,,,,,,,,,,,,,384.2601,385.2823,a,0,0.3661,,0.3661,0,385.2824,385.7813,,,,,,240,MAS,NOWORD,AGR,150,poño,,el,,385.7814,385.7814,0.031481481,-0.398148148,0,0,0,,0,140,140,239,1,mozo,,,,
,,,,,,60da1796c3e41ab8e6885c04,676192165fb32c2e1fb7aee6,67d1ab7e74592039b17bcba4,2025-03-12_09h45.17.331,Tarea de decisión léxica,2024.2.5,Win32,370.3703704,,,,,,,,,,,,,,,,,,,,,,,385.7819,386.8651,l,1,0.4283,,0.4283,1,386.8656,387.3641,,,,,,18,FEM,NOWORD,DIS,150,paba,,el,,387.3646,387.3649,0.031481481,-0.398148148,0,0,0,,0,141,141,17,1,mamá,,,,
,,,,,,60da1796c3e41ab8e6885c04,676192165fb32c2e1fb7aee6,67d1ab7e74592039b17bcba4,2025-03-12_09h45.17.331,Tarea de decisión léxica,2024.2.5,Win32,370.3703704,,,,,,,,,,,,,,,,,,,,,,,387.3652,388.5788,a,1,0.5596,,0.5596,1,388.5789,389.079,,,,,,261,MAS,WORD,DIS,150,sitio,,la,,389.079,389.0791,0.031481481,-0.398148148,0,0,0,,0,142,142,260,1,titio,,,,
,,,,,,60da1796c3e41ab8e6885c04,676192165fb32c2e1fb7aee6,67d1ab7e74592039b17bcba4,2025-03-12_09h45.17.331,Tarea de decisión léxica,2024.2.5,Win32,370.3703704,,,,,,,,,,,,,,,,,,,,,,,389.08,390.2094,l,1,0.4751,,0.4751,1,390.2094,390.7086,,,,,,284,MAS,NOWORD,AGR,150,tuevo,,el,,390.7086,390.7087,0.031481481,-0.398148148,0,0,0,,0,143,143,283,1,sueño,,,,
,,,,,,60da1796c3e41ab8e6885c04,676192165fb32c2e1fb7aee6,67d1ab7e74592039b17bcba4,2025-03-12_09h45.17.331,Tarea de decisión léxica,2024.2.5,Win32,370.3703704,,,,,,,,,,,,,,,,,,,,,,,390.7092,391.795,a,1,0.4313,,0.4313,1,391.7952,392.295,,,,,,83,FEM,WORD,AGR,150,bala,,la,,392.295,392.295,0.031481481,-0.398148148,0,0,0,,0,144,144,82,1,taga,,,,
,,,,,,60da1796c3e41ab8e6885c04,676192165fb32c2e1fb7aee6,67d1ab7e74592039b17bcba4,2025-03-12_09h45.17.331,Tarea de decisión léxica,2024.2.5,Win32,370.3703704,,,,,,,,,,,,,,,,,,,,,,,392.2957,393.3412,a,1,0.3938,,0.3938,1,393.3413,393.8404,,,,,,125,MAS,WORD,DIS,150,lujo,,la,,393.8405,393.8407,0.031481481,-0.398148148,0,0,0,,0,145,145,124,1,vudo,,,,
,,,,,,60da1796c3e41ab8e6885c04,676192165fb32c2e1fb7aee6,67d1ab7e74592039b17bcba4,2025-03-12_09h45.17.331,Tarea de decisión léxica,2024.2.5,Win32,370.3703704,,,,,,,,,,,,,,,,,,,,,,,393.8414,394.8308,l,1,0.3368,,0.3368,1,394.8309,395.3296,,,,,,378,MAS,NOWORD,DIS,150,gaulo,,la,,395.3315,395.3321,0.031481481,-0.398148148,0,0,0,,0,146,146,377,1,hielo,,,,
,,,,,,60da1796c3e41ab8e6885c04,676192165fb32c2e1fb7aee6,67d1ab7e74592039b17bcba4,2025-03-12_09h45.17.331,Tarea de decisión léxica,2024.2.5,Win32,370.3703704,,,,,,,,,,,,,,,,,,,,,,,395.3327,396.4602,a,1,0.4742,,0.4742,1,396.4603,396.9608,,,,,,435,MAS,WORD,AGR,150,ritmo,,el,,396.9608,396.9609,0.031481481,-0.398148148,0,0,0,,0,147,147,434,1,ricno,,,,
,,,,,,60da1796c3e41ab8e6885c04,676192165fb32c2e1fb7aee6,67d1ab7e74592039b17bcba4,2025-03-12_09h45.17.331,Tarea de decisión léxica,2024.2.5,Win32,370.3703704,,,,,,,,,,,,,,,,,,,,,,,396.9615,398.0185,a,1,0.4013,,0.4013,1,398.0185,398.5166,,,,,,143,MAS,WORD,AGR,150,pavo,,el,,398.5167,398.5167,0.031481481,-0.398148148,0,0,0,,0,148,148,142,1,pezo,,,,
,,,,,,60da1796c3e41ab8e6885c04,676192165fb32c2e1fb7aee6,67d1ab7e74592039b17bcba4,2025-03-12_09h45.17.331,Tarea de decisión léxica,2024.2.5,Win32,370.3703704,,,,,,,,,,,,,,,,,,,,,,,398.5172,399.5485,a,1,0.3782,,0.3782,1,399.5485,400.0464,,,,,,345,FEM,WORD,DIS,150,arena,,el,,400.0465,400.0466,0.031481481,-0.398148148,0,0,0,,0,149,149,344,1,anera,,,,
,,,,,,60da1796c3e41ab8e6885c04,676192165fb32c2e1fb7aee6,67d1ab7e74592039b17bcba4,2025-03-12_09h45.17.331,Tarea de decisión léxica,2024.2.5,Win32,370.3703704,,,,,,,,,,,,,,,,,,,,,,,400.0472,401.1477,a,1,0.4458,,0.4458,1,401.1477,401.6474,,,,,,127,MAS,WORD,AGR,150,pico,,el,,401.6474,401.6476,0.031481481,-0.398148148,0,0,0,,0,150,150,126,1,itio,,,,
,,,,,,60da1796c3e41ab8e6885c04,676192165fb32c2e1fb7aee6,67d1ab7e74592039b17bcba4,2025-03-12_09h45.17.331,Tarea de decisión léxica,2024.2.5,Win32,370.3703704,,,,,,,,,,,,,,,,,,,,,,,401.6499,402.5817,a,1,0.2778,,0.2778,1,402.5818,403.0815,,,,,,85,MAS,WORD,DIS,150,lago,,la,,403.0825,403.0831,0.031481481,-0.398148148,0,0,0,,0,151,151,84,1,babo,,,,
,,,,,,60da1796c3e41ab8e6885c04,676192165fb32c2e1fb7aee6,67d1ab7e74592039b17bcba4,2025-03-12_09h45.17.331,Tarea de decisión léxica,2024.2.5,Win32,370.3703704,,,,,,,,,,,,,,,,,,,,,,,403.0837,404.0654,l,1,0.3285,,0.3285,1,404.0656,404.5656,,,,,,214,FEM,NOWORD,DIS,150,bana,,el,,404.5656,404.5656,0.031481481,-0.398148148,0,0,0,,0,152,152,213,1,rama,,,,
,,,,,,60da1796c3e41ab8e6885c04,676192165fb32c2e1fb7aee6,67d1ab7e74592039b17bcba4,2025-03-12_09h45.17.331,Tarea de decisión léxica,2024.2.5,Win32,370.3703704,,,,,,,,,,,,,,,,,,,,,,,404.5664,405.5938,l,1,0.3743,,0.3743,1,405.5938,406.0935,,,,,,294,MAS,NOWORD,DIS,150,cacso,,la,,406.0935,406.0937,0.031481481,-0.398148148,0,0,0,,0,153,153,293,1,campo,,,,
,,,,,,60da1796c3e41ab8e6885c04,676192165fb32c2e1fb7aee6,67d1ab7e74592039b17bcba4,2025-03-12_09h45.17.331,Tarea de decisión léxica,2024.2.5,Win32,370.3703704,,,,,,,,,,,,,,,,,,,,,,,406.0941,407.2787,a,1,0.5306,,0.5306,1,407.2787,407.7791,,,,,,169,MAS,WORD,DIS,150,cubo,,la,,407.7792,407.7796,0.031481481,-0.398148148,0,0,0,,0,154,154,168,1,mibo,,,,
,,,,,,60da1796c3e41ab8e6885c04,676192165fb32c2e1fb7aee6,67d1ab7e74592039b17bcba4,2025-03-12_09h45.17.331,Tarea de decisión léxica,2024.2.5,Win32,370.3703704,,,,,,,,,,,,,,,,,,,,,,,407.7803,408.8111,l,1,0.376,,0.376,1,408.8111,409.3099,,,,,,478,MAS,NOWORD,DIS,150,hocon,,la,,409.3105,409.3122,0.031481481,-0.398148148,0,0,0,,0,155,155,477,1,botón,,,,
,,,,,,60da1796c3e41ab8e6885c04,676192165fb32c2e1fb7aee6,67d1ab7e74592039b17bcba4,2025-03-12_09h45.17.331,Tarea de decisión léxica,2024.2.5,Win32,370.3703704,,,,,,,,,,,,,,,,,,,,,,,409.313,410.4173,l,1,0.4484,,0.4484,1,410.4174,410.916,,,,,,434,MAS,NOWORD,DIS,150,durco,,la,,410.9161,410.9162,0.031481481,-0.398148148,0,0,0,,0,156,156,433,1,disco,,,,
,,,,,,60da1796c3e41ab8e6885c04,676192165fb32c2e1fb7aee6,67d1ab7e74592039b17bcba4,2025-03-12_09h45.17.331,Tarea de decisión léxica,2024.2.5,Win32,370.3703704,,,,,,,,,,,,,,,,,,,,,,,410.9181,411.992,l,1,0.4223,,0.4223,1,411.992,412.4908,,,,,,268,MAS,NOWORD,AGR,150,figro,,el,,412.491,412.4914,0.031481481,-0.398148148,0,0,0,,0,157,157,267,1,libro,,,,
,,,,,,60da1796c3e41ab8e6885c04,676192165fb32c2e1fb7aee6,67d1ab7e74592039b17bcba4,2025-03-12_09h45.17.331,Tarea de decisión léxica,2024.2.5,Win32,370.3703704,,,,,,,,,,,,,,,,,,,,,,,412.4929,413.5618,a,1,0.4158,,0.4158,1,413.5618,414.0625,,,,,,119,MAS,WORD,AGR,150,pozo,,el,,414.0625,414.0626,0.031481481,-0.398148148,0,0,0,,0,158,158,118,1,hooy,,,,
,,,,,,60da1796c3e41ab8e6885c04,676192165fb32c2e1fb7aee6,67d1ab7e74592039b17bcba4,2025-03-12_09h45.17.331,Tarea de decisión léxica,2024.2.5,Win32,370.3703704,,,,,,,,,,,,,,,,,,,,,,,414.0633,415.0353,l,1,0.32,,0.32,1,415.0353,415.5352,,,,,,212,FEM,NOWORD,AGR,150,joad,,la,,415.5353,415.5358,0.031481481,-0.398148148,0,0,0,,0,159,159,211,1,joya,,,,
,,,,,,60da1796c3e41ab8e6885c04,676192165fb32c2e1fb7aee6,67d1ab7e74592039b17bcba4,2025-03-12_09h45.17.331,Tarea de decisión léxica,2024.2.5,Win32,370.3703704,,,,,,,,,,,,,,,,,,,,,,,415.5375,416.533,l,1,0.342,,0.342,1,416.5331,417.0325,,,,,,304,MAS,NOWORD,AGR,150,lanco,,el,,417.0333,423.6351,0.031481481,-0.398148148,0,0,0,space,0,160,160,303,1,barco,6.594,0.0003,,
,,,,,,60da1796c3e41ab8e6885c04,676192165fb32c2e1fb7aee6,67d1ab7e74592039b17bcba4,2025-03-12_09h45.17.331,Tarea de decisión léxica,2024.2.5,Win32,370.3703704,,,,,,,,,,,,,,,,,,,,,,,423.6376,424.6621,a,1,0.3713,,0.3713,1,424.6621,425.1617,,,,,,161,MAS,WORD,DIS,150,coro,,la,,425.1617,425.1617,0.031481481,-0.398148148,0,0,0,,0,161,161,160,1,bopo,,,,
,,,,,,60da1796c3e41ab8e6885c04,676192165fb32c2e1fb7aee6,67d1ab7e74592039b17bcba4,2025-03-12_09h45.17.331,Tarea de decisión léxica,2024.2.5,Win32,370.3703704,,,,,,,,,,,,,,,,,,,,,,,425.1622,426.1235,a,1,0.3069,,0.3069,1,426.1235,426.6227,,,,,,333,FEM,WORD,DIS,150,tarea,,el,,426.6227,426.6227,0.031481481,-0.398148148,0,0,0,,0,162,162,332,1,dalea,,,,
,,,,,,60da1796c3e41ab8e6885c04,676192165fb32c2e1fb7aee6,67d1ab7e74592039b17bcba4,2025-03-12_09h45.17.331,Tarea de decisión léxica,2024.2.5,Win32,370.3703704,,,,,,,,,,,,,,,,,,,,,,,426.6248,427.6441,l,1,0.3652,,0.3652,1,427.6441,428.1425,,,,,,182,FEM,NOWORD,DIS,150,teda,,el,,428.1426,428.1426,0.031481481,-0.398148148,0,0,0,,0,163,163,181,1,seda,,,,
,,,,,,60da1796c3e41ab8e6885c04,676192165fb32c2e1fb7aee6,67d1ab7e74592039b17bcba4,2025-03-12_09h45.17.331,Tarea de decisión léxica,2024.2.5,Win32,370.3703704,,,,,,,,,,,,,,,,,,,,,,,428.143,429.2294,a,1,0.4316,,0.4316,1,429.2294,429.7304,,,,,,367,MAS,WORD,AGR,150,reloj,,el,,429.7304,429.7305,0.031481481,-0.398148148,0,0,0,,0,164,164,366,1,rerob,,,,
,,,,,,60da1796c3e41ab8e6885c04,676192165fb32c2e1fb7aee6,67d1ab7e74592039b17bcba4,2025-03-12_09h45.17.331,Tarea de decisión léxica,2024.2.5,Win32,370.3703704,,,,,,,,,,,,,,,,,,,,,,,429.7312,430.7447,a,1,0.362,,0.362,1,430.7448,431.2436,,,,,,133,FEM,WORD,DIS,150,vaca,,el,,431.2446,431.2449,0.031481481,-0.398148148,0,0,0,,0,165,165,132,1,vesa,,,,
,,,,,,60da1796c3e41ab8e6885c04,676192165fb32c2e1fb7aee6,67d1ab7e74592039b17bcba4,2025-03-12_09h45.17.331,Tarea de decisión léxica,2024.2.5,Win32,370.3703704,,,,,,,,,,,,,,,,,,,,,,,431.2452,432.2309,a,1,0.3305,,0.3305,1,432.2309,432.7311,,,,,,49,FEM,WORD,DIS,150,edad,,el,,432.7313,432.7317,0.031481481,-0.398148148,0,0,0,,0,166,166,48,1,ecat,,,,
,,,,,,60da1796c3e41ab8e6885c04,676192165fb32c2e1fb7aee6,67d1ab7e74592039b17bcba4,2025-03-12_09h45.17.331,Tarea de decisión léxica,2024.2.5,Win32,370.3703704,,,,,,,,,,,,,,,,,,,,,,,432.7328,433.6199,a,1,0.2346,,0.2346,1,433.6199,434.1179,,,,,,105,FEM,WORD,DIS,150,sopa,,el,,434.1179,434.1179,0.031481481,-0.398148148,0,0,0,,0,167,167,104,1,vina,,,,
,,,,,,60da1796c3e41ab8e6885c04,676192165fb32c2e1fb7aee6,67d1ab7e74592039b17bcba4,2025-03-12_09h45.17.331,Tarea de decisión léxica,2024.2.5,Win32,370.3703704,,,,,,,,,,,,,,,,,,,,,,,434.1185,435.0694,a,1,0.297,,0.297,1,435.0696,435.5691,,,,,,141,FEM,WORD,DIS,150,cruz,,el,,435.5692,435.5693,0.031481481,-0.398148148,0,0,0,,0,168,168,140,1,sina,,,,
,,,,,,60da1796c3e41ab8e6885c04,676192165fb32c2e1fb7aee6,67d1ab7e74592039b17bcba4,2025-03-12_09h45.17.331,Tarea de decisión léxica,2024.2.5,Win32,370.3703704,,,,,,,,,,,,,,,,,,,,,,,435.5712,436.5268,a,1,0.3036,,0.3036,1,436.5268,437.0262,,,,,,253,MAS,WORD,DIS,150,chico,,la,,437.0262,437.0264,0.031481481,-0.398148148,0,0,0,,0,169,169,252,1,trido,,,,
,,,,,,60da1796c3e41ab8e6885c04,676192165fb32c2e1fb7aee6,67d1ab7e74592039b17bcba4,2025-03-12_09h45.17.331,Tarea de decisión léxica,2024.2.5,Win32,370.3703704,,,,,,,,,,,,,,,,,,,,,,,437.0291,438.0419,l,1,0.3593,,0.3593,1,438.042,438.5407,,,,,,414,FEM,NOWORD,DIS,150,bieda,,el,,438.5419,438.5424,0.031481481,-0.398148148,0,0,0,,0,170,170,413,1,rueda,,,,
,,,,,,60da1796c3e41ab8e6885c04,676192165fb32c2e1fb7aee6,67d1ab7e74592039b17bcba4,2025-03-12_09h45.17.331,Tarea de decisión léxica,2024.2.5,Win32,370.3703704,,,,,,,,,,,,,,,,,,,,,,,438.5429,439.563,a,0,0.3681,,0.3681,0,439.5634,440.0647,,,,,,82,FEM,NOWORD,DIS,150,vasa,,el,,440.0647,440.0648,0.031481481,-0.398148148,0,0,0,,0,171,171,81,1,dama,,,,
,,,,,,60da1796c3e41ab8e6885c04,676192165fb32c2e1fb7aee6,67d1ab7e74592039b17bcba4,2025-03-12_09h45.17.331,Tarea de decisión léxica,2024.2.5,Win32,370.3703704,,,,,,,,,,,,,,,,,,,,,,,440.0666,441.1687,l,1,0.4488,,0.4488,1,441.1697,441.6669,,,,,,348,FEM,NOWORD,AGR,150,mueza,,la,,441.6669,441.667,0.031481481,-0.398148148,0,0,0,,0,172,172,347,1,pieza,,,,
,,,,,,60da1796c3e41ab8e6885c04,676192165fb32c2e1fb7aee6,67d1ab7e74592039b17bcba4,2025-03-12_09h45.17.331,Tarea de decisión léxica,2024.2.5,Win32,370.3703704,,,,,,,,,,,,,,,,,,,,,,,441.6689,442.6843,l,1,0.3609,,0.3609,1,442.6844,443.186,,,,,,244,MAS,NOWORD,AGR,150,asamo,,el,,443.186,443.1862,0.031481481,-0.398148148,0,0,0,,0,173,173,243,1,amigo,,,,
,,,,,,60da1796c3e41ab8e6885c04,676192165fb32c2e1fb7aee6,67d1ab7e74592039b17bcba4,2025-03-12_09h45.17.331,Tarea de decisión léxica,2024.2.5,Win32,370.3703704,,,,,,,,,,,,,,,,,,,,,,,443.1879,444.3037,a,1,0.4649,,0.4649,1,444.3037,444.8021,,,,,,323,FEM,WORD,AGR,150,cinta,,la,,444.8021,444.8021,0.031481481,-0.398148148,0,0,0,,0,174,174,322,1,certa,,,,
,,,,,,60da1796c3e41ab8e6885c04,676192165fb32c2e1fb7aee6,67d1ab7e74592039b17bcba4,2025-03-12_09h45.17.331,Tarea de decisión léxica,2024.2.5,Win32,370.3703704,,,,,,,,,,,,,,,,,,,,,,,444.8029,445.8166,l,1,0.3606,,0.3606,1,445.8167,446.3151,,,,,,364,FEM,NOWORD,AGR,150,veida,,la,,446.3157,446.316,0.031481481,-0.398148148,0,0,0,,0,175,175,363,1,deuda,,,,
,,,,,,60da1796c3e41ab8e6885c04,676192165fb32c2e1fb7aee6,67d1ab7e74592039b17bcba4,2025-03-12_09h45.17.331,Tarea de decisión léxica,2024.2.5,Win32,370.3703704,,,,,,,,,,,,,,,,,,,,,,,446.3164,447.3274,l,1,0.356,,0.356,1,447.3274,447.8263,,,,,,58,MAS,NOWORD,DIS,150,heco,,la,,447.8263,447.8264,0.031481481,-0.398148148,0,0,0,,0,176,176,57,1,dedo,,,,
,,,,,,60da1796c3e41ab8e6885c04,676192165fb32c2e1fb7aee6,67d1ab7e74592039b17bcba4,2025-03-12_09h45.17.331,Tarea de decisión léxica,2024.2.5,Win32,370.3703704,,,,,,,,,,,,,,,,,,,,,,,447.827,448.7821,l,1,0.3007,,0.3007,1,448.7822,449.2804,,,,,,44,FEM,NOWORD,AGR,150,meda,,la,,449.2804,449.2804,0.031481481,-0.398148148,0,0,0,,0,177,177,43,1,pena,,,,
,,,,,,60da1796c3e41ab8e6885c04,676192165fb32c2e1fb7aee6,67d1ab7e74592039b17bcba4,2025-03-12_09h45.17.331,Tarea de decisión léxica,2024.2.5,Win32,370.3703704,,,,,,,,,,,,,,,,,,,,,,,449.2815,450.2228,l,0,0.2882,,0.2882,0,450.2234,450.722,,,,,,167,FEM,WORD,AGR,150,jefa,,la,,450.7221,450.7222,0.031481481,-0.398148148,0,0,0,,0,178,178,166,1,zifa,,,,
,,,,,,60da1796c3e41ab8e6885c04,676192165fb32c2e1fb7aee6,67d1ab7e74592039b17bcba4,2025-03-12_09h45.17.331,Tarea de decisión léxica,2024.2.5,Win32,370.3703704,,,,,,,,,,,,,,,,,,,,,,,450.7231,451.9642,l,1,0.5866,,0.5866,1,451.9646,452.4625,,,,,,468,MAS,NOWORD,AGR,150,peiso,,el,,452.4632,452.4635,0.031481481,-0.398148148,0,0,0,,0,179,179,467,1,piano,,,,
,,,,,,60da1796c3e41ab8e6885c04,676192165fb32c2e1fb7aee6,67d1ab7e74592039b17bcba4,2025-03-12_09h45.17.331,Tarea de decisión léxica,2024.2.5,Win32,370.3703704,,,,,,,,,,,,,,,,,,,,,,,452.4638,453.5517,a,0,0.4354,,0.4354,0,453.5522,454.0515,,,,,,354,FEM,NOWORD,DIS,150,cezca,,el,,454.0515,454.0515,0.031481481,-0.398148148,0,0,0,,0,180,180,353,1,celda,,,,
,,,,,,60da1796c3e41ab8e6885c04,676192165fb32c2e1fb7aee6,67d1ab7e74592039b17bcba4,2025-03-12_09h45.17.331,Tarea de decisión léxica,2024.2.5,Win32,370.3703704,,,,,,,,,,,,,,,,,,,,,,,454.0529,455.0429,l,1,0.3383,,0.3383,1,455.0433,455.5419,,,,,,330,MAS,NOWORD,DIS,150,nueno,,la,,455.542,455.5421,0.031481481,-0.398148148,0,0,0,,0,181,181,329,1,hueso,,,,
,,,,,,60da1796c3e41ab8e6885c04,676192165fb32c2e1fb7aee6,67d1ab7e74592039b17bcba4,2025-03-12_09h45.17.331,Tarea de decisión léxica,2024.2.5,Win32,370.3703704,,,,,,,,,,,,,,,,,,,,,,,455.544,456.6556,a,1,0.4596,,0.4596,1,456.6556,457.1547,,,,,,339,MAS,WORD,AGR,150,brazo,,el,,457.1548,457.1549,0.031481481,-0.398148148,0,0,0,,0,182,182,338,1,plajo,,,,
,,,,,,60da1796c3e41ab8e6885c04,676192165fb32c2e1fb7aee6,67d1ab7e74592039b17bcba4,2025-03-12_09h45.17.331,Tarea de decisión léxica,2024.2.5,Win32,370.3703704,,,,,,,,,,,,,,,,,,,,,,,457.1557,458.198,a,0,0.3877,,0.3877,0,458.1988,458.6984,,,,,,450,FEM,NOWORD,DIS,150,crusa,,el,,458.6985,458.6986,0.031481481,-0.398148148,0,0,0,,0,183,183,449,1,pluma,,,,
,,,,,,60da1796c3e41ab8e6885c04,676192165fb32c2e1fb7aee6,67d1ab7e74592039b17bcba4,2025-03-12_09h45.17.331,Tarea de decisión léxica,2024.2.5,Win32,370.3703704,,,,,,,,,,,,,,,,,,,,,,,458.6998,459.7416,l,1,0.3896,,0.3896,1,459.7422,460.2424,,,,,,312,MAS,NOWORD,AGR,150,nosor,,el,,460.2431,460.2435,0.031481481,-0.398148148,0,0,0,,0,184,184,311,1,honor,,,,
,,,,,,60da1796c3e41ab8e6885c04,676192165fb32c2e1fb7aee6,67d1ab7e74592039b17bcba4,2025-03-12_09h45.17.331,Tarea de decisión léxica,2024.2.5,Win32,370.3703704,,,,,,,,,,,,,,,,,,,,,,,460.244,461.3718,a,1,0.4745,,0.4745,1,461.3719,461.8715,,,,,,295,MAS,WORD,AGR,150,dolor,,el,,461.8715,461.8716,0.031481481,-0.398148148,0,0,0,,0,185,185,294,1,goler,,,,
,,,,,,60da1796c3e41ab8e6885c04,676192165fb32c2e1fb7aee6,67d1ab7e74592039b17bcba4,2025-03-12_09h45.17.331,Tarea de decisión léxica,2024.2.5,Win32,370.3703704,,,,,,,,,,,,,,,,,,,,,,,461.8734,462.8887,a,1,0.3603,,0.3603,1,462.8887,463.3867,,,,,,303,MAS,WORD,AGR,150,barco,,el,,463.3867,463.3868,0.031481481,-0.398148148,0,0,0,,0,186,186,302,1,lanco,,,,
,,,,,,60da1796c3e41ab8e6885c04,676192165fb32c2e1fb7aee6,67d1ab7e74592039b17bcba4,2025-03-12_09h45.17.331,Tarea de decisión léxica,2024.2.5,Win32,370.3703704,,,,,,,,,,,,,,,,,,,,,,,463.3876,464.4641,l,1,0.4215,,0.4215,1,464.4642,464.9623,,,,,,404,FEM,NOWORD,AGR,150,grisa,,la,,464.9623,464.9624,0.031481481,-0.398148148,0,0,0,,0,187,187,403,1,prima,,,,
,,,,,,60da1796c3e41ab8e6885c04,676192165fb32c2e1fb7aee6,67d1ab7e74592039b17bcba4,2025-03-12_09h45.17.331,Tarea de decisión léxica,2024.2.5,Win32,370.3703704,,,,,,,,,,,,,,,,,,,,,,,464.9631,465.9284,l,1,0.3119,,0.3119,1,465.9286,466.428,,,,,,424,MAS,NOWORD,AGR,150,quigo,,el,,466.4282,466.4282,0.031481481,-0.398148148,0,0,0,,0,188,188,423,1,queso,,,,
,,,,,,60da1796c3e41ab8e6885c04,676192165fb32c2e1fb7aee6,67d1ab7e74592039b17bcba4,2025-03-12_09h45.17.331,Tarea de decisión léxica,2024.2.5,Win32,370.3703704,,,,,,,,,,,,,,,,,,,,,,,466.4289,467.4882,l,1,0.4035,,0.4035,1,467.4883,467.9893,,,,,,242,MAS,NOWORD,DIS,150,mirdo,,la,,467.9912,467.9915,0.031481481,-0.398148148,0,0,0,,0,189,189,241,1,mundo,,,,
,,,,,,60da1796c3e41ab8e6885c04,676192165fb32c2e1fb7aee6,67d1ab7e74592039b17bcba4,2025-03-12_09h45.17.331,Tarea de decisión léxica,2024.2.5,Win32,370.3703704,,,,,,,,,,,,,,,,,,,,,,,467.992,468.9077,l,1,0.2628,,0.2628,1,468.9078,469.408,,,,,,42,FEM,NOWORD,DIS,150,haje,,el,,469.408,469.408,0.031481481,-0.398148148,0,0,0,,0,190,190,41,1,nave,,,,
,,,,,,60da1796c3e41ab8e6885c04,676192165fb32c2e1fb7aee6,67d1ab7e74592039b17bcba4,2025-03-12_09h45.17.331,Tarea de decisión léxica,2024.2.5,Win32,370.3703704,,,,,,,,,,,,,,,,,,,,,,,469.4099,470.5044,a,1,0.4405,,0.4405,1,470.5044,471.0036,,,,,,31,FEM,WORD,AGR,150,ropa,,la,,471.0038,471.004,0.031481481,-0.398148148,0,0,0,,0,191,191,30,1,bova,,,,
,,,,,,60da1796c3e41ab8e6885c04,676192165fb32c2e1fb7aee6,67d1ab7e74592039b17bcba4,2025-03-12_09h45.17.331,Tarea de decisión léxica,2024.2.5,Win32,370.3703704,,,,,,,,,,,,,,,,,,,,,,,471.006,472.0024,l,1,0.3402,,0.3402,1,472.0025,472.5039,,,,,,188,MAS,NOWORD,AGR,150,suto,,el,,472.504,472.5041,0.031481481,-0.398148148,0,0,0,,0,192,192,187,1,mito,,,,
,,,,,,60da1796c3e41ab8e6885c04,676192165fb32c2e1fb7aee6,67d1ab7e74592039b17bcba4,2025-03-12_09h45.17.331,Tarea de decisión léxica,2024.2.5,Win32,370.3703704,,,,,,,,,,,,,,,,,,,,,,,472.5059,473.4891,l,1,0.3315,,0.3315,1,473.4891,473.9895,,,,,,66,MAS,NOWORD,DIS,150,nios,,la,,473.9895,473.9896,0.031481481,-0.398148148,0,0,0,,0,193,193,65,1,dios,,,,
,,,,,,60da1796c3e41ab8e6885c04,676192165fb32c2e1fb7aee6,67d1ab7e74592039b17bcba4,2025-03-12_09h45.17.331,Tarea de decisión léxica,2024.2.5,Win32,370.3703704,,,,,,,,,,,,,,,,,,,,,,,473.9908,474.9097,l,0,0.2663,,0.2663,0,474.911,475.4107,,,,,,445,MAS,WORD,DIS,150,actor,,la,,475.4114,475.4119,0.031481481,-0.398148148,0,0,0,,0,194,194,444,1,ascor,,,,
,,,,,,60da1796c3e41ab8e6885c04,676192165fb32c2e1fb7aee6,67d1ab7e74592039b17bcba4,2025-03-12_09h45.17.331,Tarea de decisión léxica,2024.2.5,Win32,370.3703704,,,,,,,,,,,,,,,,,,,,,,,475.4124,476.405,a,1,0.3361,,0.3361,1,476.4054,476.9044,,,,,,163,FEM,WORD,AGR,150,fama,,la,,476.9044,476.9046,0.031481481,-0.398148148,0,0,0,,0,195,195,162,1,laga,,,,
,,,,,,60da1796c3e41ab8e6885c04,676192165fb32c2e1fb7aee6,67d1ab7e74592039b17bcba4,2025-03-12_09h45.17.331,Tarea de decisión léxica,2024.2.5,Win32,370.3703704,,,,,,,,,,,,,,,,,,,,,,,476.9053,477.8763,l,1,0.315,,0.315,1,477.8764,478.3765,,,,,,362,FEM,NOWORD,DIS,150,solle,,el,,478.3765,478.3766,0.031481481,-0.398148148,0,0,0,,0,196,196,361,1,torre,,,,
,,,,,,60da1796c3e41ab8e6885c04,676192165fb32c2e1fb7aee6,67d1ab7e74592039b17bcba4,2025-03-12_09h45.17.331,Tarea de decisión léxica,2024.2.5,Win32,370.3703704,,,,,,,,,,,,,,,,,,,,,,,478.3772,479.413,a,1,0.3817,,0.3817,1,479.4131,479.9118,,,,,,147,FEM,WORD,AGR,150,hoja,,la,,479.9119,479.9119,0.031481481,-0.398148148,0,0,0,,0,197,197,146,1,pama,,,,
,,,,,,60da1796c3e41ab8e6885c04,676192165fb32c2e1fb7aee6,67d1ab7e74592039b17bcba4,2025-03-12_09h45.17.331,Tarea de decisión léxica,2024.2.5,Win32,370.3703704,,,,,,,,,,,,,,,,,,,,,,,479.9142,480.9029,a,1,0.3376,,0.3376,1,480.9031,481.4032,,,,,,477,MAS,WORD,DIS,150,botón,,la,,481.4033,481.4033,0.031481481,-0.398148148,0,0,0,,0,198,198,476,1,hocon,,,,
,,,,,,60da1796c3e41ab8e6885c04,676192165fb32c2e1fb7aee6,67d1ab7e74592039b17bcba4,2025-03-12_09h45.17.331,Tarea de decisión léxica,2024.2.5,Win32,370.3703704,,,,,,,,,,,,,,,,,,,,,,,481.4041,482.3682,l,1,0.308,,0.308,1,482.3684,482.8693,,,,,,2,FEM,NOWORD,DIS,150,mada,,el,,482.8712,482.8721,0.031481481,-0.398148148,0,0,0,,0,199,199,1,1,casa,,,,
,,,,,,60da1796c3e41ab8e6885c04,676192165fb32c2e1fb7aee6,67d1ab7e74592039b17bcba4,2025-03-12_09h45.17.331,Tarea de decisión léxica,2024.2.5,Win32,370.3703704,,,,,,,,,,,,,,,,,,,,,,,482.8726,483.9239,a,1,0.396,,0.396,1,483.9239,484.4221,,,,,,75,MAS,WORD,AGR,150,olor,,el,,484.4221,484.4221,0.031481481,-0.398148148,0,0,0,,0,200,200,74,1,ocer,,,,
,,,,,,60da1796c3e41ab8e6885c04,676192165fb32c2e1fb7aee6,67d1ab7e74592039b17bcba4,2025-03-12_09h45.17.331,Tarea de decisión léxica,2024.2.5,Win32,370.3703704,,,,,,,,,,,,,,,,,,,,,,,484.424,485.3495,l,0,0.2726,,0.2726,0,485.3505,485.852,,,,,,455,MAS,WORD,AGR,150,reino,,el,,485.852,485.852,0.031481481,-0.398148148,0,0,0,,0,201,201,454,1,riaso,,,,
,,,,,,60da1796c3e41ab8e6885c04,676192165fb32c2e1fb7aee6,67d1ab7e74592039b17bcba4,2025-03-12_09h45.17.331,Tarea de decisión léxica,2024.2.5,Win32,370.3703704,,,,,,,,,,,,,,,,,,,,,,,485.8531,486.899,a,1,0.3938,,0.3938,1,486.8994,487.4,,,,,,429,FEM,WORD,DIS,150,tarta,,el,,487.4,487.4001,0.031481481,-0.398148148,0,0,0,,0,202,202,428,1,tenta,,,,
,,,,,,60da1796c3e41ab8e6885c04,676192165fb32c2e1fb7aee6,67d1ab7e74592039b17bcba4,2025-03-12_09h45.17.331,Tarea de decisión léxica,2024.2.5,Win32,370.3703704,,,,,,,,,,,,,,,,,,,,,,,487.4015,488.4186,l,1,0.365,,0.365,1,488.4186,488.9205,,,,,,338,MAS,NOWORD,DIS,150,nuejo,,la,,488.9221,488.9226,0.031481481,-0.398148148,0,0,0,,0,203,203,337,1,huevo,,,,
,,,,,,60da1796c3e41ab8e6885c04,676192165fb32c2e1fb7aee6,67d1ab7e74592039b17bcba4,2025-03-12_09h45.17.331,Tarea de decisión léxica,2024.2.5,Win32,370.3703704,,,,,,,,,,,,,,,,,,,,,,,488.9243,489.9265,l,1,0.347,,0.347,1,489.9265,490.4275,,,,,,72,FEM,NOWORD,AGR,150,urla,,la,,490.4275,490.4276,0.031481481,-0.398148148,0,0,0,,0,204,204,71,1,isla,,,,
,,,,,,60da1796c3e41ab8e6885c04,676192165fb32c2e1fb7aee6,67d1ab7e74592039b17bcba4,2025-03-12_09h45.17.331,Tarea de decisión léxica,2024.2.5,Win32,370.3703704,,,,,,,,,,,,,,,,,,,,,,,490.4283,491.4785,a,1,0.3985,,0.3985,1,491.4785,491.9768,,,,,,155,FEM,WORD,AGR,150,fuga,,la,,491.9769,491.9769,0.031481481,-0.398148148,0,0,0,,0,205,205,154,1,luma,,,,
,,,,,,60da1796c3e41ab8e6885c04,676192165fb32c2e1fb7aee6,67d1ab7e74592039b17bcba4,2025-03-12_09h45.17.331,Tarea de decisión léxica,2024.2.5,Win32,370.3703704,,,,,,,,,,,,,,,,,,,,,,,491.9777,492.946,a,1,0.3119,,0.3119,1,492.9464,493.4453,,,,,,213,FEM,WORD,DIS,150,rama,,el,,493.4454,493.4454,0.031481481,-0.398148148,0,0,0,,0,206,206,212,1,bana,,,,
,,,,,,60da1796c3e41ab8e6885c04,676192165fb32c2e1fb7aee6,67d1ab7e74592039b17bcba4,2025-03-12_09h45.17.331,Tarea de decisión léxica,2024.2.5,Win32,370.3703704,,,,,,,,,,,,,,,,,,,,,,,493.4471,494.4241,l,1,0.3249,,0.3249,1,494.4243,494.9237,,,,,,278,MAS,NOWORD,DIS,150,vuemo,,la,,494.9237,494.9237,0.031481481,-0.398148148,0,0,0,,0,207,207,277,1,fuego,,,,
,,,,,,60da1796c3e41ab8e6885c04,676192165fb32c2e1fb7aee6,67d1ab7e74592039b17bcba4,2025-03-12_09h45.17.331,Tarea de decisión léxica,2024.2.5,Win32,370.3703704,,,,,,,,,,,,,,,,,,,,,,,494.9244,496.1237,l,1,0.5441,,0.5441,1,496.1238,496.6221,,,,,,78,MAS,NOWORD,DIS,150,fodo,,la,,496.6251,496.6257,0.031481481,-0.398148148,0,0,0,,0,208,208,77,1,loco,,,,
,,,,,,60da1796c3e41ab8e6885c04,676192165fb32c2e1fb7aee6,67d1ab7e74592039b17bcba4,2025-03-12_09h45.17.331,Tarea de decisión léxica,2024.2.5,Win32,370.3703704,,,,,,,,,,,,,,,,,,,,,,,496.6265,497.6416,a,1,0.3609,,0.3609,1,497.6416,498.1416,,,,,,267,MAS,WORD,AGR,150,libro,,el,,498.1417,498.1418,0.031481481,-0.398148148,0,0,0,,0,209,209,266,1,figro,,,,
,,,,,,60da1796c3e41ab8e6885c04,676192165fb32c2e1fb7aee6,67d1ab7e74592039b17bcba4,2025-03-12_09h45.17.331,Tarea de decisión léxica,2024.2.5,Win32,370.3703704,,,,,,,,,,,,,,,,,,,,,,,498.1423,499.1292,l,1,0.331,,0.331,1,499.1293,499.6298,,,,,,210,MAS,NOWORD,DIS,150,dero,,la,,499.6299,499.63,0.031481481,-0.398148148,0,0,0,,0,210,210,209,1,velo,,,,
,,,,,,60da1796c3e41ab8e6885c04,676192165fb32c2e1fb7aee6,67d1ab7e74592039b17bcba4,2025-03-12_09h45.17.331,Tarea de decisión léxica,2024.2.5,Win32,370.3703704,,,,,,,,,,,,,,,,,,,,,,,499.6308,500.6023,a,1,0.3195,,0.3195,1,500.6024,501.1004,,,,,,145,MAS,WORD,DIS,150,león,,la,,501.1005,501.1005,0.031481481,-0.398148148,0,0,0,,0,211,211,144,1,nobo,,,,
,,,,,,60da1796c3e41ab8e6885c04,676192165fb32c2e1fb7aee6,67d1ab7e74592039b17bcba4,2025-03-12_09h45.17.331,Tarea de decisión léxica,2024.2.5,Win32,370.3703704,,,,,,,,,,,,,,,,,,,,,,,501.1011,502.0627,l,0,0.3072,,0.3072,0,502.063,502.5609,,,,,,449,FEM,WORD,DIS,150,pluma,,el,,502.561,502.5611,0.031481481,-0.398148148,0,0,0,,0,212,212,448,1,crusa,,,,
,,,,,,60da1796c3e41ab8e6885c04,676192165fb32c2e1fb7aee6,67d1ab7e74592039b17bcba4,2025-03-12_09h45.17.331,Tarea de decisión léxica,2024.2.5,Win32,370.3703704,,,,,,,,,,,,,,,,,,,,,,,502.5617,503.5536,a,1,0.3384,,0.3384,1,503.554,504.0526,,,,,,81,FEM,WORD,DIS,150,dama,,el,,504.0546,504.0551,0.031481481,-0.398148148,0,0,0,,0,213,213,80,1,vasa,,,,
,,,,,,60da1796c3e41ab8e6885c04,676192165fb32c2e1fb7aee6,67d1ab7e74592039b17bcba4,2025-03-12_09h45.17.331,Tarea de decisión léxica,2024.2.5,Win32,370.3703704,,,,,,,,,,,,,,,,,,,,,,,504.0555,505.0284,a,1,0.3188,,0.3188,1,505.0285,505.5261,,,,,,205,FEM,WORD,DIS,150,rana,,el,,505.5261,505.5262,0.031481481,-0.398148148,0,0,0,,0,214,214,204,1,bara,,,,
,,,,,,60da1796c3e41ab8e6885c04,676192165fb32c2e1fb7aee6,67d1ab7e74592039b17bcba4,2025-03-12_09h45.17.331,Tarea de decisión léxica,2024.2.5,Win32,370.3703704,,,,,,,,,,,,,,,,,,,,,,,505.5267,506.5204,l,0,0.3398,,0.3398,0,506.5219,507.0217,,,,,,365,FEM,WORD,DIS,150,ducha,,el,,507.0217,507.0218,0.031481481,-0.398148148,0,0,0,,0,215,215,364,1,gulla,,,,
,,,,,,60da1796c3e41ab8e6885c04,676192165fb32c2e1fb7aee6,67d1ab7e74592039b17bcba4,2025-03-12_09h45.17.331,Tarea de decisión léxica,2024.2.5,Win32,370.3703704,,,,,,,,,,,,,,,,,,,,,,,507.0232,508.1636,a,0,0.4868,,0.4868,0,508.1636,508.6625,,,,,,156,FEM,NOWORD,AGR,150,luma,,la,,508.6625,508.6626,0.031481481,-0.398148148,0,0,0,,0,216,216,155,1,fuga,,,,
,,,,,,60da1796c3e41ab8e6885c04,676192165fb32c2e1fb7aee6,67d1ab7e74592039b17bcba4,2025-03-12_09h45.17.331,Tarea de decisión léxica,2024.2.5,Win32,370.3703704,,,,,,,,,,,,,,,,,,,,,,,508.6647,509.8077,a,1,0.4892,,0.4892,1,509.808,510.3065,,,,,,425,FEM,WORD,DIS,150,viuda,,el,,510.3065,510.3067,0.031481481,-0.398148148,0,0,0,,0,217,217,424,1,virca,,,,
,,,,,,60da1796c3e41ab8e6885c04,676192165fb32c2e1fb7aee6,67d1ab7e74592039b17bcba4,2025-03-12_09h45.17.331,Tarea de decisión léxica,2024.2.5,Win32,370.3703704,,,,,,,,,,,,,,,,,,,,,,,510.3088,511.3661,a,1,0.4036,,0.4036,1,511.3662,511.8658,,,,,,325,FEM,WORD,DIS,150,magia,,el,,511.8691,511.8699,0.031481481,-0.398148148,0,0,0,,0,218,218,324,1,mabia,,,,
,,,,,,60da1796c3e41ab8e6885c04,676192165fb32c2e1fb7aee6,67d1ab7e74592039b17bcba4,2025-03-12_09h45.17.331,Tarea de decisión léxica,2024.2.5,Win32,370.3703704,,,,,,,,,,,,,,,,,,,,,,,511.8705,512.8094,a,0,0.2835,,0.2835,0,512.8098,513.3078,,,,,,216,FEM,NOWORD,AGR,150,raua,,la,,513.3078,513.3078,0.031481481,-0.398148148,0,0,0,,0,219,219,215,1,raíz,,,,
,,,,,,60da1796c3e41ab8e6885c04,676192165fb32c2e1fb7aee6,67d1ab7e74592039b17bcba4,2025-03-12_09h45.17.331,Tarea de decisión léxica,2024.2.5,Win32,370.3703704,,,,,,,,,,,,,,,,,,,,,,,513.3096,514.316,l,1,0.3555,,0.3555,1,514.3164,514.8143,,,,,,14,FEM,NOWORD,DIS,150,nola,,el,,514.8144,514.8144,0.031481481,-0.398148148,0,0,0,,0,220,220,13,1,hora,,,,
,,,,,,60da1796c3e41ab8e6885c04,676192165fb32c2e1fb7aee6,67d1ab7e74592039b17bcba4,2025-03-12_09h45.17.331,Tarea de decisión léxica,2024.2.5,Win32,370.3703704,,,,,,,,,,,,,,,,,,,,,,,514.8151,515.8247,a,1,0.3565,,0.3565,1,515.8247,516.3237,,,,,,37,MAS,WORD,DIS,150,rato,,la,,516.3238,516.3239,0.031481481,-0.398148148,0,0,0,,0,221,221,36,1,gaco,,,,
,,,,,,60da1796c3e41ab8e6885c04,676192165fb32c2e1fb7aee6,67d1ab7e74592039b17bcba4,2025-03-12_09h45.17.331,Tarea de decisión léxica,2024.2.5,Win32,370.3703704,,,,,,,,,,,,,,,,,,,,,,,516.3246,517.6194,a,1,0.6408,,0.6408,1,517.6195,518.1193,,,,,,191,FEM,WORD,AGR,150,pila,,la,,518.1193,518.1195,0.031481481,-0.398148148,0,0,0,,0,222,222,190,1,bila,,,,
,,,,,,60da1796c3e41ab8e6885c04,676192165fb32c2e1fb7aee6,67d1ab7e74592039b17bcba4,2025-03-12_09h45.17.331,Tarea de decisión léxica,2024.2.5,Win32,370.3703704,,,,,,,,,,,,,,,,,,,,,,,518.12,519.1634,l,1,0.3886,,0.3886,1,519.1634,519.6621,,,,,,224,FEM,NOWORD,AGR,150,cira,,la,,519.6643,519.6647,0.031481481,-0.398148148,0,0,0,,0,223,223,223,1,cera,,,,
,,,,,,60da1796c3e41ab8e6885c04,676192165fb32c2e1fb7aee6,67d1ab7e74592039b17bcba4,2025-03-12_09h45.17.331,Tarea de decisión léxica,2024.2.5,Win32,370.3703704,,,,,,,,,,,,,,,,,,,,,,,519.6651,520.6459,a,1,0.3287,,0.3287,1,520.646,521.1445,,,,,,159,MAS,WORD,AGR,150,giro,,el,,521.1446,521.1446,0.031481481,-0.398148148,0,0,0,,0,224,224,158,1,bilo,,,,
,,,,,,60da1796c3e41ab8e6885c04,676192165fb32c2e1fb7aee6,67d1ab7e74592039b17bcba4,2025-03-12_09h45.17.331,Tarea de decisión léxica,2024.2.5,Win32,370.3703704,,,,,,,,,,,,,,,,,,,,,,,521.1465,522.3893,l,1,0.588,,0.588,1,522.3893,522.8874,,,,,,302,FEM,NOWORD,DIS,150,ranga,,el,,522.8874,522.8874,0.031481481,-0.398148148,0,0,0,,0,225,225,301,1,banda,,,,
,,,,,,60da1796c3e41ab8e6885c04,676192165fb32c2e1fb7aee6,67d1ab7e74592039b17bcba4,2025-03-12_09h45.17.331,Tarea de decisión léxica,2024.2.5,Win32,370.3703704,,,,,,,,,,,,,,,,,,,,,,,522.888,523.9463,l,1,0.4037,,0.4037,1,523.9464,524.4465,,,,,,376,FEM,NOWORD,AGR,150,sasna,,la,,524.4466,524.4467,0.031481481,-0.398148148,0,0,0,,0,226,226,375,1,salsa,,,,
,,,,,,60da1796c3e41ab8e6885c04,676192165fb32c2e1fb7aee6,67d1ab7e74592039b17bcba4,2025-03-12_09h45.17.331,Tarea de decisión léxica,2024.2.5,Win32,370.3703704,,,,,,,,,,,,,,,,,,,,,,,524.4474,525.4919,a,1,0.3877,,0.3877,1,525.492,525.9909,,,,,,263,FEM,WORD,AGR,150,vista,,la,,525.9916,525.9923,0.031481481,-0.398148148,0,0,0,,0,227,227,262,1,dosta,,,,
,,,,,,60da1796c3e41ab8e6885c04,676192165fb32c2e1fb7aee6,67d1ab7e74592039b17bcba4,2025-03-12_09h45.17.331,Tarea de decisión léxica,2024.2.5,Win32,370.3703704,,,,,,,,,,,,,,,,,,,,,,,525.9929,526.9867,l,1,0.3402,,0.3402,1,526.9868,527.4865,,,,,,98,MAS,NOWORD,DIS,150,fopo,,la,,527.4866,527.4867,0.031481481,-0.398148148,0,0,0,,0,228,228,97,1,mono,,,,
,,,,,,60da1796c3e41ab8e6885c04,676192165fb32c2e1fb7aee6,67d1ab7e74592039b17bcba4,2025-03-12_09h45.17.331,Tarea de decisión léxica,2024.2.5,Win32,370.3703704,,,,,,,,,,,,,,,,,,,,,,,527.4874,528.6007,l,1,0.4561,,0.4561,1,528.6008,529.0995,,,,,,322,MAS,NOWORD,DIS,150,rarco,,la,,529.0995,529.0996,0.031481481,-0.398148148,0,0,0,,0,229,229,321,1,banco,,,,
,,,,,,60da1796c3e41ab8e6885c04,676192165fb32c2e1fb7aee6,67d1ab7e74592039b17bcba4,2025-03-12_09h45.17.331,Tarea de decisión léxica,2024.2.5,Win32,370.3703704,,,,,,,,,,,,,,,,,,,,,,,529.1003,530.1425,a,1,0.3879,,0.3879,1,530.1426,530.6418,,,,,,201,FEM,WORD,DIS,150,cuna,,el,,530.6418,530.642,0.031481481,-0.398148148,0,0,0,,0,230,230,200,1,cusa,,,,
,,,,,,60da1796c3e41ab8e6885c04,676192165fb32c2e1fb7aee6,67d1ab7e74592039b17bcba4,2025-03-12_09h45.17.331,Tarea de decisión léxica,2024.2.5,Win32,370.3703704,,,,,,,,,,,,,,,,,,,,,,,530.6448,531.6257,l,1,0.3288,,0.3288,1,531.6258,532.1236,,,,,,116,FEM,NOWORD,AGR,150,haca,,la,,532.1236,532.1237,0.031481481,-0.398148148,0,0,0,,0,231,231,115,1,pata,,,,
,,,,,,60da1796c3e41ab8e6885c04,676192165fb32c2e1fb7aee6,67d1ab7e74592039b17bcba4,2025-03-12_09h45.17.331,Tarea de decisión léxica,2024.2.5,Win32,370.3703704,,,,,,,,,,,,,,,,,,,,,,,532.1243,533.2071,l,0,0.4304,,0.4304,0,533.2076,533.7073,,,,,,137,MAS,WORD,DIS,150,nene,,la,,533.7082,533.7089,0.031481481,-0.398148148,0,0,0,,0,232,232,136,1,pamo,,,,
,,,,,,60da1796c3e41ab8e6885c04,676192165fb32c2e1fb7aee6,67d1ab7e74592039b17bcba4,2025-03-12_09h45.17.331,Tarea de decisión léxica,2024.2.5,Win32,370.3703704,,,,,,,,,,,,,,,,,,,,,,,533.7094,534.8,l,1,0.4366,,0.4366,1,534.8004,535.2986,,,,,,74,MAS,NOWORD,DIS,150,omio,,la,,535.2986,535.2986,0.031481481,-0.398148148,0,0,0,,0,233,233,73,1,odio,,,,
,,,,,,60da1796c3e41ab8e6885c04,676192165fb32c2e1fb7aee6,67d1ab7e74592039b17bcba4,2025-03-12_09h45.17.331,Tarea de decisión léxica,2024.2.5,Win32,370.3703704,,,,,,,,,,,,,,,,,,,,,,,535.2994,536.2997,a,1,0.3477,,0.3477,1,536.2998,536.7963,,,,,,369,MAS,WORD,DIS,150,ruido,,la,,536.7966,536.7971,0.031481481,-0.398148148,0,0,0,,0,234,234,368,1,rioco,,,,
,,,,,,60da1796c3e41ab8e6885c04,676192165fb32c2e1fb7aee6,67d1ab7e74592039b17bcba4,2025-03-12_09h45.17.331,Tarea de decisión léxica,2024.2.5,Win32,370.3703704,,,,,,,,,,,,,,,,,,,,,,,536.7982,538.034,l,1,0.5842,,0.5842,1,538.034,538.5344,,,,,,254,MAS,NOWORD,DIS,150,trido,,la,,538.5345,538.5345,0.031481481,-0.398148148,0,0,0,,0,235,235,253,1,chico,,,,
,,,,,,60da1796c3e41ab8e6885c04,676192165fb32c2e1fb7aee6,67d1ab7e74592039b17bcba4,2025-03-12_09h45.17.331,Tarea de decisión léxica,2024.2.5,Win32,370.3703704,,,,,,,,,,,,,,,,,,,,,,,538.5354,539.6316,a,1,0.4425,,0.4425,1,539.6317,540.13,,,,,,273,FEM,WORD,DIS,150,broma,,el,,540.13,540.1301,0.031481481,-0.398148148,0,0,0,,0,236,236,272,1,frosa,,,,
,,,,,,60da1796c3e41ab8e6885c04,676192165fb32c2e1fb7aee6,67d1ab7e74592039b17bcba4,2025-03-12_09h45.17.331,Tarea de decisión léxica,2024.2.5,Win32,370.3703704,,,,,,,,,,,,,,,,,,,,,,,540.1308,541.1939,l,1,0.4107,,0.4107,1,541.1939,541.6929,,,,,,152,MAS,NOWORD,AGR,150,sogo,,el,,541.6935,541.694,0.031481481,-0.398148148,0,0,0,,0,237,237,151,1,tomo,,,,
,,,,,,60da1796c3e41ab8e6885c04,676192165fb32c2e1fb7aee6,67d1ab7e74592039b17bcba4,2025-03-12_09h45.17.331,Tarea de decisión léxica,2024.2.5,Win32,370.3703704,,,,,,,,,,,,,,,,,,,,,,,541.6945,542.7249,a,1,0.3766,,0.3766,1,542.725,543.2229,,,,,,347,FEM,WORD,AGR,150,pieza,,la,,543.2229,543.223,0.031481481,-0.398148148,0,0,0,,0,238,238,346,1,mueza,,,,
,,,,,,60da1796c3e41ab8e6885c04,676192165fb32c2e1fb7aee6,67d1ab7e74592039b17bcba4,2025-03-12_09h45.17.331,Tarea de decisión léxica,2024.2.5,Win32,370.3703704,,,,,,,,,,,,,,,,,,,,,,,543.2236,544.1868,l,1,0.3086,,0.3086,1,544.1869,544.6849,,,,,,476,FEM,NOWORD,AGR,150,mucta,,la,,544.685,544.6851,0.031481481,-0.398148148,0,0,0,,0,239,239,475,1,manta,,,,
,,,,,,60da1796c3e41ab8e6885c04,676192165fb32c2e1fb7aee6,67d1ab7e74592039b17bcba4,2025-03-12_09h45.17.331,Tarea de decisión léxica,2024.2.5,Win32,370.3703704,,,,,,,,,,,,,,,,,,,,,,,544.686,545.728,a,1,0.3876,,0.3876,1,545.728,546.2287,,,,,,227,MAS,WORD,AGR,150,faro,,el,,546.2288,546.2288,0.031481481,-0.398148148,0,0,0,,0,240,240,226,1,laro,,,,
,,,,,,60da1796c3e41ab8e6885c04,676192165fb32c2e1fb7aee6,67d1ab7e74592039b17bcba4,2025-03-12_09h45.17.331,Tarea de decisión léxica,2024.2.5,Win32,370.3703704,,,,,,,,,,,,,,,,,,,,,,,546.2295,547.3079,l,1,0.4256,,0.4256,1,547.3079,547.8087,,,,,,280,FEM,NOWORD,AGR,150,grina,,la,,547.8088,547.8089,0.031481481,-0.398148148,0,0,0,,0,241,241,279,1,prisa,,,,
,,,,,,60da1796c3e41ab8e6885c04,676192165fb32c2e1fb7aee6,67d1ab7e74592039b17bcba4,2025-03-12_09h45.17.331,Tarea de decisión léxica,2024.2.5,Win32,370.3703704,,,,,,,,,,,,,,,,,,,,,,,547.8107,548.7646,a,1,0.3017,,0.3017,1,548.7647,549.2631,,,,,,351,MAS,WORD,AGR,150,vuelo,,el,,549.264,549.2654,0.031481481,-0.398148148,0,0,0,,0,242,242,350,1,duepo,,,,
,,,,,,60da1796c3e41ab8e6885c04,676192165fb32c2e1fb7aee6,67d1ab7e74592039b17bcba4,2025-03-12_09h45.17.331,Tarea de decisión léxica,2024.2.5,Win32,370.3703704,,,,,,,,,,,,,,,,,,,,,,,549.2662,550.3932,a,1,0.4719,,0.4719,1,550.3933,550.893,,,,,,297,MAS,WORD,DIS,150,grupo,,la,,550.8931,550.8932,0.031481481,-0.398148148,0,0,0,,0,243,243,296,1,brubo,,,,
,,,,,,60da1796c3e41ab8e6885c04,676192165fb32c2e1fb7aee6,67d1ab7e74592039b17bcba4,2025-03-12_09h45.17.331,Tarea de decisión léxica,2024.2.5,Win32,370.3703704,,,,,,,,,,,,,,,,,,,,,,,550.8938,552.0054,l,1,0.4594,,0.4594,1,552.0055,552.5036,,,,,,438,FEM,NOWORD,DIS,150,glava,,el,,552.5036,552.5037,0.031481481,-0.398148148,0,0,0,,0,244,244,437,1,plaza,,,,
,,,,,,60da1796c3e41ab8e6885c04,676192165fb32c2e1fb7aee6,67d1ab7e74592039b17bcba4,2025-03-12_09h45.17.331,Tarea de decisión léxica,2024.2.5,Win32,370.3703704,,,,,,,,,,,,,,,,,,,,,,,552.5043,553.5119,a,1,0.355,,0.355,1,553.5121,554.0115,,,,,,231,FEM,WORD,AGR,150,bota,,la,,554.0116,554.0117,0.031481481,-0.398148148,0,0,0,,0,245,245,230,1,heta,,,,
,,,,,,60da1796c3e41ab8e6885c04,676192165fb32c2e1fb7aee6,67d1ab7e74592039b17bcba4,2025-03-12_09h45.17.331,Tarea de decisión léxica,2024.2.5,Win32,370.3703704,,,,,,,,,,,,,,,,,,,,,,,554.0122,555.2313,l,1,0.5653,,0.5653,1,555.2315,555.7312,,,,,,118,MAS,NOWORD,DIS,150,movo,,la,,555.7312,555.7314,0.031481481,-0.398148148,0,0,0,,0,246,246,117,1,palo,,,,
,,,,,,60da1796c3e41ab8e6885c04,676192165fb32c2e1fb7aee6,67d1ab7e74592039b17bcba4,2025-03-12_09h45.17.331,Tarea de decisión léxica,2024.2.5,Win32,370.3703704,,,,,,,,,,,,,,,,,,,,,,,555.7321,556.7551,l,1,0.3705,,0.3705,1,556.7551,557.2557,,,,,,104,FEM,NOWORD,AGR,150,rova,,la,,557.2578,557.2582,0.031481481,-0.398148148,0,0,0,,0,247,247,103,1,ruta,,,,
,,,,,,60da1796c3e41ab8e6885c04,676192165fb32c2e1fb7aee6,67d1ab7e74592039b17bcba4,2025-03-12_09h45.17.331,Tarea de decisión léxica,2024.2.5,Win32,370.3703704,,,,,,,,,,,,,,,,,,,,,,,557.2586,558.2998,a,0,0.3878,,0.3878,0,558.3002,558.7977,,,,,,206,FEM,NOWORD,DIS,150,bara,,el,,558.7978,558.7978,0.031481481,-0.398148148,0,0,0,,0,248,248,205,1,rana,,,,
,,,,,,60da1796c3e41ab8e6885c04,676192165fb32c2e1fb7aee6,67d1ab7e74592039b17bcba4,2025-03-12_09h45.17.331,Tarea de decisión léxica,2024.2.5,Win32,370.3703704,,,,,,,,,,,,,,,,,,,,,,,558.7984,559.7975,a,1,0.3478,,0.3478,1,559.7978,560.2974,,,,,,215,FEM,WORD,AGR,150,raíz,,la,,560.2974,560.2975,0.031481481,-0.398148148,0,0,0,,0,249,249,214,1,raua,,,,
,,,,,,60da1796c3e41ab8e6885c04,676192165fb32c2e1fb7aee6,67d1ab7e74592039b17bcba4,2025-03-12_09h45.17.331,Tarea de decisión léxica,2024.2.5,Win32,370.3703704,,,,,,,,,,,,,,,,,,,,,,,560.2985,561.3643,a,1,0.415,,0.415,1,561.3643,561.8651,,,,,,399,MAS,WORD,AGR,150,techo,,el,,561.8651,561.8652,0.031481481,-0.398148148,0,0,0,,0,250,250,398,1,serro,,,,
,,,,,,60da1796c3e41ab8e6885c04,676192165fb32c2e1fb7aee6,67d1ab7e74592039b17bcba4,2025-03-12_09h45.17.331,Tarea de decisión léxica,2024.2.5,Win32,370.3703704,,,,,,,,,,,,,,,,,,,,,,,561.8663,562.8977,a,0,0.3795,,0.3795,0,562.8993,563.3975,,,,,,144,MAS,NOWORD,AGR,150,pezo,,el,,563.398,563.3985,0.031481481,-0.398148148,0,0,0,,0,251,251,143,1,pavo,,,,
,,,,,,60da1796c3e41ab8e6885c04,676192165fb32c2e1fb7aee6,67d1ab7e74592039b17bcba4,2025-03-12_09h45.17.331,Tarea de decisión léxica,2024.2.5,Win32,370.3703704,,,,,,,,,,,,,,,,,,,,,,,563.3991,564.4972,a,1,0.4462,,0.4462,1,564.4975,564.9972,,,,,,179,MAS,WORD,AGR,150,toro,,el,,564.9973,564.9974,0.031481481,-0.398148148,0,0,0,,0,252,252,178,1,sono,,,,
,,,,,,60da1796c3e41ab8e6885c04,676192165fb32c2e1fb7aee6,67d1ab7e74592039b17bcba4,2025-03-12_09h45.17.331,Tarea de decisión léxica,2024.2.5,Win32,370.3703704,,,,,,,,,,,,,,,,,,,,,,,564.9991,566.0457,a,1,0.3952,,0.3952,1,566.0458,566.5442,,,,,,419,MAS,WORD,AGR,150,truco,,el,,566.5443,566.5444,0.031481481,-0.398148148,0,0,0,,0,253,253,418,1,chudo,,,,
,,,,,,60da1796c3e41ab8e6885c04,676192165fb32c2e1fb7aee6,67d1ab7e74592039b17bcba4,2025-03-12_09h45.17.331,Tarea de decisión léxica,2024.2.5,Win32,370.3703704,,,,,,,,,,,,,,,,,,,,,,,566.5463,567.5307,a,1,0.3336,,0.3336,1,567.5307,568.0287,,,,,,457,MAS,WORD,DIS,150,plato,,la,,568.0287,568.0287,0.031481481,-0.398148148,0,0,0,,0,254,254,456,1,glaco,,,,
,,,,,,60da1796c3e41ab8e6885c04,676192165fb32c2e1fb7aee6,67d1ab7e74592039b17bcba4,2025-03-12_09h45.17.331,Tarea de decisión léxica,2024.2.5,Win32,370.3703704,,,,,,,,,,,,,,,,,,,,,,,568.0296,569.0317,a,1,0.3511,,0.3511,1,569.0317,569.5338,,,,,,207,MAS,WORD,AGR,150,kilo,,el,,569.5339,569.5341,0.031481481,-0.398148148,0,0,0,,0,255,255,206,1,kedo,,,,
,,,,,,60da1796c3e41ab8e6885c04,676192165fb32c2e1fb7aee6,67d1ab7e74592039b17bcba4,2025-03-12_09h45.17.331,Tarea de decisión léxica,2024.2.5,Win32,370.3703704,,,,,,,,,,,,,,,,,,,,,,,569.5347,570.5973,a,1,0.4097,,0.4097,1,570.5974,571.0959,,,,,,219,FEM,WORD,AGR,150,pipa,,la,,571.0966,571.0968,0.031481481,-0.398148148,0,0,0,,0,256,256,218,1,miva,,,,
,,,,,,60da1796c3e41ab8e6885c04,676192165fb32c2e1fb7aee6,67d1ab7e74592039b17bcba4,2025-03-12_09h45.17.331,Tarea de decisión léxica,2024.2.5,Win32,370.3703704,,,,,,,,,,,,,,,,,,,,,,,571.0971,572.0673,a,0,0.3138,,0.3138,0,572.0677,572.566,,,,,,180,MAS,NOWORD,AGR,150,sono,,el,,572.566,572.5661,0.031481481,-0.398148148,0,0,0,,0,257,257,179,1,toro,,,,
,,,,,,60da1796c3e41ab8e6885c04,676192165fb32c2e1fb7aee6,67d1ab7e74592039b17bcba4,2025-03-12_09h45.17.331,Tarea de decisión léxica,2024.2.5,Win32,370.3703704,,,,,,,,,,,,,,,,,,,,,,,572.5668,573.6059,a,1,0.3855,,0.3855,1,573.6062,574.1039,,,,,,415,FEM,WORD,AGR,150,jaula,,la,,574.104,574.1041,0.031481481,-0.398148148,0,0,0,,0,258,258,414,1,juira,,,,
,,,,,,60da1796c3e41ab8e6885c04,676192165fb32c2e1fb7aee6,67d1ab7e74592039b17bcba4,2025-03-12_09h45.17.331,Tarea de decisión léxica,2024.2.5,Win32,370.3703704,,,,,,,,,,,,,,,,,,,,,,,574.1054,575.1406,a,1,0.3815,,0.3815,1,575.1407,575.6406,,,,,,291,FEM,WORD,AGR,150,pista,,la,,575.6406,575.6407,0.031481481,-0.398148148,0,0,0,,0,259,259,290,1,mesta,,,,
,,,,,,60da1796c3e41ab8e6885c04,676192165fb32c2e1fb7aee6,67d1ab7e74592039b17bcba4,2025-03-12_09h45.17.331,Tarea de decisión léxica,2024.2.5,Win32,370.3703704,,,,,,,,,,,,,,,,,,,,,,,575.6419,576.6308,l,1,0.3367,,0.3367,1,576.6309,577.1291,,,,,,318,FEM,NOWORD,DIS,150,plaad,,el,,577.1291,577.1292,0.031481481,-0.398148148,0,0,0,,0,260,260,317,1,playa,,,,
,,,,,,60da1796c3e41ab8e6885c04,676192165fb32c2e1fb7aee6,67d1ab7e74592039b17bcba4,2025-03-12_09h45.17.331,Tarea de decisión léxica,2024.2.5,Win32,370.3703704,,,,,,,,,,,,,,,,,,,,,,,577.1299,578.2267,l,1,0.4448,,0.4448,1,578.2268,578.7261,,,,,,130,MAS,NOWORD,DIS,150,pima,,la,,578.7284,578.7291,0.031481481,-0.398148148,0,0,0,,0,261,261,129,1,oído,,,,
,,,,,,60da1796c3e41ab8e6885c04,676192165fb32c2e1fb7aee6,67d1ab7e74592039b17bcba4,2025-03-12_09h45.17.331,Tarea de decisión léxica,2024.2.5,Win32,370.3703704,,,,,,,,,,,,,,,,,,,,,,,578.731,579.8585,a,1,0.4761,,0.4761,1,579.8587,580.3592,,,,,,357,FEM,WORD,DIS,150,bruja,,el,,580.3592,580.3592,0.031481481,-0.398148148,0,0,0,,0,262,262,356,1,gruba,,,,
,,,,,,60da1796c3e41ab8e6885c04,676192165fb32c2e1fb7aee6,67d1ab7e74592039b17bcba4,2025-03-12_09h45.17.331,Tarea de decisión léxica,2024.2.5,Win32,370.3703704,,,,,,,,,,,,,,,,,,,,,,,580.3598,581.5223,l,1,0.5085,,0.5085,1,581.5224,582.0206,,,,,,410,MAS,NOWORD,DIS,150,pafro,,la,,582.0207,582.0207,0.031481481,-0.398148148,0,0,0,,0,263,263,409,1,carro,,,,
