counterbalancing_condition,consent_prescreening.block_1/declare_consent,consent_prescreening.block_1/age_years,consent_prescreening.block_1/gender,consent_prescreening.block_1/language_disorder,consent_prescreening.block_1/first_language,consent_prescreening.block_1/first_language-Comment,PROLIFIC_PID,STUDY_ID,SESSION_ID,date,expName,psychopyVersion,OS,frameRate,check_prescreening_answers.started,check_prescreening_answers.stopped,Instructions.started,Instructions.stopped,instr_done_keyboard.keys,instr_done_keyboard.rt,instr_done_keyboard.duration,instr_done_touch.x,instr_done_touch.y,instr_done_touch.leftButton,instr_done_touch.midButton,instr_done_touch.rightButton,instruction_pages.thisRepN,instruction_pages.thisTrialN,instruction_pages.thisN,instruction_pages.thisIndex,instruction_pages.ran,pageN,phase,instruct_text,has_image,instruct_image,presentTrial.started,presentTrial.stopped,response.keys,response.corr,response.rt,response.duration,rt,corr,feedback.started,feedback.stopped,practice_trials.thisRepN,practice_trials.thisTrialN,practice_trials.thisN,practice_trials.thisIndex,practice_trials.ran,TrialID,Gender,StimulusType,Condition,PrimeDuration,Prime,len,Flanker,corrAns,Break.started,Break.stopped,break_done_touch.x,break_done_touch.y,break_done_touch.leftButton,break_done_touch.midButton,break_done_touch.rightButton,break_done_keyboard.keys,experiment_trials.thisRepN,experiment_trials.thisTrialN,experiment_trials.thisN,experiment_trials.thisIndex,experiment_trials.ran,PairedWith,break_done_keyboard.rt,break_done_keyboard.duration,End.started,End.stopped
1,"[""over_18"",""comfortable"",""read_info"",""consent_given""]",21,F,"[""none""]","[""spanish"",""other""]",polaco,60f364780342181eb49b70d7,676192165fb32c2e1fb7aee6,67d1ab66e41611b45b4d2de5,2025-03-12_16h43.07.485,Tarea de decisión léxica,2024.2.5,MacIntel,59.88023952,,,,,,,,,,,,,,,,,,,,,,,,,,,,,,,,,,,,,,,,,,,,,,,,,,,,,,,,,,,,,,,,
,,,,,,,60f364780342181eb49b70d7,676192165fb32c2e1fb7aee6,67d1ab66e41611b45b4d2de5,2025-03-12_16h43.07.485,Tarea de decisión léxica,2024.2.5,MacIntel,59.88023952,57.9433,57.9434,,,,,,,,,,,,,,,,,,,,,,,,,,,,,,,,,,,,,,,,,,,,,,,,,,,,,,,,,,,,,,
,,,,,,,60f364780342181eb49b70d7,676192165fb32c2e1fb7aee6,67d1ab66e41611b45b4d2de5,2025-03-12_16h43.07.485,Tarea de decisión léxica,2024.2.5,MacIntel,59.88023952,,,57.9674,116.342,space,58.3417,,-0.150546875,-0.019296875,0,0,0,0,0,0,0,1,1,instructions,"INSTRUCCIONES
Va a realizar una prueba de decisión léxica. Desde el comienzo de la prueba mire siempre al centro de la pantalla. Se presentará una serie de cadenas de letras, una a la vez, en la pantalla. Su tarea consiste en determinar si cada cadena de letras constituye una palabra real en español o una no-palabra (una secuencia de letras que no constituye una palabra real). 

Pulse la tecla ESPACIO para continuar.",0,keyboardresponseNW.png,,,,,,,,,,,,,,,,,,,,,,,,,,,,,,,,,,,,,,,,,,
,,,,,,,60f364780342181eb49b70d7,676192165fb32c2e1fb7aee6,67d1ab66e41611b45b4d2de5,2025-03-12_16h43.07.485,Tarea de decisión léxica,2024.2.5,MacIntel,59.88023952,,,116.3449,132.7433,space,16.3689,,-0.150546875,-0.019296875,0,0,0,0,1,1,1,1,2,instructions,"El procedimiento es el siguiente: Aparecerán dos barras verticales posicionadas en el centro de la pantalla, separadas por un pequeño espacio.Por favor, enfoque su atención en el espacio entre las barras. Esto preparará sus ojos para la siguiente cadena de letras, que aparecerá entre las dos barras durante un instante.

Pulse la tecla ESPACIO para continuar.",0,keyboardresponseNW.png,,,,,,,,,,,,,,,,,,,,,,,,,,,,,,,,,,,,,,,,,,
,,,,,,,60f364780342181eb49b70d7,676192165fb32c2e1fb7aee6,67d1ab66e41611b45b4d2de5,2025-03-12_16h43.07.485,Tarea de decisión léxica,2024.2.5,MacIntel,59.88023952,,,132.746,141.4102,space,8.6176,,-0.150546875,-0.019296875,0,0,0,0,2,2,2,1,3,instructions,"En el teclado de su dispositivo, pulse la tecla ""L"" si la cadena de letras es una palabra real en español (por ejemplo: ""mano"") y la tecla ""A"" si la cadena de letras es una no-palabra (por ejemplo: ""minu"").
Pulse la tecla ESPACIO para continuar.",1,keyboardresponseNW.png,,,,,,,,,,,,,,,,,,,,,,,,,,,,,,,,,,,,,,,,,,
,,,,,,,60f364780342181eb49b70d7,676192165fb32c2e1fb7aee6,67d1ab66e41611b45b4d2de5,2025-03-12_16h43.07.485,Tarea de decisión léxica,2024.2.5,MacIntel,59.88023952,,,141.4128,153.5776,space,12.1395,,-0.150546875,-0.019296875,0,0,0,0,3,3,3,1,4,instructions,"Es muy importante que responda con la mayor rapidez y precisión posibles. Si no responde dentro de 2 segundos, aparecerá el mensaje ""Muy lento"" y el experimento pasará a la siguiente palabra. Inmediatamente después de su respuesta se indicará si fue correcta o no. Los primeros 15 intentos serán de práctica y habrá dos descansos durante la prueba.

Pulse la tecla ESPACIO  para iniciar la parte de práctica.",0,keyboardresponseNW.png,,,,,,,,,,,,,,,,,,,,,,,,,,,,,,,,,,,,,,,,,,
,,,,,,,60f364780342181eb49b70d7,676192165fb32c2e1fb7aee6,67d1ab66e41611b45b4d2de5,2025-03-12_16h43.07.485,Tarea de decisión léxica,2024.2.5,MacIntel,59.88023952,,,,,,,,,,,,,,,,,,,,,,,153.6002,155.4936,l,1,1.2165,,1.2165,1,155.4941,155.9934,0,0,0,9,1,1010,MAS,WORD,DIS,150,video,5,la,l,,,,,,,,,,,,,,,,,,
,,,,,,,60f364780342181eb49b70d7,676192165fb32c2e1fb7aee6,67d1ab66e41611b45b4d2de5,2025-03-12_16h43.07.485,Tarea de decisión léxica,2024.2.5,MacIntel,59.88023952,,,,,,,,,,,,,,,,,,,,,,,155.9947,157.1431,a,1,0.4889,,0.4889,1,157.1432,157.6444,0,1,1,3,1,1004,FEM,NOWORD,AGR,150,bireo,5,la,a,,,,,,,,,,,,,,,,,,
,,,,,,,60f364780342181eb49b70d7,676192165fb32c2e1fb7aee6,67d1ab66e41611b45b4d2de5,2025-03-12_16h43.07.485,Tarea de decisión léxica,2024.2.5,MacIntel,59.88023952,,,,,,,,,,,,,,,,,,,,,,,157.6459,159.194,a,0,0.8687,,0.8687,0,159.1952,159.6942,0,2,2,7,1,1008,MAS,WORD,DIS,150,frío,4,la,l,,,,,,,,,,,,,,,,,,
,,,,,,,60f364780342181eb49b70d7,676192165fb32c2e1fb7aee6,67d1ab66e41611b45b4d2de5,2025-03-12_16h43.07.485,Tarea de decisión léxica,2024.2.5,MacIntel,59.88023952,,,,,,,,,,,,,,,,,,,,,,,159.6954,160.6603,l,1,0.289,,0.289,1,160.6612,161.1611,0,3,3,5,1,1006,FEM,WORD,AGR,150,cara,4,la,l,,,,,,,,,,,,,,,,,,
,,,,,,,60f364780342181eb49b70d7,676192165fb32c2e1fb7aee6,67d1ab66e41611b45b4d2de5,2025-03-12_16h43.07.485,Tarea de decisión léxica,2024.2.5,MacIntel,59.88023952,,,,,,,,,,,,,,,,,,,,,,,161.1625,162.5443,a,1,0.7069,,0.7069,1,162.5445,163.0444,0,4,4,0,1,1001,FEM,NOWORD,AGR,150,croz,4,la,a,,,,,,,,,,,,,,,,,,
,,,,,,,60f364780342181eb49b70d7,676192165fb32c2e1fb7aee6,67d1ab66e41611b45b4d2de5,2025-03-12_16h43.07.485,Tarea de decisión léxica,2024.2.5,MacIntel,59.88023952,,,,,,,,,,,,,,,,,,,,,,,163.0457,164.3444,a,1,0.6222,,0.6222,1,164.3445,164.8446,0,5,5,1,1,1002,FEM,NOWORD,DIS,150,mabo,4,el,a,,,,,,,,,,,,,,,,,,
,,,,,,,60f364780342181eb49b70d7,676192165fb32c2e1fb7aee6,67d1ab66e41611b45b4d2de5,2025-03-12_16h43.07.485,Tarea de decisión léxica,2024.2.5,MacIntel,59.88023952,,,,,,,,,,,,,,,,,,,,,,,164.8461,165.8269,l,1,0.3038,,0.3038,1,165.827,166.3279,0,6,6,6,1,1007,MAS,WORD,DIS,150,masa,4,la,l,,,,,,,,,,,,,,,,,,
,,,,,,,60f364780342181eb49b70d7,676192165fb32c2e1fb7aee6,67d1ab66e41611b45b4d2de5,2025-03-12_16h43.07.485,Tarea de decisión léxica,2024.2.5,MacIntel,59.88023952,,,,,,,,,,,,,,,,,,,,,,,166.3294,167.2946,l,1,0.2849,,0.2849,1,167.2947,167.7938,0,7,7,8,1,1009,FEM,WORD,AGR,150,viejo,5,la,l,,,,,,,,,,,,,,,,,,
,,,,,,,60f364780342181eb49b70d7,676192165fb32c2e1fb7aee6,67d1ab66e41611b45b4d2de5,2025-03-12_16h43.07.485,Tarea de decisión léxica,2024.2.5,MacIntel,59.88023952,,,,,,,,,,,,,,,,,,,,,,,167.7954,168.8614,a,1,0.4029,,0.4029,1,168.8615,169.3612,0,8,8,4,1,1005,MAS,NOWORD,DIS,150,nobad,5,la,a,,,,,,,,,,,,,,,,,,
,,,,,,,60f364780342181eb49b70d7,676192165fb32c2e1fb7aee6,67d1ab66e41611b45b4d2de5,2025-03-12_16h43.07.485,Tarea de decisión léxica,2024.2.5,MacIntel,59.88023952,,,,,,,,,,,,,,,,,,,,,,,169.3625,170.4615,a,1,0.429,,0.429,1,170.4617,170.9615,0,9,9,2,1,1003,FEM,NOWORD,DIS,150,muvor,5,el,a,,,,,,,,,,,,,,,,,,
,,,,,,,60f364780342181eb49b70d7,676192165fb32c2e1fb7aee6,67d1ab66e41611b45b4d2de5,2025-03-12_16h43.07.485,Tarea de decisión léxica,2024.2.5,MacIntel,59.88023952,,,175.6651,181.6449,space,5.9544,,-0.150546875,-0.019296875,0,0,0,,,,,,,,,,,181.6841,182.6614,l,0,0.3127,,0.3127,0,182.6625,183.1611,,,,,,360,MAS,NOWORD,DIS,150,cacer,,la,,183.1616,183.1645,-0.150546875,-0.019296875,0,0,0,,0,0,0,359,1,calor,,,,
,,,,,,,60f364780342181eb49b70d7,676192165fb32c2e1fb7aee6,67d1ab66e41611b45b4d2de5,2025-03-12_16h43.07.485,Tarea de decisión léxica,2024.2.5,MacIntel,59.88023952,,,,,,,,,,,,,,,,,,,,,,,183.1656,184.162,a,1,0.3173,,0.3173,1,184.1629,184.6612,,,,,,108,MAS,NOWORD,DIS,150,raot,,la,,184.6613,184.6615,-0.150546875,-0.019296875,0,0,0,,0,1,1,107,1,saco,,,,
,,,,,,,60f364780342181eb49b70d7,676192165fb32c2e1fb7aee6,67d1ab66e41611b45b4d2de5,2025-03-12_16h43.07.485,Tarea de decisión léxica,2024.2.5,MacIntel,59.88023952,,,,,,,,,,,,,,,,,,,,,,,184.6627,185.6955,l,1,0.3662,,0.3662,1,185.6957,186.1955,,,,,,219,FEM,WORD,DIS,150,pipa,,el,,186.1968,186.1978,-0.150546875,-0.019296875,0,0,0,,0,2,2,218,1,miva,,,,
,,,,,,,60f364780342181eb49b70d7,676192165fb32c2e1fb7aee6,67d1ab66e41611b45b4d2de5,2025-03-12_16h43.07.485,Tarea de decisión léxica,2024.2.5,MacIntel,59.88023952,,,,,,,,,,,,,,,,,,,,,,,186.1987,187.1629,l,1,0.2962,,0.2962,1,187.163,187.6623,,,,,,23,FEM,WORD,DIS,150,hija,,el,,187.6624,187.6625,-0.150546875,-0.019296875,0,0,0,,0,3,3,22,1,giva,,,,
,,,,,,,60f364780342181eb49b70d7,676192165fb32c2e1fb7aee6,67d1ab66e41611b45b4d2de5,2025-03-12_16h43.07.485,Tarea de decisión léxica,2024.2.5,MacIntel,59.88023952,,,,,,,,,,,,,,,,,,,,,,,187.6637,188.7622,l,1,0.4287,,0.4287,1,188.7623,189.2623,,,,,,117,MAS,WORD,DIS,150,palo,,la,,189.2624,189.2626,-0.150546875,-0.019296875,0,0,0,,0,4,4,116,1,movo,,,,
,,,,,,,60f364780342181eb49b70d7,676192165fb32c2e1fb7aee6,67d1ab66e41611b45b4d2de5,2025-03-12_16h43.07.485,Tarea de decisión léxica,2024.2.5,MacIntel,59.88023952,,,,,,,,,,,,,,,,,,,,,,,189.2637,190.2624,a,1,0.3288,,0.3288,1,190.2626,190.7624,,,,,,306,MAS,NOWORD,AGR,150,adiol,,el,,190.7625,190.7628,-0.150546875,-0.019296875,0,0,0,,0,5,5,305,1,avión,,,,
,,,,,,,60f364780342181eb49b70d7,676192165fb32c2e1fb7aee6,67d1ab66e41611b45b4d2de5,2025-03-12_16h43.07.485,Tarea de decisión léxica,2024.2.5,MacIntel,59.88023952,,,,,,,,,,,,,,,,,,,,,,,190.7638,191.6949,l,1,0.2507,,0.2507,1,191.695,192.1959,,,,,,411,MAS,WORD,AGR,150,pollo,,el,,192.196,192.1962,-0.150546875,-0.019296875,0,0,0,,0,6,6,410,1,mobro,,,,
,,,,,,,60f364780342181eb49b70d7,676192165fb32c2e1fb7aee6,67d1ab66e41611b45b4d2de5,2025-03-12_16h43.07.485,Tarea de decisión léxica,2024.2.5,MacIntel,59.88023952,,,,,,,,,,,,,,,,,,,,,,,192.1976,193.095,l,1,0.2181,,0.2181,1,193.0951,193.5962,,,,,,51,FEM,WORD,DIS,150,caja,,el,,193.5977,193.5988,-0.150546875,-0.019296875,0,0,0,,0,7,7,50,1,mava,,,,
,,,,,,,60f364780342181eb49b70d7,676192165fb32c2e1fb7aee6,67d1ab66e41611b45b4d2de5,2025-03-12_16h43.07.485,Tarea de decisión léxica,2024.2.5,MacIntel,59.88023952,,,,,,,,,,,,,,,,,,,,,,,193.5998,194.4794,l,1,0.2009,,0.2009,1,194.4796,194.9783,,,,,,421,MAS,WORD,AGR,150,primo,,el,,194.9785,194.9785,-0.150546875,-0.019296875,0,0,0,,0,8,8,420,1,griso,,,,
,,,,,,,60f364780342181eb49b70d7,676192165fb32c2e1fb7aee6,67d1ab66e41611b45b4d2de5,2025-03-12_16h43.07.485,Tarea de decisión léxica,2024.2.5,MacIntel,59.88023952,,,,,,,,,,,,,,,,,,,,,,,194.9797,195.8459,l,1,0.2002,,0.2002,1,195.8461,196.3461,,,,,,367,MAS,WORD,AGR,150,reloj,,el,,196.3461,196.3464,-0.150546875,-0.019296875,0,0,0,,0,9,9,366,1,rerob,,,,
,,,,,,,60f364780342181eb49b70d7,676192165fb32c2e1fb7aee6,67d1ab66e41611b45b4d2de5,2025-03-12_16h43.07.485,Tarea de decisión léxica,2024.2.5,MacIntel,59.88023952,,,,,,,,,,,,,,,,,,,,,,,196.3474,197.3121,l,0,0.2951,,0.2951,0,197.313,197.8128,,,,,,28,MAS,NOWORD,DIS,150,ravo,,la,,197.8129,197.8131,-0.150546875,-0.019296875,0,0,0,,0,10,10,27,1,baño,,,,
,,,,,,,60f364780342181eb49b70d7,676192165fb32c2e1fb7aee6,67d1ab66e41611b45b4d2de5,2025-03-12_16h43.07.485,Tarea de decisión léxica,2024.2.5,MacIntel,59.88023952,,,,,,,,,,,,,,,,,,,,,,,197.8141,198.8125,l,1,0.3168,,0.3168,1,198.8134,199.3129,,,,,,255,MAS,WORD,DIS,150,miedo,,la,,199.3142,199.3149,-0.150546875,-0.019296875,0,0,0,,0,11,11,254,1,mauco,,,,
,,,,,,,60f364780342181eb49b70d7,676192165fb32c2e1fb7aee6,67d1ab66e41611b45b4d2de5,2025-03-12_16h43.07.485,Tarea de decisión léxica,2024.2.5,MacIntel,59.88023952,,,,,,,,,,,,,,,,,,,,,,,199.3158,200.3129,l,0,0.323,,0.323,0,200.3143,200.8129,,,,,,438,FEM,NOWORD,AGR,150,glava,,la,,200.813,200.8132,-0.150546875,-0.019296875,0,0,0,,0,12,12,437,1,plaza,,,,
,,,,,,,60f364780342181eb49b70d7,676192165fb32c2e1fb7aee6,67d1ab66e41611b45b4d2de5,2025-03-12_16h43.07.485,Tarea de decisión léxica,2024.2.5,MacIntel,59.88023952,,,,,,,,,,,,,,,,,,,,,,,200.8144,201.9296,l,1,0.4456,,0.4456,1,201.9307,202.4296,,,,,,355,FEM,WORD,AGR,150,regla,,la,,202.4296,202.4298,-0.150546875,-0.019296875,0,0,0,,0,13,13,354,1,bepla,,,,
,,,,,,,60f364780342181eb49b70d7,676192165fb32c2e1fb7aee6,67d1ab66e41611b45b4d2de5,2025-03-12_16h43.07.485,Tarea de decisión léxica,2024.2.5,MacIntel,59.88023952,,,,,,,,,,,,,,,,,,,,,,,202.4309,203.6297,a,1,0.5286,,0.5286,1,203.6298,204.1292,,,,,,130,MAS,NOWORD,AGR,150,pima,,el,,204.1293,204.1294,-0.150546875,-0.019296875,0,0,0,,0,14,14,129,1,oído,,,,
,,,,,,,60f364780342181eb49b70d7,676192165fb32c2e1fb7aee6,67d1ab66e41611b45b4d2de5,2025-03-12_16h43.07.485,Tarea de decisión léxica,2024.2.5,MacIntel,59.88023952,,,,,,,,,,,,,,,,,,,,,,,204.1305,205.1964,l,1,0.3848,,0.3848,1,205.1965,205.6964,,,,,,221,FEM,WORD,AGR,150,mula,,la,,205.6966,205.6966,-0.150546875,-0.019296875,0,0,0,,0,15,15,220,1,puca,,,,
,,,,,,,60f364780342181eb49b70d7,676192165fb32c2e1fb7aee6,67d1ab66e41611b45b4d2de5,2025-03-12_16h43.07.485,Tarea de decisión léxica,2024.2.5,MacIntel,59.88023952,,,,,,,,,,,,,,,,,,,,,,,205.6978,206.6957,a,1,0.3175,,0.3175,1,206.6958,207.1965,,,,,,100,MAS,NOWORD,DIS,150,soro,,la,,207.1977,207.1986,-0.150546875,-0.019296875,0,0,0,,0,16,16,99,1,lobo,,,,
,,,,,,,60f364780342181eb49b70d7,676192165fb32c2e1fb7aee6,67d1ab66e41611b45b4d2de5,2025-03-12_16h43.07.485,Tarea de decisión léxica,2024.2.5,MacIntel,59.88023952,,,,,,,,,,,,,,,,,,,,,,,207.1994,208.197,a,1,0.3297,,0.3297,1,208.1972,208.6959,,,,,,272,FEM,NOWORD,DIS,150,refal,,el,,208.6959,208.6961,-0.150546875,-0.019296875,0,0,0,,0,17,17,271,1,señal,,,,
,,,,,,,60f364780342181eb49b70d7,676192165fb32c2e1fb7aee6,67d1ab66e41611b45b4d2de5,2025-03-12_16h43.07.485,Tarea de decisión léxica,2024.2.5,MacIntel,59.88023952,,,,,,,,,,,,,,,,,,,,,,,208.6974,209.7303,a,1,0.3499,,0.3499,1,209.7304,210.2303,,,,,,270,MAS,NOWORD,AGR,150,mello,,el,,210.2304,210.2305,-0.150546875,-0.019296875,0,0,0,,0,18,18,269,1,perro,,,,
,,,,,,,60f364780342181eb49b70d7,676192165fb32c2e1fb7aee6,67d1ab66e41611b45b4d2de5,2025-03-12_16h43.07.485,Tarea de decisión léxica,2024.2.5,MacIntel,59.88023952,,,,,,,,,,,,,,,,,,,,,,,210.2319,211.1295,l,1,0.2172,,0.2172,1,211.1296,211.6302,,,,,,281,MAS,WORD,AGR,150,cielo,,el,,211.6302,211.6303,-0.150546875,-0.019296875,0,0,0,,0,19,19,280,1,cauro,,,,
,,,,,,,60f364780342181eb49b70d7,676192165fb32c2e1fb7aee6,67d1ab66e41611b45b4d2de5,2025-03-12_16h43.07.485,Tarea de decisión léxica,2024.2.5,MacIntel,59.88023952,,,,,,,,,,,,,,,,,,,,,,,211.6313,212.5968,a,1,0.2955,,0.2955,1,212.5969,213.0968,,,,,,168,FEM,NOWORD,DIS,150,zifa,,el,,213.0971,213.0972,-0.150546875,-0.019296875,0,0,0,,0,20,20,167,1,jefa,,,,
,,,,,,,60f364780342181eb49b70d7,676192165fb32c2e1fb7aee6,67d1ab66e41611b45b4d2de5,2025-03-12_16h43.07.485,Tarea de decisión léxica,2024.2.5,MacIntel,59.88023952,,,,,,,,,,,,,,,,,,,,,,,213.0984,214.0303,l,1,0.2533,,0.2533,1,214.0303,214.5304,,,,,,13,FEM,WORD,AGR,150,hora,,la,,214.5318,214.533,-0.150546875,-0.019296875,0,0,0,,0,21,21,12,1,nola,,,,
,,,,,,,60f364780342181eb49b70d7,676192165fb32c2e1fb7aee6,67d1ab66e41611b45b4d2de5,2025-03-12_16h43.07.485,Tarea de decisión léxica,2024.2.5,MacIntel,59.88023952,,,,,,,,,,,,,,,,,,,,,,,214.5339,215.5637,a,1,0.3508,,0.3508,1,215.5638,216.0639,,,,,,112,MAS,NOWORD,DIS,150,siro,,la,,216.064,216.0641,-0.150546875,-0.019296875,0,0,0,,0,22,22,111,1,muro,,,,
,,,,,,,60f364780342181eb49b70d7,676192165fb32c2e1fb7aee6,67d1ab66e41611b45b4d2de5,2025-03-12_16h43.07.485,Tarea de decisión léxica,2024.2.5,MacIntel,59.88023952,,,,,,,,,,,,,,,,,,,,,,,216.0654,217.0136,a,1,0.2692,,0.2692,1,217.0138,217.5128,,,,,,64,FEM,NOWORD,DIS,150,funa,,el,,217.5129,217.513,-0.150546875,-0.019296875,0,0,0,,0,23,23,63,1,luna,,,,
,,,,,,,60f364780342181eb49b70d7,676192165fb32c2e1fb7aee6,67d1ab66e41611b45b4d2de5,2025-03-12_16h43.07.485,Tarea de decisión léxica,2024.2.5,MacIntel,59.88023952,,,,,,,,,,,,,,,,,,,,,,,217.5141,218.447,l,1,0.2785,,0.2785,1,218.4472,218.9471,,,,,,147,FEM,WORD,DIS,150,hoja,,el,,218.9473,218.9474,-0.150546875,-0.019296875,0,0,0,,0,24,24,146,1,pama,,,,
,,,,,,,60f364780342181eb49b70d7,676192165fb32c2e1fb7aee6,67d1ab66e41611b45b4d2de5,2025-03-12_16h43.07.485,Tarea de decisión léxica,2024.2.5,MacIntel,59.88023952,,,,,,,,,,,,,,,,,,,,,,,218.9484,219.9472,a,1,0.3166,,0.3166,1,219.9473,220.4472,,,,,,126,MAS,NOWORD,AGR,150,vudo,,el,,220.4474,220.4475,-0.150546875,-0.019296875,0,0,0,,0,25,25,125,1,lujo,,,,
,,,,,,,60f364780342181eb49b70d7,676192165fb32c2e1fb7aee6,67d1ab66e41611b45b4d2de5,2025-03-12_16h43.07.485,Tarea de decisión léxica,2024.2.5,MacIntel,59.88023952,,,,,,,,,,,,,,,,,,,,,,,220.4485,221.463,a,1,0.3353,,0.3353,1,221.4632,221.963,,,,,,400,MAS,NOWORD,DIS,150,serro,,la,,221.9646,221.9656,-0.150546875,-0.019296875,0,0,0,,0,26,26,399,1,techo,,,,
,,,,,,,60f364780342181eb49b70d7,676192165fb32c2e1fb7aee6,67d1ab66e41611b45b4d2de5,2025-03-12_16h43.07.485,Tarea de decisión léxica,2024.2.5,MacIntel,59.88023952,,,,,,,,,,,,,,,,,,,,,,,221.9664,222.9474,l,1,0.3004,,0.3004,1,222.9476,223.4475,,,,,,169,MAS,WORD,AGR,150,cubo,,el,,223.4476,223.4477,-0.150546875,-0.019296875,0,0,0,,0,27,27,168,1,mibo,,,,
,,,,,,,60f364780342181eb49b70d7,676192165fb32c2e1fb7aee6,67d1ab66e41611b45b4d2de5,2025-03-12_16h43.07.485,Tarea de decisión léxica,2024.2.5,MacIntel,59.88023952,,,,,,,,,,,,,,,,,,,,,,,223.4489,224.3966,l,1,0.2778,,0.2778,1,224.3967,224.8975,,,,,,61,FEM,WORD,AGR,150,obra,,la,,224.8976,224.8977,-0.150546875,-0.019296875,0,0,0,,0,28,28,60,1,efla,,,,
,,,,,,,60f364780342181eb49b70d7,676192165fb32c2e1fb7aee6,67d1ab66e41611b45b4d2de5,2025-03-12_16h43.07.485,Tarea de decisión léxica,2024.2.5,MacIntel,59.88023952,,,,,,,,,,,,,,,,,,,,,,,224.8989,226.1642,l,0,0.5836,,0.5836,0,226.1651,226.6643,,,,,,86,MAS,NOWORD,AGR,150,babo,,el,,226.6644,226.6645,-0.150546875,-0.019296875,0,0,0,,0,29,29,85,1,lago,,,,
,,,,,,,60f364780342181eb49b70d7,676192165fb32c2e1fb7aee6,67d1ab66e41611b45b4d2de5,2025-03-12_16h43.07.485,Tarea de decisión léxica,2024.2.5,MacIntel,59.88023952,,,,,,,,,,,,,,,,,,,,,,,226.6658,227.6977,a,1,0.3498,,0.3498,1,227.6988,228.1976,,,,,,382,MAS,NOWORD,AGR,150,nusor,,el,,228.1977,228.198,-0.150546875,-0.019296875,0,0,0,,0,30,30,381,1,humor,,,,
,,,,,,,60f364780342181eb49b70d7,676192165fb32c2e1fb7aee6,67d1ab66e41611b45b4d2de5,2025-03-12_16h43.07.485,Tarea de decisión léxica,2024.2.5,MacIntel,59.88023952,,,,,,,,,,,,,,,,,,,,,,,228.1994,229.1477,l,1,0.2672,,0.2672,1,229.1479,229.6478,,,,,,27,MAS,WORD,AGR,150,baño,,el,,229.6494,229.6506,-0.150546875,-0.019296875,0,0,0,,0,31,31,26,1,ravo,,,,
,,,,,,,60f364780342181eb49b70d7,676192165fb32c2e1fb7aee6,67d1ab66e41611b45b4d2de5,2025-03-12_16h43.07.485,Tarea de decisión léxica,2024.2.5,MacIntel,59.88023952,,,,,,,,,,,,,,,,,,,,,,,229.6514,230.6312,l,1,0.3014,,0.3014,1,230.6314,231.1311,,,,,,465,FEM,WORD,DIS,150,aguja,,el,,231.1313,231.1314,-0.150546875,-0.019296875,0,0,0,,0,32,32,464,1,asuba,,,,
,,,,,,,60f364780342181eb49b70d7,676192165fb32c2e1fb7aee6,67d1ab66e41611b45b4d2de5,2025-03-12_16h43.07.485,Tarea de decisión léxica,2024.2.5,MacIntel,59.88023952,,,,,,,,,,,,,,,,,,,,,,,231.1326,232.0642,l,1,0.254,,0.254,1,232.0644,232.5646,,,,,,403,FEM,WORD,AGR,150,prima,,la,,232.5647,232.5649,-0.150546875,-0.019296875,0,0,0,,0,33,33,402,1,grisa,,,,
,,,,,,,60f364780342181eb49b70d7,676192165fb32c2e1fb7aee6,67d1ab66e41611b45b4d2de5,2025-03-12_16h43.07.485,Tarea de decisión léxica,2024.2.5,MacIntel,59.88023952,,,,,,,,,,,,,,,,,,,,,,,232.5663,233.5313,l,1,0.2841,,0.2841,1,233.5314,234.0313,,,,,,171,MAS,WORD,DIS,150,hilo,,la,,234.0314,234.0315,-0.150546875,-0.019296875,0,0,0,,0,34,34,170,1,niro,,,,
,,,,,,,60f364780342181eb49b70d7,676192165fb32c2e1fb7aee6,67d1ab66e41611b45b4d2de5,2025-03-12_16h43.07.485,Tarea de decisión léxica,2024.2.5,MacIntel,59.88023952,,,,,,,,,,,,,,,,,,,,,,,234.0328,235.0818,a,1,0.3785,,0.3785,1,235.082,235.5815,,,,,,402,MAS,NOWORD,AGR,150,pirvo,,el,,235.5832,235.5844,-0.150546875,-0.019296875,0,0,0,,0,35,35,401,1,polvo,,,,
,,,,,,,60f364780342181eb49b70d7,676192165fb32c2e1fb7aee6,67d1ab66e41611b45b4d2de5,2025-03-12_16h43.07.485,Tarea de decisión léxica,2024.2.5,MacIntel,59.88023952,,,,,,,,,,,,,,,,,,,,,,,235.5851,236.6652,l,1,0.4129,,0.4129,1,236.6653,237.1647,,,,,,265,FEM,WORD,AGR,150,mitad,,la,,237.1649,237.1651,-0.150546875,-0.019296875,0,0,0,,0,36,36,264,1,pitat,,,,
,,,,,,,60f364780342181eb49b70d7,676192165fb32c2e1fb7aee6,67d1ab66e41611b45b4d2de5,2025-03-12_16h43.07.485,Tarea de decisión léxica,2024.2.5,MacIntel,59.88023952,,,,,,,,,,,,,,,,,,,,,,,237.1664,238.048,l,1,0.2073,,0.2073,1,238.0481,238.5482,,,,,,387,FEM,WORD,AGR,150,crema,,la,,238.5483,238.5484,-0.150546875,-0.019296875,0,0,0,,0,37,37,386,1,bresa,,,,
,,,,,,,60f364780342181eb49b70d7,676192165fb32c2e1fb7aee6,67d1ab66e41611b45b4d2de5,2025-03-12_16h43.07.485,Tarea de decisión léxica,2024.2.5,MacIntel,59.88023952,,,,,,,,,,,,,,,,,,,,,,,238.5496,239.5649,a,1,0.3383,,0.3383,1,239.5651,240.065,,,,,,212,FEM,NOWORD,DIS,150,joad,,el,,240.0651,240.0652,-0.150546875,-0.019296875,0,0,0,,0,38,38,211,1,joya,,,,
,,,,,,,60f364780342181eb49b70d7,676192165fb32c2e1fb7aee6,67d1ab66e41611b45b4d2de5,2025-03-12_16h43.07.485,Tarea de decisión léxica,2024.2.5,MacIntel,59.88023952,,,,,,,,,,,,,,,,,,,,,,,240.0666,240.9648,l,1,0.2203,,0.2203,1,240.9649,241.4651,,,,,,441,FEM,WORD,DIS,150,selva,,el,,241.4652,241.4653,-0.150546875,-0.019296875,0,0,0,,0,39,39,440,1,telza,,,,
,,,,,,,60f364780342181eb49b70d7,676192165fb32c2e1fb7aee6,67d1ab66e41611b45b4d2de5,2025-03-12_16h43.07.485,Tarea de decisión léxica,2024.2.5,MacIntel,59.88023952,,,,,,,,,,,,,,,,,,,,,,,241.4668,242.4816,l,1,0.3335,,0.3335,1,242.4819,242.9818,,,,,,201,FEM,WORD,DIS,150,cuna,,el,,242.9835,242.9847,-0.150546875,-0.019296875,0,0,0,,0,40,40,200,1,cusa,,,,
,,,,,,,60f364780342181eb49b70d7,676192165fb32c2e1fb7aee6,67d1ab66e41611b45b4d2de5,2025-03-12_16h43.07.485,Tarea de decisión léxica,2024.2.5,MacIntel,59.88023952,,,,,,,,,,,,,,,,,,,,,,,242.9856,243.8483,l,1,0.1951,,0.1951,1,243.8484,244.3485,,,,,,47,MAS,WORD,DIS,150,club,,la,,244.3486,244.3487,-0.150546875,-0.019296875,0,0,0,,0,41,41,46,1,chub,,,,
,,,,,,,60f364780342181eb49b70d7,676192165fb32c2e1fb7aee6,67d1ab66e41611b45b4d2de5,2025-03-12_16h43.07.485,Tarea de decisión léxica,2024.2.5,MacIntel,59.88023952,,,,,,,,,,,,,,,,,,,,,,,244.35,245.3318,a,1,0.3054,,0.3054,1,245.332,245.8318,,,,,,234,FEM,NOWORD,AGR,150,fasa,,la,,245.8319,245.832,-0.150546875,-0.019296875,0,0,0,,0,42,42,233,1,lana,,,,
,,,,,,,60f364780342181eb49b70d7,676192165fb32c2e1fb7aee6,67d1ab66e41611b45b4d2de5,2025-03-12_16h43.07.485,Tarea de decisión léxica,2024.2.5,MacIntel,59.88023952,,,,,,,,,,,,,,,,,,,,,,,245.8333,246.8652,a,1,0.351,,0.351,1,246.8654,247.3653,,,,,,416,FEM,NOWORD,DIS,150,juira,,el,,247.3653,247.3656,-0.150546875,-0.019296875,0,0,0,,0,43,43,415,1,jaula,,,,
,,,,,,,60f364780342181eb49b70d7,676192165fb32c2e1fb7aee6,67d1ab66e41611b45b4d2de5,2025-03-12_16h43.07.485,Tarea de decisión léxica,2024.2.5,MacIntel,59.88023952,,,,,,,,,,,,,,,,,,,,,,,247.367,248.2816,l,0,0.2432,,0.2432,0,248.2822,248.7821,,,,,,222,FEM,NOWORD,AGR,150,puca,,la,,248.7822,248.7823,-0.150546875,-0.019296875,0,0,0,,0,44,44,221,1,mula,,,,
,,,,,,,60f364780342181eb49b70d7,676192165fb32c2e1fb7aee6,67d1ab66e41611b45b4d2de5,2025-03-12_16h43.07.485,Tarea de decisión léxica,2024.2.5,MacIntel,59.88023952,,,,,,,,,,,,,,,,,,,,,,,248.7837,249.782,l,1,0.3182,,0.3182,1,249.7829,250.2821,,,,,,91,FEM,WORD,AGR,150,taza,,la,,250.2834,250.2845,-0.150546875,-0.019296875,0,0,0,,0,45,45,90,1,sava,,,,
,,,,,,,60f364780342181eb49b70d7,676192165fb32c2e1fb7aee6,67d1ab66e41611b45b4d2de5,2025-03-12_16h43.07.485,Tarea de decisión léxica,2024.2.5,MacIntel,59.88023952,,,,,,,,,,,,,,,,,,,,,,,250.2855,251.2321,l,1,0.2675,,0.2675,1,251.2322,251.7322,,,,,,89,MAS,WORD,AGR,150,humo,,el,,251.7322,251.7324,-0.150546875,-0.019296875,0,0,0,,0,46,46,88,1,guso,,,,
,,,,,,,60f364780342181eb49b70d7,676192165fb32c2e1fb7aee6,67d1ab66e41611b45b4d2de5,2025-03-12_16h43.07.485,Tarea de decisión léxica,2024.2.5,MacIntel,59.88023952,,,,,,,,,,,,,,,,,,,,,,,251.7337,252.8658,a,1,0.4626,,0.4626,1,252.8659,253.3656,,,,,,38,MAS,NOWORD,AGR,150,gaco,,el,,253.3657,253.3659,-0.150546875,-0.019296875,0,0,0,,0,47,47,37,1,rato,,,,
,,,,,,,60f364780342181eb49b70d7,676192165fb32c2e1fb7aee6,67d1ab66e41611b45b4d2de5,2025-03-12_16h43.07.485,Tarea de decisión léxica,2024.2.5,MacIntel,59.88023952,,,,,,,,,,,,,,,,,,,,,,,253.3671,254.7151,a,1,0.6663,,0.6663,1,254.7152,255.2156,,,,,,96,FEM,NOWORD,DIS,151,neda,,el,,255.2157,255.2159,-0.150546875,-0.019296875,0,0,0,,0,48,48,95,1,moda,,,,
,,,,,,,60f364780342181eb49b70d7,676192165fb32c2e1fb7aee6,67d1ab66e41611b45b4d2de5,2025-03-12_16h43.07.485,Tarea de decisión léxica,2024.2.5,MacIntel,59.88023952,,,,,,,,,,,,,,,,,,,,,,,255.2176,256.1991,a,1,0.3009,,0.3009,1,256.1993,256.6992,,,,,,62,FEM,NOWORD,AGR,150,efla,,la,,256.6993,256.6995,-0.150546875,-0.019296875,0,0,0,,0,49,49,61,1,obra,,,,
,,,,,,,60f364780342181eb49b70d7,676192165fb32c2e1fb7aee6,67d1ab66e41611b45b4d2de5,2025-03-12_16h43.07.485,Tarea de decisión léxica,2024.2.5,MacIntel,59.88023952,,,,,,,,,,,,,,,,,,,,,,,256.7007,257.8491,l,1,0.4672,,0.4672,1,257.8492,258.3492,,,,,,415,FEM,WORD,AGR,150,jaula,,la,,258.3505,258.3517,-0.150546875,-0.019296875,0,0,0,,0,50,50,414,1,juira,,,,
,,,,,,,60f364780342181eb49b70d7,676192165fb32c2e1fb7aee6,67d1ab66e41611b45b4d2de5,2025-03-12_16h43.07.485,Tarea de decisión léxica,2024.2.5,MacIntel,59.88023952,,,,,,,,,,,,,,,,,,,,,,,258.3528,259.3481,a,1,0.3169,,0.3169,1,259.3482,259.8493,,,,,,346,FEM,NOWORD,AGR,150,anera,,la,,259.8494,259.8495,-0.150546875,-0.019296875,0,0,0,,0,51,51,345,1,arena,,,,
,,,,,,,60f364780342181eb49b70d7,676192165fb32c2e1fb7aee6,67d1ab66e41611b45b4d2de5,2025-03-12_16h43.07.485,Tarea de decisión léxica,2024.2.5,MacIntel,59.88023952,,,,,,,,,,,,,,,,,,,,,,,259.8508,260.7992,l,1,0.2699,,0.2699,1,260.7995,261.2993,,,,,,285,MAS,WORD,AGR,150,error,,el,,261.2994,261.2997,-0.150546875,-0.019296875,0,0,0,,0,52,52,284,1,echor,,,,
,,,,,,,60f364780342181eb49b70d7,676192165fb32c2e1fb7aee6,67d1ab66e41611b45b4d2de5,2025-03-12_16h43.07.485,Tarea de decisión léxica,2024.2.5,MacIntel,59.88023952,,,,,,,,,,,,,,,,,,,,,,,261.301,262.2825,a,1,0.3035,,0.3035,1,262.2827,262.7827,,,,,,170,MAS,NOWORD,AGR,150,mibo,,el,,262.7828,262.7829,-0.150546875,-0.019296875,0,0,0,,0,53,53,169,1,cubo,,,,
,,,,,,,60f364780342181eb49b70d7,676192165fb32c2e1fb7aee6,67d1ab66e41611b45b4d2de5,2025-03-12_16h43.07.485,Tarea de decisión léxica,2024.2.5,MacIntel,59.88023952,,,,,,,,,,,,,,,,,,,,,,,262.7842,263.7662,l,1,0.3057,,0.3057,1,263.7664,264.2661,,,,,,325,FEM,WORD,DIS,150,magia,,el,,264.2662,264.2663,-0.150546875,-0.019296875,0,0,0,,0,54,54,324,1,mabia,,,,
,,,,,,,60f364780342181eb49b70d7,676192165fb32c2e1fb7aee6,67d1ab66e41611b45b4d2de5,2025-03-12_16h43.07.485,Tarea de decisión léxica,2024.2.5,MacIntel,59.88023952,,,,,,,,,,,,,,,,,,,,,,,264.2678,265.1662,l,0,0.2174,,0.2174,0,265.1672,265.6663,,,,,,202,FEM,NOWORD,AGR,150,cusa,,la,,265.6677,265.6689,-0.150546875,-0.019296875,0,0,0,,0,55,55,201,1,cuna,,,,
,,,,,,,60f364780342181eb49b70d7,676192165fb32c2e1fb7aee6,67d1ab66e41611b45b4d2de5,2025-03-12_16h43.07.485,Tarea de decisión léxica,2024.2.5,MacIntel,59.88023952,,,,,,,,,,,,,,,,,,,,,,,265.6699,266.6329,l,1,0.2885,,0.2885,1,266.634,267.1329,,,,,,449,FEM,WORD,AGR,150,pluma,,la,,267.133,267.1332,-0.150546875,-0.019296875,0,0,0,,0,56,56,448,1,crusa,,,,
,,,,,,,60f364780342181eb49b70d7,676192165fb32c2e1fb7aee6,67d1ab66e41611b45b4d2de5,2025-03-12_16h43.07.485,Tarea de decisión léxica,2024.2.5,MacIntel,59.88023952,,,,,,,,,,,,,,,,,,,,,,,267.1344,268.1833,a,1,0.3794,,0.3794,1,268.1834,268.6829,,,,,,224,FEM,NOWORD,DIS,150,cira,,el,,268.6831,268.6832,-0.150546875,-0.019296875,0,0,0,,0,57,57,223,1,cera,,,,
,,,,,,,60f364780342181eb49b70d7,676192165fb32c2e1fb7aee6,67d1ab66e41611b45b4d2de5,2025-03-12_16h43.07.485,Tarea de decisión léxica,2024.2.5,MacIntel,59.88023952,,,,,,,,,,,,,,,,,,,,,,,268.6845,269.6829,a,0,0.3213,,0.3213,0,269.6838,270.1831,,,,,,445,MAS,WORD,AGR,150,actor,,el,,270.1832,270.1833,-0.150546875,-0.019296875,0,0,0,,0,58,58,444,1,ascor,,,,
,,,,,,,60f364780342181eb49b70d7,676192165fb32c2e1fb7aee6,67d1ab66e41611b45b4d2de5,2025-03-12_16h43.07.485,Tarea de decisión léxica,2024.2.5,MacIntel,59.88023952,,,,,,,,,,,,,,,,,,,,,,,270.1846,271.3169,a,1,0.463,,0.463,1,271.3179,271.8165,,,,,,70,FEM,NOWORD,AGR,150,ñola,,la,,271.8179,271.8192,-0.150546875,-0.019296875,0,0,0,,0,59,59,69,1,zona,,,,
,,,,,,,60f364780342181eb49b70d7,676192165fb32c2e1fb7aee6,67d1ab66e41611b45b4d2de5,2025-03-12_16h43.07.485,Tarea de decisión léxica,2024.2.5,MacIntel,59.88023952,,,,,,,,,,,,,,,,,,,,,,,271.8201,272.8666,a,1,0.3673,,0.3673,1,272.8667,273.3666,,,,,,308,MAS,NOWORD,DIS,150,holol,,la,,273.3667,273.3669,-0.150546875,-0.019296875,0,0,0,,0,60,60,307,1,hotel,,,,
,,,,,,,60f364780342181eb49b70d7,676192165fb32c2e1fb7aee6,67d1ab66e41611b45b4d2de5,2025-03-12_16h43.07.485,Tarea de decisión léxica,2024.2.5,MacIntel,59.88023952,,,,,,,,,,,,,,,,,,,,,,,273.3681,274.3832,a,1,0.3336,,0.3336,1,274.3834,274.8834,,,,,,200,MAS,NOWORD,DIS,150,fano,,la,,274.8836,274.8837,-0.150546875,-0.019296875,0,0,0,,0,61,61,199,1,lazo,,,,
,,,,,,,60f364780342181eb49b70d7,676192165fb32c2e1fb7aee6,67d1ab66e41611b45b4d2de5,2025-03-12_16h43.07.485,Tarea de decisión léxica,2024.2.5,MacIntel,59.88023952,,,,,,,,,,,,,,,,,,,,,,,274.885,275.8334,l,1,0.2663,,0.2663,1,275.8336,276.3333,,,,,,433,MAS,WORD,DIS,150,disco,,la,,276.3336,276.3336,-0.150546875,-0.019296875,0,0,0,,0,62,62,432,1,durco,,,,
,,,,,,,60f364780342181eb49b70d7,676192165fb32c2e1fb7aee6,67d1ab66e41611b45b4d2de5,2025-03-12_16h43.07.485,Tarea de decisión léxica,2024.2.5,MacIntel,59.88023952,,,,,,,,,,,,,,,,,,,,,,,276.335,277.2502,l,0,0.2456,,0.2456,0,277.251,277.7501,,,,,,102,MAS,NOWORD,AGR,150,gito,,el,,277.7502,277.7504,-0.150546875,-0.019296875,0,0,0,,0,63,63,101,1,tono,,,,
,,,,,,,60f364780342181eb49b70d7,676192165fb32c2e1fb7aee6,67d1ab66e41611b45b4d2de5,2025-03-12_16h43.07.485,Tarea de decisión léxica,2024.2.5,MacIntel,59.88023952,,,,,,,,,,,,,,,,,,,,,,,277.7516,278.8169,a,1,0.3842,,0.3842,1,278.8178,279.3169,,,,,,368,MAS,NOWORD,DIS,150,rerob,,la,,279.3183,279.3192,-0.150546875,-0.019296875,0,0,0,,0,64,64,367,1,reloj,,,,
,,,,,,,60f364780342181eb49b70d7,676192165fb32c2e1fb7aee6,67d1ab66e41611b45b4d2de5,2025-03-12_16h43.07.485,Tarea de decisión léxica,2024.2.5,MacIntel,59.88023952,,,,,,,,,,,,,,,,,,,,,,,279.3201,280.4336,a,1,0.4335,,0.4335,1,280.4337,280.9336,,,,,,420,MAS,NOWORD,DIS,150,chudo,,la,,280.9337,280.9339,-0.150546875,-0.019296875,0,0,0,,0,65,65,419,1,truco,,,,
,,,,,,,60f364780342181eb49b70d7,676192165fb32c2e1fb7aee6,67d1ab66e41611b45b4d2de5,2025-03-12_16h43.07.485,Tarea de decisión léxica,2024.2.5,MacIntel,59.88023952,,,,,,,,,,,,,,,,,,,,,,,280.9352,281.9669,a,1,0.3503,,0.3503,1,281.967,282.467,,,,,,294,MAS,NOWORD,AGR,150,cacso,,el,,282.4671,282.4674,-0.150546875,-0.019296875,0,0,0,,0,66,66,293,1,campo,,,,
,,,,,,,60f364780342181eb49b70d7,676192165fb32c2e1fb7aee6,67d1ab66e41611b45b4d2de5,2025-03-12_16h43.07.485,Tarea de decisión léxica,2024.2.5,MacIntel,59.88023952,,,,,,,,,,,,,,,,,,,,,,,282.4685,283.4337,l,1,0.2838,,0.2838,1,283.4339,283.9338,,,,,,457,MAS,WORD,DIS,150,plato,,la,,283.9338,283.934,-0.150546875,-0.019296875,0,0,0,,0,67,67,456,1,glaco,,,,
,,,,,,,60f364780342181eb49b70d7,676192165fb32c2e1fb7aee6,67d1ab66e41611b45b4d2de5,2025-03-12_16h43.07.485,Tarea de decisión léxica,2024.2.5,MacIntel,59.88023952,,,,,,,,,,,,,,,,,,,,,,,283.9353,284.8672,l,1,0.2506,,0.2506,1,284.8673,285.3672,,,,,,331,MAS,WORD,DIS,150,éxito,,la,,285.3673,285.3674,-0.150546875,-0.019296875,0,0,0,,0,68,68,330,1,erato,,,,
,,,,,,,60f364780342181eb49b70d7,676192165fb32c2e1fb7aee6,67d1ab66e41611b45b4d2de5,2025-03-12_16h43.07.485,Tarea de decisión léxica,2024.2.5,MacIntel,59.88023952,,,,,,,,,,,,,,,,,,,,,,,285.3689,286.4843,a,1,0.4461,,0.4461,1,286.4843,286.9839,,,,,,150,MAS,NOWORD,AGR,150,pafo,,el,,286.9853,286.9866,-0.150546875,-0.019296875,0,0,0,,0,69,69,149,1,cabo,,,,
,,,,,,,60f364780342181eb49b70d7,676192165fb32c2e1fb7aee6,67d1ab66e41611b45b4d2de5,2025-03-12_16h43.07.485,Tarea de decisión léxica,2024.2.5,MacIntel,59.88023952,,,,,,,,,,,,,,,,,,,,,,,286.9875,288.0507,a,1,0.3849,,0.3849,1,288.0508,288.5506,,,,,,42,FEM,NOWORD,AGR,150,haje,,la,,288.5508,288.551,-0.150546875,-0.019296875,0,0,0,,0,70,70,41,1,nave,,,,
,,,,,,,60f364780342181eb49b70d7,676192165fb32c2e1fb7aee6,67d1ab66e41611b45b4d2de5,2025-03-12_16h43.07.485,Tarea de decisión léxica,2024.2.5,MacIntel,59.88023952,,,,,,,,,,,,,,,,,,,,,,,288.5523,289.6506,a,1,0.4172,,0.4172,1,289.6508,290.1507,,,,,,214,FEM,NOWORD,AGR,150,bana,,la,,290.1509,290.151,-0.150546875,-0.019296875,0,0,0,,0,71,71,213,1,rama,,,,
,,,,,,,60f364780342181eb49b70d7,676192165fb32c2e1fb7aee6,67d1ab66e41611b45b4d2de5,2025-03-12_16h43.07.485,Tarea de decisión léxica,2024.2.5,MacIntel,59.88023952,,,,,,,,,,,,,,,,,,,,,,,290.1523,291.1507,a,1,0.3171,,0.3171,1,291.1508,291.6507,,,,,,180,MAS,NOWORD,DIS,150,sono,,la,,291.6508,291.6509,-0.150546875,-0.019296875,0,0,0,,0,72,72,179,1,toro,,,,
,,,,,,,60f364780342181eb49b70d7,676192165fb32c2e1fb7aee6,67d1ab66e41611b45b4d2de5,2025-03-12_16h43.07.485,Tarea de decisión léxica,2024.2.5,MacIntel,59.88023952,,,,,,,,,,,,,,,,,,,,,,,291.6525,292.6174,l,1,0.2837,,0.2837,1,292.6175,293.1175,,,,,,439,FEM,WORD,AGR,150,presa,,la,,293.1178,293.1178,-0.150546875,-0.019296875,0,0,0,,0,73,73,438,1,prema,,,,
,,,,,,,60f364780342181eb49b70d7,676192165fb32c2e1fb7aee6,67d1ab66e41611b45b4d2de5,2025-03-12_16h43.07.485,Tarea de decisión léxica,2024.2.5,MacIntel,59.88023952,,,,,,,,,,,,,,,,,,,,,,,293.1191,294.2013,a,1,0.4127,,0.4127,1,294.2014,294.7,,,,,,158,MAS,NOWORD,AGR,150,hico,,el,,294.7015,294.7023,-0.150546875,-0.019296875,0,0,0,,0,74,74,157,1,nido,,,,
,,,,,,,60f364780342181eb49b70d7,676192165fb32c2e1fb7aee6,67d1ab66e41611b45b4d2de5,2025-03-12_16h43.07.485,Tarea de decisión léxica,2024.2.5,MacIntel,59.88023952,,,,,,,,,,,,,,,,,,,,,,,294.703,295.8341,a,1,0.4505,,0.4505,1,295.8343,296.3343,,,,,,470,MAS,NOWORD,AGR,150,matia,,el,,296.3344,296.3345,-0.150546875,-0.019296875,0,0,0,,0,75,75,469,1,patio,,,,
,,,,,,,60f364780342181eb49b70d7,676192165fb32c2e1fb7aee6,67d1ab66e41611b45b4d2de5,2025-03-12_16h43.07.485,Tarea de decisión léxica,2024.2.5,MacIntel,59.88023952,,,,,,,,,,,,,,,,,,,,,,,296.3355,297.3676,a,0,0.3502,,0.3502,0,297.3685,297.8677,,,,,,453,FEM,WORD,AGR,150,mafia,,la,,297.8678,297.8681,-0.150546875,-0.019296875,0,0,0,,0,76,76,452,1,pafia,,,,
,,,,,,,60f364780342181eb49b70d7,676192165fb32c2e1fb7aee6,67d1ab66e41611b45b4d2de5,2025-03-12_16h43.07.485,Tarea de decisión léxica,2024.2.5,MacIntel,59.88023952,,,,,,,,,,,,,,,,,,,,,,,297.8695,298.868,a,1,0.3292,,0.3292,1,298.8688,299.3678,,,,,,66,MAS,NOWORD,AGR,150,nios,,el,,299.368,299.3682,-0.150546875,-0.019296875,0,0,0,,0,77,77,65,1,dios,,,,
,,,,,,,60f364780342181eb49b70d7,676192165fb32c2e1fb7aee6,67d1ab66e41611b45b4d2de5,2025-03-12_16h43.07.485,Tarea de decisión léxica,2024.2.5,MacIntel,59.88023952,,,,,,,,,,,,,,,,,,,,,,,299.3695,300.4168,a,1,0.3706,,0.3706,1,300.417,300.9177,,,,,,4,FEM,NOWORD,DIS,150,dica,,el,,300.9178,300.9179,-0.150546875,-0.019296875,0,0,0,,0,78,78,3,1,vida,,,,
,,,,,,,60f364780342181eb49b70d7,676192165fb32c2e1fb7aee6,67d1ab66e41611b45b4d2de5,2025-03-12_16h43.07.485,Tarea de decisión léxica,2024.2.5,MacIntel,59.88023952,,,,,,,,,,,,,,,,,,,,,,,300.919,302.1513,a,1,0.5505,,0.5505,1,302.1515,302.6514,,,,,,26,FEM,NOWORD,AGR,150,paza,,la,,302.6527,302.6539,-0.150546875,-0.019296875,0,0,0,,0,79,79,25,1,cama,,,,
,,,,,,,60f364780342181eb49b70d7,676192165fb32c2e1fb7aee6,67d1ab66e41611b45b4d2de5,2025-03-12_16h43.07.485,Tarea de decisión léxica,2024.2.5,MacIntel,59.88023952,,,,,,,,,,,,,,,,,,,,,,,302.6549,303.6347,l,1,0.3007,,0.3007,1,303.6348,304.1347,,,,,,257,FEM,WORD,AGR,150,amiga,,la,,304.1348,304.1351,-0.150546875,-0.019296875,0,0,0,,0,80,80,256,1,asama,,,,
,,,,,,,60f364780342181eb49b70d7,676192165fb32c2e1fb7aee6,67d1ab66e41611b45b4d2de5,2025-03-12_16h43.07.485,Tarea de decisión léxica,2024.2.5,MacIntel,59.88023952,,,,,,,,,,,,,,,,,,,,,,,304.1362,305.1016,l,1,0.2957,,0.2957,1,305.1018,305.6015,,,,,,243,MAS,WORD,AGR,150,amigo,,el,,305.6016,305.6017,-0.150546875,-0.019296875,0,0,0,,0,81,81,242,1,asamo,,,,
,,,,,,,60f364780342181eb49b70d7,676192165fb32c2e1fb7aee6,67d1ab66e41611b45b4d2de5,2025-03-12_16h43.07.485,Tarea de decisión léxica,2024.2.5,MacIntel,59.88023952,,,,,,,,,,,,,,,,,,,,,,,305.603,307.0015,a,0,0.7173,,0.7173,0,307.0023,307.5017,,,,,,379,MAS,WORD,DIS,150,turno,,la,,307.5018,307.5019,-0.150546875,-0.019296875,0,0,0,,0,82,82,378,1,tunso,,,,
,,,,,,,60f364780342181eb49b70d7,676192165fb32c2e1fb7aee6,67d1ab66e41611b45b4d2de5,2025-03-12_16h43.07.485,Tarea de decisión léxica,2024.2.5,MacIntel,59.88023952,,,,,,,,,,,,,,,,,,,,,,,307.5032,308.685,a,1,0.5001,,0.5001,1,308.6861,309.185,,,,,,82,FEM,NOWORD,AGR,150,vasa,,la,,309.1864,309.1876,-0.150546875,-0.019296875,0,0,0,,0,83,83,81,1,dama,,,,
,,,,,,,60f364780342181eb49b70d7,676192165fb32c2e1fb7aee6,67d1ab66e41611b45b4d2de5,2025-03-12_16h43.07.485,Tarea de decisión léxica,2024.2.5,MacIntel,59.88023952,,,,,,,,,,,,,,,,,,,,,,,309.1885,310.2351,a,1,0.366,,0.366,1,310.2353,310.7341,,,,,,188,MAS,NOWORD,DIS,150,suto,,la,,310.7342,310.7343,-0.150546875,-0.019296875,0,0,0,,0,84,84,187,1,mito,,,,
,,,,,,,60f364780342181eb49b70d7,676192165fb32c2e1fb7aee6,67d1ab66e41611b45b4d2de5,2025-03-12_16h43.07.485,Tarea de decisión léxica,2024.2.5,MacIntel,59.88023952,,,,,,,,,,,,,,,,,,,,,,,310.7358,311.6675,l,1,0.2505,,0.2505,1,311.6677,312.1674,,,,,,333,FEM,WORD,AGR,150,tarea,,la,,312.1675,312.1676,-0.150546875,-0.019296875,0,0,0,,0,85,85,332,1,dalea,,,,
,,,,,,,60f364780342181eb49b70d7,676192165fb32c2e1fb7aee6,67d1ab66e41611b45b4d2de5,2025-03-12_16h43.07.485,Tarea de decisión léxica,2024.2.5,MacIntel,59.88023952,,,,,,,,,,,,,,,,,,,,,,,312.1687,313.3184,l,1,0.4738,,0.4738,1,313.3185,313.8185,,,,,,165,FEM,WORD,AGR,150,vela,,la,,313.8187,313.8188,-0.150546875,-0.019296875,0,0,0,,0,86,86,164,1,dera,,,,
,,,,,,,60f364780342181eb49b70d7,676192165fb32c2e1fb7aee6,67d1ab66e41611b45b4d2de5,2025-03-12_16h43.07.485,Tarea de decisión léxica,2024.2.5,MacIntel,59.88023952,,,,,,,,,,,,,,,,,,,,,,,313.8201,314.8686,a,1,0.367,,0.367,1,314.8688,315.3687,,,,,,414,FEM,NOWORD,AGR,150,bieda,,la,,315.3688,315.3689,-0.150546875,-0.019296875,0,0,0,,0,87,87,413,1,rueda,,,,
,,,,,,,60f364780342181eb49b70d7,676192165fb32c2e1fb7aee6,67d1ab66e41611b45b4d2de5,2025-03-12_16h43.07.485,Tarea de decisión léxica,2024.2.5,MacIntel,59.88023952,,,,,,,,,,,,,,,,,,,,,,,315.3701,316.3677,l,1,0.3169,,0.3169,1,316.3678,316.8677,,,,,,41,FEM,WORD,DIS,150,nave,,el,,316.8692,316.87,-0.150546875,-0.019296875,0,0,0,,0,88,88,40,1,haje,,,,
,,,,,,,60f364780342181eb49b70d7,676192165fb32c2e1fb7aee6,67d1ab66e41611b45b4d2de5,2025-03-12_16h43.07.485,Tarea de decisión léxica,2024.2.5,MacIntel,59.88023952,,,,,,,,,,,,,,,,,,,,,,,316.8708,317.852,l,1,0.3003,,0.3003,1,317.8521,318.3522,,,,,,337,MAS,WORD,AGR,150,huevo,,el,,318.3523,318.3524,-0.150546875,-0.019296875,0,0,0,,0,89,89,336,1,nuejo,,,,
,,,,,,,60f364780342181eb49b70d7,676192165fb32c2e1fb7aee6,67d1ab66e41611b45b4d2de5,2025-03-12_16h43.07.485,Tarea de decisión léxica,2024.2.5,MacIntel,59.88023952,,,,,,,,,,,,,,,,,,,,,,,318.3536,319.3855,l,1,0.3503,,0.3503,1,319.3855,319.8845,,,,,,467,MAS,WORD,DIS,150,piano,,la,,319.8846,319.8847,-0.150546875,-0.019296875,0,0,0,,0,90,90,466,1,peiso,,,,
,,,,,,,60f364780342181eb49b70d7,676192165fb32c2e1fb7aee6,67d1ab66e41611b45b4d2de5,2025-03-12_16h43.07.485,Tarea de decisión léxica,2024.2.5,MacIntel,59.88023952,,,,,,,,,,,,,,,,,,,,,,,319.8861,320.9357,l,1,0.3825,,0.3825,1,320.9358,321.4356,,,,,,3,FEM,WORD,AGR,150,vida,,la,,321.4357,321.4359,-0.150546875,-0.019296875,0,0,0,,0,91,91,2,1,dica,,,,
,,,,,,,60f364780342181eb49b70d7,676192165fb32c2e1fb7aee6,67d1ab66e41611b45b4d2de5,2025-03-12_16h43.07.485,Tarea de decisión léxica,2024.2.5,MacIntel,59.88023952,,,,,,,,,,,,,,,,,,,,,,,321.4372,322.5691,a,1,0.4494,,0.4494,1,322.5692,323.0691,,,,,,376,FEM,NOWORD,DIS,150,sasna,,el,,323.0691,323.0693,-0.150546875,-0.019296875,0,0,0,,0,92,92,375,1,salsa,,,,
,,,,,,,60f364780342181eb49b70d7,676192165fb32c2e1fb7aee6,67d1ab66e41611b45b4d2de5,2025-03-12_16h43.07.485,Tarea de decisión léxica,2024.2.5,MacIntel,59.88023952,,,,,,,,,,,,,,,,,,,,,,,323.0707,324.2356,a,1,0.4851,,0.4851,1,324.2357,324.7358,,,,,,88,MAS,NOWORD,DIS,150,damo,,la,,324.737,324.7381,-0.150546875,-0.019296875,0,0,0,,0,93,93,87,1,vaso,,,,
,,,,,,,60f364780342181eb49b70d7,676192165fb32c2e1fb7aee6,67d1ab66e41611b45b4d2de5,2025-03-12_16h43.07.485,Tarea de decisión léxica,2024.2.5,MacIntel,59.88023952,,,,,,,,,,,,,,,,,,,,,,,324.7391,325.6859,l,1,0.2785,,0.2785,1,325.6861,326.1858,,,,,,321,MAS,WORD,AGR,150,banco,,el,,326.1859,326.1861,-0.150546875,-0.019296875,0,0,0,,0,94,94,320,1,rarco,,,,
,,,,,,,60f364780342181eb49b70d7,676192165fb32c2e1fb7aee6,67d1ab66e41611b45b4d2de5,2025-03-12_16h43.07.485,Tarea de decisión léxica,2024.2.5,MacIntel,59.88023952,,,,,,,,,,,,,,,,,,,,,,,326.1873,327.1525,l,1,0.286,,0.286,1,327.1526,327.6516,,,,,,261,MAS,WORD,DIS,150,sitio,,la,,327.6517,327.6518,-0.150546875,-0.019296875,0,0,0,,0,95,95,260,1,titio,,,,
,,,,,,,60f364780342181eb49b70d7,676192165fb32c2e1fb7aee6,67d1ab66e41611b45b4d2de5,2025-03-12_16h43.07.485,Tarea de decisión léxica,2024.2.5,MacIntel,59.88023952,,,,,,,,,,,,,,,,,,,,,,,327.6532,328.9193,a,1,0.5841,,0.5841,1,328.9193,329.4183,,,,,,58,MAS,NOWORD,AGR,150,heco,,el,,329.4183,329.4185,-0.150546875,-0.019296875,0,0,0,,0,96,96,57,1,dedo,,,,
,,,,,,,60f364780342181eb49b70d7,676192165fb32c2e1fb7aee6,67d1ab66e41611b45b4d2de5,2025-03-12_16h43.07.485,Tarea de decisión léxica,2024.2.5,MacIntel,59.88023952,,,,,,,,,,,,,,,,,,,,,,,329.4198,330.4693,a,1,0.3826,,0.3826,1,330.4694,330.9693,,,,,,92,FEM,NOWORD,DIS,150,sava,,el,,330.9694,330.9695,-0.150546875,-0.019296875,0,0,0,,0,97,97,91,1,taza,,,,
,,,,,,,60f364780342181eb49b70d7,676192165fb32c2e1fb7aee6,67d1ab66e41611b45b4d2de5,2025-03-12_16h43.07.485,Tarea de decisión léxica,2024.2.5,MacIntel,59.88023952,,,,,,,,,,,,,,,,,,,,,,,330.9708,331.9695,l,1,0.3293,,0.3293,1,331.9697,332.4694,,,,,,155,FEM,WORD,AGR,150,fuga,,la,,332.4708,332.4721,-0.150546875,-0.019296875,0,0,0,,0,98,98,154,1,luma,,,,
,,,,,,,60f364780342181eb49b70d7,676192165fb32c2e1fb7aee6,67d1ab66e41611b45b4d2de5,2025-03-12_16h43.07.485,Tarea de decisión léxica,2024.2.5,MacIntel,59.88023952,,,,,,,,,,,,,,,,,,,,,,,332.473,333.6028,l,1,0.4615,,0.4615,1,333.6028,334.1019,,,,,,5,FEM,WORD,DIS,150,cosa,,el,,334.1019,334.1021,-0.150546875,-0.019296875,0,0,0,,0,99,99,4,1,poga,,,,
,,,,,,,60f364780342181eb49b70d7,676192165fb32c2e1fb7aee6,67d1ab66e41611b45b4d2de5,2025-03-12_16h43.07.485,Tarea de decisión léxica,2024.2.5,MacIntel,59.88023952,,,,,,,,,,,,,,,,,,,,,,,334.1034,334.9686,l,1,0.1845,,0.1845,1,334.9686,335.4696,,,,,,241,MAS,WORD,DIS,150,mundo,,la,,335.4696,335.4699,-0.150546875,-0.019296875,0,0,0,,0,100,100,240,1,mirdo,,,,
,,,,,,,60f364780342181eb49b70d7,676192165fb32c2e1fb7aee6,67d1ab66e41611b45b4d2de5,2025-03-12_16h43.07.485,Tarea de decisión léxica,2024.2.5,MacIntel,59.88023952,,,,,,,,,,,,,,,,,,,,,,,335.4712,336.3363,l,1,0.1889,,0.1889,1,336.3363,336.8363,,,,,,317,FEM,WORD,DIS,150,playa,,el,,336.8364,336.8366,-0.150546875,-0.019296875,0,0,0,,0,101,101,316,1,plaad,,,,
,,,,,,,60f364780342181eb49b70d7,676192165fb32c2e1fb7aee6,67d1ab66e41611b45b4d2de5,2025-03-12_16h43.07.485,Tarea de decisión léxica,2024.2.5,MacIntel,59.88023952,,,,,,,,,,,,,,,,,,,,,,,336.8379,337.9863,a,1,0.4677,,0.4677,1,337.9865,338.4855,,,,,,324,FEM,NOWORD,DIS,150,certa,,el,,338.4855,338.4857,-0.150546875,-0.019296875,0,0,0,,0,102,102,323,1,cinta,,,,
,,,,,,,60f364780342181eb49b70d7,676192165fb32c2e1fb7aee6,67d1ab66e41611b45b4d2de5,2025-03-12_16h43.07.485,Tarea de decisión léxica,2024.2.5,MacIntel,59.88023952,,,,,,,,,,,,,,,,,,,,,,,338.4871,339.4188,l,1,0.2659,,0.2659,1,339.419,339.9197,,,,,,375,FEM,WORD,DIS,150,salsa,,el,,339.9214,339.9224,-0.150546875,-0.019296875,0,0,0,,0,103,103,374,1,sasna,,,,
,,,,,,,60f364780342181eb49b70d7,676192165fb32c2e1fb7aee6,67d1ab66e41611b45b4d2de5,2025-03-12_16h43.07.485,Tarea de decisión léxica,2024.2.5,MacIntel,59.88023952,,,,,,,,,,,,,,,,,,,,,,,339.9234,340.8368,l,1,0.2473,,0.2473,1,340.837,341.3356,,,,,,15,FEM,WORD,DIS,150,idea,,el,,341.3357,341.3358,-0.150546875,-0.019296875,0,0,0,,0,104,104,14,1,odea,,,,
,,,,,,,60f364780342181eb49b70d7,676192165fb32c2e1fb7aee6,67d1ab66e41611b45b4d2de5,2025-03-12_16h43.07.485,Tarea de decisión léxica,2024.2.5,MacIntel,59.88023952,,,,,,,,,,,,,,,,,,,,,,,341.3373,342.3199,l,0,0.3041,,0.3041,0,342.3211,342.82,,,,,,22,MAS,NOWORD,AGR,150,blan,,el,,342.8201,342.8203,-0.150546875,-0.019296875,0,0,0,,0,105,105,21,1,plan,,,,
,,,,,,,60f364780342181eb49b70d7,676192165fb32c2e1fb7aee6,67d1ab66e41611b45b4d2de5,2025-03-12_16h43.07.485,Tarea de decisión léxica,2024.2.5,MacIntel,59.88023952,,,,,,,,,,,,,,,,,,,,,,,342.8216,343.7526,l,1,0.2498,,0.2498,1,343.7535,344.2534,,,,,,343,FEM,WORD,AGR,150,plata,,la,,344.2535,344.2537,-0.150546875,-0.019296875,0,0,0,,0,106,106,342,1,trada,,,,
,,,,,,,60f364780342181eb49b70d7,676192165fb32c2e1fb7aee6,67d1ab66e41611b45b4d2de5,2025-03-12_16h43.07.485,Tarea de decisión léxica,2024.2.5,MacIntel,59.88023952,,,,,,,,,,,,,,,,,,,,,,,344.255,345.2034,l,1,0.2695,,0.2695,1,345.2036,345.7037,,,,,,273,FEM,WORD,AGR,150,broma,,la,,345.705,345.7059,-0.150546875,-0.019296875,0,0,0,,0,107,107,272,1,frosa,,,,
,,,,,,,60f364780342181eb49b70d7,676192165fb32c2e1fb7aee6,67d1ab66e41611b45b4d2de5,2025-03-12_16h43.07.485,Tarea de decisión léxica,2024.2.5,MacIntel,59.88023952,,,,,,,,,,,,,,,,,,,,,,,345.7066,346.6703,l,1,0.2832,,0.2832,1,346.6704,347.1702,,,,,,279,FEM,WORD,DIS,150,prisa,,el,,347.1703,347.1704,-0.150546875,-0.019296875,0,0,0,,0,108,108,278,1,grina,,,,
,,,,,,,60f364780342181eb49b70d7,676192165fb32c2e1fb7aee6,67d1ab66e41611b45b4d2de5,2025-03-12_16h43.07.485,Tarea de decisión léxica,2024.2.5,MacIntel,59.88023952,,,,,,,,,,,,,,,,,,,,,,,347.1716,348.2537,a,1,0.4025,,0.4025,1,348.2538,348.7537,,,,,,198,MAS,NOWORD,AGR,150,dade,,el,,348.7538,348.754,-0.150546875,-0.019296875,0,0,0,,0,109,109,197,1,bate,,,,
,,,,,,,60f364780342181eb49b70d7,676192165fb32c2e1fb7aee6,67d1ab66e41611b45b4d2de5,2025-03-12_16h43.07.485,Tarea de decisión léxica,2024.2.5,MacIntel,59.88023952,,,,,,,,,,,,,,,,,,,,,,,348.7552,349.7861,a,1,0.3499,,0.3499,1,349.7861,350.2869,,,,,,184,FEM,NOWORD,DIS,150,raad,,el,,350.287,350.2871,-0.150546875,-0.019296875,0,0,0,,0,110,110,183,1,raya,,,,
,,,,,,,60f364780342181eb49b70d7,676192165fb32c2e1fb7aee6,67d1ab66e41611b45b4d2de5,2025-03-12_16h43.07.485,Tarea de decisión léxica,2024.2.5,MacIntel,59.88023952,,,,,,,,,,,,,,,,,,,,,,,350.288,351.3529,a,1,0.3856,,0.3856,1,351.353,351.8537,,,,,,326,FEM,NOWORD,AGR,150,mabia,,la,,351.8537,351.8538,-0.150546875,-0.019296875,0,0,0,,0,111,111,325,1,magia,,,,
,,,,,,,60f364780342181eb49b70d7,676192165fb32c2e1fb7aee6,67d1ab66e41611b45b4d2de5,2025-03-12_16h43.07.485,Tarea de decisión léxica,2024.2.5,MacIntel,59.88023952,,,,,,,,,,,,,,,,,,,,,,,351.8548,352.8871,l,1,0.3535,,0.3535,1,352.8873,353.3874,,,,,,401,MAS,WORD,AGR,150,polvo,,el,,353.3887,353.3898,-0.150546875,-0.019296875,0,0,0,,0,112,112,400,1,pirvo,,,,
,,,,,,,60f364780342181eb49b70d7,676192165fb32c2e1fb7aee6,67d1ab66e41611b45b4d2de5,2025-03-12_16h43.07.485,Tarea de decisión léxica,2024.2.5,MacIntel,59.88023952,,,,,,,,,,,,,,,,,,,,,,,353.3908,354.4363,a,1,0.3674,,0.3674,1,354.4364,354.9374,,,,,,48,MAS,NOWORD,DIS,150,chub,,la,,354.9374,354.9376,-0.150546875,-0.019296875,0,0,0,,0,113,113,47,1,club,,,,
,,,,,,,60f364780342181eb49b70d7,676192165fb32c2e1fb7aee6,67d1ab66e41611b45b4d2de5,2025-03-12_16h43.07.485,Tarea de decisión léxica,2024.2.5,MacIntel,59.88023952,,,,,,,,,,,,,,,,,,,,,,,354.9388,356.1538,a,1,0.5451,,0.5451,1,356.1538,356.653,,,,,,284,MAS,NOWORD,DIS,150,tuevo,,la,,356.6531,356.6532,-0.150546875,-0.019296875,0,0,0,,0,114,114,283,1,sueño,,,,
,,,,,,,60f364780342181eb49b70d7,676192165fb32c2e1fb7aee6,67d1ab66e41611b45b4d2de5,2025-03-12_16h43.07.485,Tarea de decisión léxica,2024.2.5,MacIntel,59.88023952,,,,,,,,,,,,,,,,,,,,,,,356.6545,357.7876,l,1,0.479,,0.479,1,357.7877,358.2865,,,,,,153,MAS,WORD,AGR,150,pato,,el,,358.2865,358.2866,-0.150546875,-0.019296875,0,0,0,,0,115,115,152,1,tado,,,,
,,,,,,,60f364780342181eb49b70d7,676192165fb32c2e1fb7aee6,67d1ab66e41611b45b4d2de5,2025-03-12_16h43.07.485,Tarea de decisión léxica,2024.2.5,MacIntel,59.88023952,,,,,,,,,,,,,,,,,,,,,,,358.288,359.2364,l,1,0.283,,0.283,1,359.2365,359.7376,,,,,,37,MAS,WORD,DIS,150,rato,,la,,359.7378,359.738,-0.150546875,-0.019296875,0,0,0,,0,116,116,36,1,gaco,,,,
,,,,,,,60f364780342181eb49b70d7,676192165fb32c2e1fb7aee6,67d1ab66e41611b45b4d2de5,2025-03-12_16h43.07.485,Tarea de decisión léxica,2024.2.5,MacIntel,59.88023952,,,,,,,,,,,,,,,,,,,,,,,359.7391,360.7042,l,1,0.2846,,0.2846,1,360.7043,361.2032,,,,,,163,FEM,WORD,DIS,150,fama,,el,,361.2046,361.2055,-0.150546875,-0.019296875,0,0,0,,0,117,117,162,1,laga,,,,
,,,,,,,60f364780342181eb49b70d7,676192165fb32c2e1fb7aee6,67d1ab66e41611b45b4d2de5,2025-03-12_16h43.07.485,Tarea de decisión léxica,2024.2.5,MacIntel,59.88023952,,,,,,,,,,,,,,,,,,,,,,,361.2063,362.3209,a,1,0.4325,,0.4325,1,362.3211,362.8209,,,,,,354,FEM,NOWORD,AGR,150,cezca,,la,,362.8209,362.821,-0.150546875,-0.019296875,0,0,0,,0,118,118,353,1,celda,,,,
,,,,,,,60f364780342181eb49b70d7,676192165fb32c2e1fb7aee6,67d1ab66e41611b45b4d2de5,2025-03-12_16h43.07.485,Tarea de decisión léxica,2024.2.5,MacIntel,59.88023952,,,,,,,,,,,,,,,,,,,,,,,362.8218,364.0034,a,1,0.5032,,0.5032,1,364.0036,364.5035,,,,,,372,FEM,NOWORD,DIS,150,mosta,,el,,364.5035,364.5036,-0.150546875,-0.019296875,0,0,0,,0,119,119,371,1,pasta,,,,
,,,,,,,60f364780342181eb49b70d7,676192165fb32c2e1fb7aee6,67d1ab66e41611b45b4d2de5,2025-03-12_16h43.07.485,Tarea de decisión léxica,2024.2.5,MacIntel,59.88023952,,,,,,,,,,,,,,,,,,,,,,,364.5051,365.5034,l,1,0.3217,,0.3217,1,365.5036,366.0045,,,,,,359,MAS,WORD,DIS,150,calor,,la,,366.0046,366.0047,-0.150546875,-0.019296875,0,0,0,,0,120,120,358,1,cacer,,,,
,,,,,,,60f364780342181eb49b70d7,676192165fb32c2e1fb7aee6,67d1ab66e41611b45b4d2de5,2025-03-12_16h43.07.485,Tarea de decisión léxica,2024.2.5,MacIntel,59.88023952,,,,,,,,,,,,,,,,,,,,,,,366.0063,367.1869,a,1,0.5002,,0.5002,1,367.187,367.688,,,,,,106,FEM,NOWORD,AGR,150,vina,,la,,367.688,367.6881,-0.150546875,-0.019296875,0,0,0,,0,121,121,105,1,sopa,,,,
,,,,,,,60f364780342181eb49b70d7,676192165fb32c2e1fb7aee6,67d1ab66e41611b45b4d2de5,2025-03-12_16h43.07.485,Tarea de decisión léxica,2024.2.5,MacIntel,59.88023952,,,,,,,,,,,,,,,,,,,,,,,367.6894,368.6878,l,1,0.3196,,0.3196,1,368.688,369.1879,,,,,,69,FEM,WORD,DIS,150,zona,,el,,369.189,369.1899,-0.150546875,-0.019296875,0,0,0,,0,122,122,68,1,ñola,,,,
,,,,,,,60f364780342181eb49b70d7,676192165fb32c2e1fb7aee6,67d1ab66e41611b45b4d2de5,2025-03-12_16h43.07.485,Tarea de decisión léxica,2024.2.5,MacIntel,59.88023952,,,,,,,,,,,,,,,,,,,,,,,369.1906,370.2713,a,1,0.4015,,0.4015,1,370.2713,370.7704,,,,,,8,MAS,NOWORD,DIS,150,nivo,,la,,370.7705,370.7706,-0.150546875,-0.019296875,0,0,0,,0,123,123,7,1,hijo,,,,
,,,,,,,60f364780342181eb49b70d7,676192165fb32c2e1fb7aee6,67d1ab66e41611b45b4d2de5,2025-03-12_16h43.07.485,Tarea de decisión léxica,2024.2.5,MacIntel,59.88023952,,,,,,,,,,,,,,,,,,,,,,,370.7719,371.9704,a,1,0.5326,,0.5326,1,371.9705,372.4714,,,,,,72,FEM,NOWORD,DIS,150,urla,,el,,372.4714,372.4715,-0.150546875,-0.019296875,0,0,0,,0,124,124,71,1,isla,,,,
,,,,,,,60f364780342181eb49b70d7,676192165fb32c2e1fb7aee6,67d1ab66e41611b45b4d2de5,2025-03-12_16h43.07.485,Tarea de decisión léxica,2024.2.5,MacIntel,59.88023952,,,,,,,,,,,,,,,,,,,,,,,372.4726,373.5048,a,1,0.3503,,0.3503,1,373.5049,374.0039,,,,,,356,FEM,NOWORD,DIS,150,bepla,,el,,374.004,374.0041,-0.150546875,-0.019296875,0,0,0,,0,125,125,355,1,regla,,,,
,,,,,,,60f364780342181eb49b70d7,676192165fb32c2e1fb7aee6,67d1ab66e41611b45b4d2de5,2025-03-12_16h43.07.485,Tarea de decisión léxica,2024.2.5,MacIntel,59.88023952,,,,,,,,,,,,,,,,,,,,,,,374.0055,375.0719,a,1,0.3958,,0.3958,1,375.072,375.5707,,,,,,230,MAS,NOWORD,AGR,150,ador,,el,,375.5707,375.5709,-0.150546875,-0.019296875,0,0,0,,0,126,126,229,1,amor,,,,
,,,,,,,60f364780342181eb49b70d7,676192165fb32c2e1fb7aee6,67d1ab66e41611b45b4d2de5,2025-03-12_16h43.07.485,Tarea de decisión léxica,2024.2.5,MacIntel,59.88023952,,,,,,,,,,,,,,,,,,,,,,,375.5722,376.6218,l,1,0.3792,,0.3792,1,376.6219,377.1217,,,,,,199,MAS,WORD,AGR,150,lazo,,el,,377.123,377.1241,-0.150546875,-0.019296875,0,0,0,,0,127,127,198,1,fano,,,,
,,,,,,,60f364780342181eb49b70d7,676192165fb32c2e1fb7aee6,67d1ab66e41611b45b4d2de5,2025-03-12_16h43.07.485,Tarea de decisión léxica,2024.2.5,MacIntel,59.88023952,,,,,,,,,,,,,,,,,,,,,,,377.1251,378.205,a,1,0.4014,,0.4014,1,378.2051,378.7051,,,,,,176,FEM,NOWORD,DIS,150,hosa,,el,,378.7052,378.7053,-0.150546875,-0.019296875,0,0,0,,0,128,128,175,1,goma,,,,
,,,,,,,60f364780342181eb49b70d7,676192165fb32c2e1fb7aee6,67d1ab66e41611b45b4d2de5,2025-03-12_16h43.07.485,Tarea de decisión léxica,2024.2.5,MacIntel,59.88023952,,,,,,,,,,,,,,,,,,,,,,,378.7066,379.7553,a,1,0.3788,,0.3788,1,379.7554,380.2542,,,,,,448,MAS,NOWORD,DIS,150,buaso,,la,,380.2543,380.2544,-0.150546875,-0.019296875,0,0,0,,0,129,129,447,1,bolso,,,,
,,,,,,,60f364780342181eb49b70d7,676192165fb32c2e1fb7aee6,67d1ab66e41611b45b4d2de5,2025-03-12_16h43.07.485,Tarea de decisión léxica,2024.2.5,MacIntel,59.88023952,,,,,,,,,,,,,,,,,,,,,,,380.2557,381.3052,a,1,0.3839,,0.3839,1,381.3053,381.8052,,,,,,460,MAS,NOWORD,DIS,150,fraco,,la,,381.8053,381.8055,-0.150546875,-0.019296875,0,0,0,,0,130,130,459,1,grado,,,,
,,,,,,,60f364780342181eb49b70d7,676192165fb32c2e1fb7aee6,67d1ab66e41611b45b4d2de5,2025-03-12_16h43.07.485,Tarea de decisión léxica,2024.2.5,MacIntel,59.88023952,,,,,,,,,,,,,,,,,,,,,,,381.8067,382.7719,l,1,0.2877,,0.2877,1,382.7721,383.271,,,,,,25,FEM,WORD,AGR,150,cama,,la,,383.2725,383.2733,-0.150546875,-0.019296875,0,0,0,,0,131,131,24,1,paza,,,,
,,,,,,,60f364780342181eb49b70d7,676192165fb32c2e1fb7aee6,67d1ab66e41611b45b4d2de5,2025-03-12_16h43.07.485,Tarea de decisión léxica,2024.2.5,MacIntel,59.88023952,,,,,,,,,,,,,,,,,,,,,,,383.2741,384.5554,a,1,0.6009,,0.6009,1,384.5556,385.0539,,,,,,190,MAS,NOWORD,AGR,150,muvo,,el,,385.0539,385.054,-0.150546875,-0.019296875,0,0,0,,0,132,132,189,1,puño,,,,
,,,,,,,60f364780342181eb49b70d7,676192165fb32c2e1fb7aee6,67d1ab66e41611b45b4d2de5,2025-03-12_16h43.07.485,Tarea de decisión léxica,2024.2.5,MacIntel,59.88023952,,,,,,,,,,,,,,,,,,,,,,,385.0543,386.0377,l,1,0.3187,,0.3187,1,386.0379,386.5387,,,,,,447,MAS,WORD,DIS,150,bolso,,la,,386.5387,386.5387,-0.150546875,-0.019296875,0,0,0,,0,133,133,446,1,buaso,,,,
,,,,,,,60f364780342181eb49b70d7,676192165fb32c2e1fb7aee6,67d1ab66e41611b45b4d2de5,2025-03-12_16h43.07.485,Tarea de decisión léxica,2024.2.5,MacIntel,59.88023952,,,,,,,,,,,,,,,,,,,,,,,386.5398,387.6055,a,1,0.3851,,0.3851,1,387.6057,388.1046,,,,,,242,MAS,NOWORD,AGR,150,mirdo,,el,,388.1047,388.1049,-0.150546875,-0.019296875,0,0,0,,0,134,134,241,1,mundo,,,,
,,,,,,,60f364780342181eb49b70d7,676192165fb32c2e1fb7aee6,67d1ab66e41611b45b4d2de5,2025-03-12_16h43.07.485,Tarea de decisión léxica,2024.2.5,MacIntel,59.88023952,,,,,,,,,,,,,,,,,,,,,,,388.1064,389.1221,l,1,0.3355,,0.3355,1,389.1223,389.6223,,,,,,185,MAS,WORD,AGR,150,baúl,,el,,389.6224,389.6226,-0.150546875,-0.019296875,0,0,0,,0,135,135,184,1,raol,,,,
,,,,,,,60f364780342181eb49b70d7,676192165fb32c2e1fb7aee6,67d1ab66e41611b45b4d2de5,2025-03-12_16h43.07.485,Tarea de decisión léxica,2024.2.5,MacIntel,59.88023952,,,,,,,,,,,,,,,,,,,,,,,389.6238,390.6883,l,1,0.3854,,0.3854,1,390.6884,391.1891,,,,,,373,FEM,WORD,AGR,150,pizza,,la,,391.1905,391.1917,-0.150546875,-0.019296875,0,0,0,,0,136,136,372,1,pogza,,,,
,,,,,,,60f364780342181eb49b70d7,676192165fb32c2e1fb7aee6,67d1ab66e41611b45b4d2de5,2025-03-12_16h43.07.485,Tarea de decisión léxica,2024.2.5,MacIntel,59.88023952,,,,,,,,,,,,,,,,,,,,,,,391.1926,392.2724,a,1,0.4049,,0.4049,1,392.2725,392.7715,,,,,,182,FEM,NOWORD,AGR,150,teda,,la,,392.7716,392.7718,-0.150546875,-0.019296875,0,0,0,,0,137,137,181,1,seda,,,,
,,,,,,,60f364780342181eb49b70d7,676192165fb32c2e1fb7aee6,67d1ab66e41611b45b4d2de5,2025-03-12_16h43.07.485,Tarea de decisión léxica,2024.2.5,MacIntel,59.88023952,,,,,,,,,,,,,,,,,,,,,,,392.7731,393.8059,a,1,0.3622,,0.3622,1,393.806,394.3059,,,,,,80,FEM,NOWORD,DIS,150,ciel,,el,,394.306,394.3062,-0.150546875,-0.019296875,0,0,0,,0,138,138,79,1,piel,,,,
,,,,,,,60f364780342181eb49b70d7,676192165fb32c2e1fb7aee6,67d1ab66e41611b45b4d2de5,2025-03-12_16h43.07.485,Tarea de decisión léxica,2024.2.5,MacIntel,59.88023952,,,,,,,,,,,,,,,,,,,,,,,394.3074,395.6395,a,1,0.6629,,0.6629,1,395.6397,396.1394,,,,,,206,FEM,NOWORD,AGR,150,bara,,la,,396.1395,396.1396,-0.150546875,-0.019296875,0,0,0,,0,139,139,205,1,rana,,,,
,,,,,,,60f364780342181eb49b70d7,676192165fb32c2e1fb7aee6,67d1ab66e41611b45b4d2de5,2025-03-12_16h43.07.485,Tarea de decisión léxica,2024.2.5,MacIntel,59.88023952,,,,,,,,,,,,,,,,,,,,,,,396.1408,397.1388,l,0,0.3176,,0.3176,0,397.1396,397.6394,,,,,,430,FEM,NOWORD,AGR,150,tenta,,la,,397.6396,397.6397,-0.150546875,-0.019296875,0,0,0,,0,140,140,429,1,tarta,,,,
,,,,,,,60f364780342181eb49b70d7,676192165fb32c2e1fb7aee6,67d1ab66e41611b45b4d2de5,2025-03-12_16h43.07.485,Tarea de decisión léxica,2024.2.5,MacIntel,59.88023952,,,,,,,,,,,,,,,,,,,,,,,397.641,398.7717,a,1,0.4497,,0.4497,1,398.7726,399.2729,,,,,,218,MAS,NOWORD,AGR,150,budo,,el,,399.2742,399.2753,-0.150546875,-0.019296875,0,0,0,,0,141,141,217,1,luto,,,,
,,,,,,,60f364780342181eb49b70d7,676192165fb32c2e1fb7aee6,67d1ab66e41611b45b4d2de5,2025-03-12_16h43.07.485,Tarea de decisión léxica,2024.2.5,MacIntel,59.88023952,,,,,,,,,,,,,,,,,,,,,,,399.2763,400.289,l,1,0.3342,,0.3342,1,400.2891,400.7894,,,,,,395,FEM,WORD,AGR,150,caída,,la,,400.7895,400.7896,-0.150546875,-0.019296875,0,0,0,,0,142,142,394,1,paeda,,,,
,,,,,,,60f364780342181eb49b70d7,676192165fb32c2e1fb7aee6,67d1ab66e41611b45b4d2de5,2025-03-12_16h43.07.485,Tarea de decisión léxica,2024.2.5,MacIntel,59.88023952,,,,,,,,,,,,,,,,,,,,,,,400.791,401.873,a,1,0.4003,,0.4003,1,401.8731,402.3731,,,,,,412,MAS,NOWORD,DIS,150,mobro,,la,,402.3732,402.3733,-0.150546875,-0.019296875,0,0,0,,0,143,143,411,1,pollo,,,,
,,,,,,,60f364780342181eb49b70d7,676192165fb32c2e1fb7aee6,67d1ab66e41611b45b4d2de5,2025-03-12_16h43.07.485,Tarea de decisión léxica,2024.2.5,MacIntel,59.88023952,,,,,,,,,,,,,,,,,,,,,,,402.3745,403.372,l,1,0.3291,,0.3291,1,403.3721,403.8721,,,,,,417,FEM,WORD,DIS,150,barba,,el,,403.8722,403.8723,-0.150546875,-0.019296875,0,0,0,,0,144,144,416,1,banja,,,,
,,,,,,,60f364780342181eb49b70d7,676192165fb32c2e1fb7aee6,67d1ab66e41611b45b4d2de5,2025-03-12_16h43.07.485,Tarea de decisión léxica,2024.2.5,MacIntel,59.88023952,,,,,,,,,,,,,,,,,,,,,,,403.8737,405.023,a,1,0.4728,,0.4728,1,405.023,405.5231,,,,,,30,MAS,NOWORD,AGR,150,pono,,el,,405.5232,405.5233,-0.150546875,-0.019296875,0,0,0,,0,145,145,29,1,modo,,,,
,,,,,,,60f364780342181eb49b70d7,676192165fb32c2e1fb7aee6,67d1ab66e41611b45b4d2de5,2025-03-12_16h43.07.485,Tarea de decisión léxica,2024.2.5,MacIntel,59.88023952,,,,,,,,,,,,,,,,,,,,,,,405.5247,406.5229,a,1,0.3281,,0.3281,1,406.5231,407.0231,,,,,,76,MAS,NOWORD,DIS,150,ocer,,la,,407.0244,407.0255,-0.150546875,-0.019296875,0,0,0,,0,146,146,75,1,olor,,,,
,,,,,,,60f364780342181eb49b70d7,676192165fb32c2e1fb7aee6,67d1ab66e41611b45b4d2de5,2025-03-12_16h43.07.485,Tarea de decisión léxica,2024.2.5,MacIntel,59.88023952,,,,,,,,,,,,,,,,,,,,,,,407.0264,408.0731,a,1,0.3696,,0.3696,1,408.0732,408.5733,,,,,,216,FEM,NOWORD,DIS,150,raua,,el,,408.5734,408.5735,-0.150546875,-0.019296875,0,0,0,,0,147,147,215,1,raíz,,,,
,,,,,,,60f364780342181eb49b70d7,676192165fb32c2e1fb7aee6,67d1ab66e41611b45b4d2de5,2025-03-12_16h43.07.485,Tarea de decisión léxica,2024.2.5,MacIntel,59.88023952,,,,,,,,,,,,,,,,,,,,,,,408.5747,409.5904,a,1,0.3461,,0.3461,1,409.5905,410.0892,,,,,,162,MAS,NOWORD,AGR,150,bopo,,el,,410.0892,410.0894,-0.150546875,-0.019296875,0,0,0,,0,148,148,161,1,coro,,,,
,,,,,,,60f364780342181eb49b70d7,676192165fb32c2e1fb7aee6,67d1ab66e41611b45b4d2de5,2025-03-12_16h43.07.485,Tarea de decisión léxica,2024.2.5,MacIntel,59.88023952,,,,,,,,,,,,,,,,,,,,,,,410.0906,411.0565,a,1,0.2848,,0.2848,1,411.0566,411.5558,,,,,,226,MAS,NOWORD,AGR,150,boco,,el,,411.5559,411.556,-0.150546875,-0.019296875,0,0,0,,0,149,149,225,1,lodo,,,,
,,,,,,,60f364780342181eb49b70d7,676192165fb32c2e1fb7aee6,67d1ab66e41611b45b4d2de5,2025-03-12_16h43.07.485,Tarea de decisión léxica,2024.2.5,MacIntel,59.88023952,,,,,,,,,,,,,,,,,,,,,,,411.5573,412.4559,a,1,0.217,,0.217,1,412.4561,412.9568,,,,,,344,FEM,NOWORD,DIS,150,trada,,el,,412.9569,412.957,-0.150546875,-0.019296875,0,0,0,,0,150,150,343,1,plata,,,,
,,,,,,,60f364780342181eb49b70d7,676192165fb32c2e1fb7aee6,67d1ab66e41611b45b4d2de5,2025-03-12_16h43.07.485,Tarea de decisión léxica,2024.2.5,MacIntel,59.88023952,,,,,,,,,,,,,,,,,,,,,,,412.9583,413.9397,a,1,0.3123,,0.3123,1,413.9398,414.4402,,,,,,246,FEM,NOWORD,AGR,150,pafle,,la,,414.4411,414.442,-0.150546875,-0.019296875,0,0,0,,0,151,151,245,1,madre,,,,
,,,,,,,60f364780342181eb49b70d7,676192165fb32c2e1fb7aee6,67d1ab66e41611b45b4d2de5,2025-03-12_16h43.07.485,Tarea de decisión léxica,2024.2.5,MacIntel,59.88023952,,,,,,,,,,,,,,,,,,,,,,,414.4429,415.5559,l,1,0.433,,0.433,1,415.556,416.0559,,,,,,197,MAS,WORD,DIS,150,bate,,la,,416.0559,416.0561,-0.150546875,-0.019296875,0,0,0,,0,152,152,196,1,dade,,,,
,,,,,,,60f364780342181eb49b70d7,676192165fb32c2e1fb7aee6,67d1ab66e41611b45b4d2de5,2025-03-12_16h43.07.485,Tarea de decisión léxica,2024.2.5,MacIntel,59.88023952,,,,,,,,,,,,,,,,,,,,,,,416.0572,417.0569,l,1,0.3341,,0.3341,1,417.057,417.557,,,,,,21,MAS,WORD,DIS,150,plan,,la,,417.5571,417.5573,-0.150546875,-0.019296875,0,0,0,,0,153,153,20,1,blan,,,,
,,,,,,,60f364780342181eb49b70d7,676192165fb32c2e1fb7aee6,67d1ab66e41611b45b4d2de5,2025-03-12_16h43.07.485,Tarea de decisión léxica,2024.2.5,MacIntel,59.88023952,,,,,,,,,,,,,,,,,,,,,,,417.5586,418.7569,l,1,0.5289,,0.5289,1,418.7569,419.2562,,,,,,319,MAS,WORD,DIS,150,suelo,,la,,419.2563,419.2564,-0.150546875,-0.019296875,0,0,0,,0,154,154,318,1,tuero,,,,
,,,,,,,60f364780342181eb49b70d7,676192165fb32c2e1fb7aee6,67d1ab66e41611b45b4d2de5,2025-03-12_16h43.07.485,Tarea de decisión léxica,2024.2.5,MacIntel,59.88023952,,,,,,,,,,,,,,,,,,,,,,,419.2579,420.2571,a,1,0.3336,,0.3336,1,420.2572,420.7571,,,,,,466,FEM,NOWORD,AGR,150,asuba,,la,,420.7583,420.7592,-0.150546875,-0.019296875,0,0,0,,0,155,155,465,1,aguja,,,,
,,,,,,,60f364780342181eb49b70d7,676192165fb32c2e1fb7aee6,67d1ab66e41611b45b4d2de5,2025-03-12_16h43.07.485,Tarea de decisión léxica,2024.2.5,MacIntel,59.88023952,,,,,,,,,,,,,,,,,,,,,,,420.7602,421.7571,a,1,0.3174,,0.3174,1,421.7572,422.2563,,,,,,134,FEM,NOWORD,AGR,150,vesa,,la,,422.2564,422.2566,-0.150546875,-0.019296875,0,0,0,,0,156,156,133,1,vaca,,,,
,,,,,,,60f364780342181eb49b70d7,676192165fb32c2e1fb7aee6,67d1ab66e41611b45b4d2de5,2025-03-12_16h43.07.485,Tarea de decisión léxica,2024.2.5,MacIntel,59.88023952,,,,,,,,,,,,,,,,,,,,,,,422.2579,423.2405,a,0,0.3113,,0.3113,0,423.2413,423.7397,,,,,,29,MAS,WORD,DIS,150,modo,,la,,423.7398,423.74,-0.150546875,-0.019296875,0,0,0,,0,157,157,28,1,pono,,,,
,,,,,,,60f364780342181eb49b70d7,676192165fb32c2e1fb7aee6,67d1ab66e41611b45b4d2de5,2025-03-12_16h43.07.485,Tarea de decisión léxica,2024.2.5,MacIntel,59.88023952,,,,,,,,,,,,,,,,,,,,,,,423.7414,424.7573,l,1,0.3383,,0.3383,1,424.7581,425.2574,,,,,,475,FEM,WORD,AGR,150,manta,,la,,425.2575,425.2576,-0.150546875,-0.019296875,0,0,0,,0,158,158,474,1,mucta,,,,
,,,,,,,60f364780342181eb49b70d7,676192165fb32c2e1fb7aee6,67d1ab66e41611b45b4d2de5,2025-03-12_16h43.07.485,Tarea de decisión léxica,2024.2.5,MacIntel,59.88023952,,,,,,,,,,,,,,,,,,,,,,,425.2586,426.6907,a,1,0.7507,,0.7507,1,426.6908,427.1908,,,,,,84,FEM,NOWORD,DIS,150,taga,,el,,427.1909,427.1909,-0.150546875,-0.019296875,0,0,0,,0,159,159,83,1,bala,,,,
,,,,,,,60f364780342181eb49b70d7,676192165fb32c2e1fb7aee6,67d1ab66e41611b45b4d2de5,2025-03-12_16h43.07.485,Tarea de decisión léxica,2024.2.5,MacIntel,59.88023952,,,,,,,,,,,,,,,,,,,,,,,427.1919,428.0744,l,1,0.2115,,0.2115,1,428.0746,428.5734,,,,,,7,MAS,WORD,DIS,150,hijo,,la,,428.5748,432.925,-0.150546875,-0.019296875,0,0,0,space,0,160,160,6,1,nivo,4.3253,,,
,,,,,,,60f364780342181eb49b70d7,676192165fb32c2e1fb7aee6,67d1ab66e41611b45b4d2de5,2025-03-12_16h43.07.485,Tarea de decisión léxica,2024.2.5,MacIntel,59.88023952,,,,,,,,,,,,,,,,,,,,,,,432.927,434.1578,a,1,0.5619,,0.5619,1,434.1579,434.658,,,,,,2,FEM,NOWORD,AGR,150,mada,,la,,434.6581,434.6583,-0.150546875,-0.019296875,0,0,0,,0,161,161,1,1,casa,,,,
,,,,,,,60f364780342181eb49b70d7,676192165fb32c2e1fb7aee6,67d1ab66e41611b45b4d2de5,2025-03-12_16h43.07.485,Tarea de decisión léxica,2024.2.5,MacIntel,59.88023952,,,,,,,,,,,,,,,,,,,,,,,434.6595,435.7245,l,1,0.3827,,0.3827,1,435.7246,436.2247,,,,,,335,FEM,WORD,DIS,150,costa,,el,,436.2248,436.2249,-0.150546875,-0.019296875,0,0,0,,0,162,162,334,1,pesta,,,,
,,,,,,,60f364780342181eb49b70d7,676192165fb32c2e1fb7aee6,67d1ab66e41611b45b4d2de5,2025-03-12_16h43.07.485,Tarea de decisión léxica,2024.2.5,MacIntel,59.88023952,,,,,,,,,,,,,,,,,,,,,,,436.2263,437.1579,l,1,0.2508,,0.2508,1,437.1579,437.6569,,,,,,477,MAS,WORD,DIS,150,botón,,la,,437.657,437.6571,-0.150546875,-0.019296875,0,0,0,,0,163,163,476,1,hocon,,,,
,,,,,,,60f364780342181eb49b70d7,676192165fb32c2e1fb7aee6,67d1ab66e41611b45b4d2de5,2025-03-12_16h43.07.485,Tarea de decisión léxica,2024.2.5,MacIntel,59.88023952,,,,,,,,,,,,,,,,,,,,,,,437.6583,438.6248,l,1,0.2998,,0.2998,1,438.6249,439.1239,,,,,,123,FEM,WORD,DIS,150,flor,,el,,439.124,439.1242,-0.150546875,-0.019296875,0,0,0,,0,164,164,122,1,maba,,,,
,,,,,,,60f364780342181eb49b70d7,676192165fb32c2e1fb7aee6,67d1ab66e41611b45b4d2de5,2025-03-12_16h43.07.485,Tarea de decisión léxica,2024.2.5,MacIntel,59.88023952,,,,,,,,,,,,,,,,,,,,,,,439.1255,440.0748,l,1,0.2838,,0.2838,1,440.075,440.5748,,,,,,55,MAS,WORD,AGR,150,gato,,el,,440.5759,440.5768,-0.150546875,-0.019296875,0,0,0,,0,165,165,54,1,jado,,,,
,,,,,,,60f364780342181eb49b70d7,676192165fb32c2e1fb7aee6,67d1ab66e41611b45b4d2de5,2025-03-12_16h43.07.485,Tarea de decisión léxica,2024.2.5,MacIntel,59.88023952,,,,,,,,,,,,,,,,,,,,,,,440.5778,441.5739,a,1,0.3174,,0.3174,1,441.574,442.0739,,,,,,132,FEM,NOWORD,DIS,150,fada,,el,,442.0739,442.074,-0.150546875,-0.019296875,0,0,0,,0,166,166,131,1,mina,,,,
,,,,,,,60f364780342181eb49b70d7,676192165fb32c2e1fb7aee6,67d1ab66e41611b45b4d2de5,2025-03-12_16h43.07.485,Tarea de decisión léxica,2024.2.5,MacIntel,59.88023952,,,,,,,,,,,,,,,,,,,,,,,442.0752,443.1239,a,1,0.3837,,0.3837,1,443.124,443.624,,,,,,244,MAS,NOWORD,DIS,150,asamo,,la,,443.6241,443.6244,-0.150546875,-0.019296875,0,0,0,,0,167,167,243,1,amigo,,,,
,,,,,,,60f364780342181eb49b70d7,676192165fb32c2e1fb7aee6,67d1ab66e41611b45b4d2de5,2025-03-12_16h43.07.485,Tarea de decisión léxica,2024.2.5,MacIntel,59.88023952,,,,,,,,,,,,,,,,,,,,,,,443.6256,444.6083,l,1,0.3035,,0.3035,1,444.6084,445.1074,,,,,,131,FEM,WORD,AGR,150,mina,,la,,445.1075,445.1076,-0.150546875,-0.019296875,0,0,0,,0,168,168,130,1,fada,,,,
,,,,,,,60f364780342181eb49b70d7,676192165fb32c2e1fb7aee6,67d1ab66e41611b45b4d2de5,2025-03-12_16h43.07.485,Tarea de decisión léxica,2024.2.5,MacIntel,59.88023952,,,,,,,,,,,,,,,,,,,,,,,445.1091,446.125,a,1,0.3367,,0.3367,1,446.1251,446.6251,,,,,,36,MAS,NOWORD,DIS,150,meno,,la,,446.6252,446.6254,-0.150546875,-0.019296875,0,0,0,,0,169,169,35,1,pelo,,,,
,,,,,,,60f364780342181eb49b70d7,676192165fb32c2e1fb7aee6,67d1ab66e41611b45b4d2de5,2025-03-12_16h43.07.485,Tarea de decisión léxica,2024.2.5,MacIntel,59.88023952,,,,,,,,,,,,,,,,,,,,,,,446.6267,447.6576,a,1,0.351,,0.351,1,447.6577,448.1585,,,,,,52,FEM,NOWORD,DIS,150,mava,,el,,448.1598,448.1609,-0.150546875,-0.019296875,0,0,0,,0,170,170,51,1,caja,,,,
,,,,,,,60f364780342181eb49b70d7,676192165fb32c2e1fb7aee6,67d1ab66e41611b45b4d2de5,2025-03-12_16h43.07.485,Tarea de decisión léxica,2024.2.5,MacIntel,59.88023952,,,,,,,,,,,,,,,,,,,,,,,448.1618,449.1243,l,1,0.2847,,0.2847,1,449.1245,449.6242,,,,,,385,FEM,WORD,DIS,150,letra,,el,,449.6243,449.6244,-0.150546875,-0.019296875,0,0,0,,0,171,171,384,1,febra,,,,
,,,,,,,60f364780342181eb49b70d7,676192165fb32c2e1fb7aee6,67d1ab66e41611b45b4d2de5,2025-03-12_16h43.07.485,Tarea de decisión léxica,2024.2.5,MacIntel,59.88023952,,,,,,,,,,,,,,,,,,,,,,,449.6258,450.6253,l,1,0.3209,,0.3209,1,450.6255,451.1252,,,,,,11,MAS,WORD,DIS,150,lado,,la,,451.1253,451.1255,-0.150546875,-0.019296875,0,0,0,,0,172,172,10,1,bapo,,,,
,,,,,,,60f364780342181eb49b70d7,676192165fb32c2e1fb7aee6,67d1ab66e41611b45b4d2de5,2025-03-12_16h43.07.485,Tarea de decisión léxica,2024.2.5,MacIntel,59.88023952,,,,,,,,,,,,,,,,,,,,,,,451.1265,452.1749,a,1,0.3668,,0.3668,1,452.175,452.6744,,,,,,166,FEM,NOWORD,AGR,150,dera,,la,,452.6745,452.6746,-0.150546875,-0.019296875,0,0,0,,0,173,173,165,1,vela,,,,
,,,,,,,60f364780342181eb49b70d7,676192165fb32c2e1fb7aee6,67d1ab66e41611b45b4d2de5,2025-03-12_16h43.07.485,Tarea de decisión léxica,2024.2.5,MacIntel,59.88023952,,,,,,,,,,,,,,,,,,,,,,,452.6757,453.6086,l,0,0.2582,,0.2582,0,453.6094,454.1088,,,,,,156,FEM,NOWORD,DIS,150,luma,,el,,454.1089,454.109,-0.150546875,-0.019296875,0,0,0,,0,174,174,155,1,fuga,,,,
,,,,,,,60f364780342181eb49b70d7,676192165fb32c2e1fb7aee6,67d1ab66e41611b45b4d2de5,2025-03-12_16h43.07.485,Tarea de decisión léxica,2024.2.5,MacIntel,59.88023952,,,,,,,,,,,,,,,,,,,,,,,454.1101,455.4088,a,1,0.6292,,0.6292,1,455.4097,455.9089,,,,,,116,FEM,NOWORD,DIS,150,haca,,el,,455.9099,455.911,-0.150546875,-0.019296875,0,0,0,,0,175,175,115,1,pata,,,,
,,,,,,,60f364780342181eb49b70d7,676192165fb32c2e1fb7aee6,67d1ab66e41611b45b4d2de5,2025-03-12_16h43.07.485,Tarea de decisión léxica,2024.2.5,MacIntel,59.88023952,,,,,,,,,,,,,,,,,,,,,,,455.9118,456.8757,l,1,0.287,,0.287,1,456.8758,457.3755,,,,,,357,FEM,WORD,DIS,150,bruja,,el,,457.3757,457.3758,-0.150546875,-0.019296875,0,0,0,,0,176,176,356,1,gruba,,,,
,,,,,,,60f364780342181eb49b70d7,676192165fb32c2e1fb7aee6,67d1ab66e41611b45b4d2de5,2025-03-12_16h43.07.485,Tarea de decisión léxica,2024.2.5,MacIntel,59.88023952,,,,,,,,,,,,,,,,,,,,,,,457.3769,458.3423,l,1,0.2836,,0.2836,1,458.3425,458.8423,,,,,,383,FEM,WORD,AGR,150,frase,,la,,458.8424,458.8425,-0.150546875,-0.019296875,0,0,0,,0,177,177,382,1,brame,,,,
,,,,,,,60f364780342181eb49b70d7,676192165fb32c2e1fb7aee6,67d1ab66e41611b45b4d2de5,2025-03-12_16h43.07.485,Tarea de decisión léxica,2024.2.5,MacIntel,59.88023952,,,,,,,,,,,,,,,,,,,,,,,458.8437,459.9082,a,1,0.3829,,0.3829,1,459.9083,460.409,,,,,,16,FEM,NOWORD,DIS,150,odea,,el,,460.4091,460.4094,-0.150546875,-0.019296875,0,0,0,,0,178,178,15,1,idea,,,,
,,,,,,,60f364780342181eb49b70d7,676192165fb32c2e1fb7aee6,67d1ab66e41611b45b4d2de5,2025-03-12_16h43.07.485,Tarea de decisión léxica,2024.2.5,MacIntel,59.88023952,,,,,,,,,,,,,,,,,,,,,,,460.4104,461.5415,a,1,0.4499,,0.4499,1,461.5416,462.0424,,,,,,340,MAS,NOWORD,DIS,150,plajo,,la,,462.0438,462.0448,-0.150546875,-0.019296875,0,0,0,,0,179,179,339,1,brazo,,,,
,,,,,,,60f364780342181eb49b70d7,676192165fb32c2e1fb7aee6,67d1ab66e41611b45b4d2de5,2025-03-12_16h43.07.485,Tarea de decisión léxica,2024.2.5,MacIntel,59.88023952,,,,,,,,,,,,,,,,,,,,,,,462.0458,463.0593,l,1,0.3364,,0.3364,1,463.0594,463.5594,,,,,,195,FEM,WORD,AGR,150,tela,,la,,463.5596,463.5597,-0.150546875,-0.019296875,0,0,0,,0,180,180,194,1,sira,,,,
,,,,,,,60f364780342181eb49b70d7,676192165fb32c2e1fb7aee6,67d1ab66e41611b45b4d2de5,2025-03-12_16h43.07.485,Tarea de decisión léxica,2024.2.5,MacIntel,59.88023952,,,,,,,,,,,,,,,,,,,,,,,463.5609,464.6093,a,1,0.3669,,0.3669,1,464.6094,465.1084,,,,,,250,FEM,NOWORD,AGR,150,plane,,la,,465.1084,465.1086,-0.150546875,-0.019296875,0,0,0,,0,181,181,249,1,clase,,,,
,,,,,,,60f364780342181eb49b70d7,676192165fb32c2e1fb7aee6,67d1ab66e41611b45b4d2de5,2025-03-12_16h43.07.485,Tarea de decisión léxica,2024.2.5,MacIntel,59.88023952,,,,,,,,,,,,,,,,,,,,,,,465.1098,466.126,a,1,0.3506,,0.3506,1,466.126,466.6261,,,,,,296,MAS,NOWORD,DIS,150,goler,,la,,466.6261,466.6264,-0.150546875,-0.019296875,0,0,0,,0,182,182,295,1,dolor,,,,
,,,,,,,60f364780342181eb49b70d7,676192165fb32c2e1fb7aee6,67d1ab66e41611b45b4d2de5,2025-03-12_16h43.07.485,Tarea de decisión léxica,2024.2.5,MacIntel,59.88023952,,,,,,,,,,,,,,,,,,,,,,,466.6277,467.6261,l,1,0.3167,,0.3167,1,467.6262,468.1253,,,,,,443,MAS,WORD,DIS,150,salón,,la,,468.1254,468.1255,-0.150546875,-0.019296875,0,0,0,,0,183,183,442,1,taron,,,,
,,,,,,,60f364780342181eb49b70d7,676192165fb32c2e1fb7aee6,67d1ab66e41611b45b4d2de5,2025-03-12_16h43.07.485,Tarea de decisión léxica,2024.2.5,MacIntel,59.88023952,,,,,,,,,,,,,,,,,,,,,,,468.1271,469.1254,a,1,0.3331,,0.3331,1,469.1255,469.6262,,,,,,408,FEM,NOWORD,DIS,150,cauba,,el,,469.6272,469.6281,-0.150546875,-0.019296875,0,0,0,,0,184,184,407,1,cueva,,,,
,,,,,,,60f364780342181eb49b70d7,676192165fb32c2e1fb7aee6,67d1ab66e41611b45b4d2de5,2025-03-12_16h43.07.485,Tarea de decisión léxica,2024.2.5,MacIntel,59.88023952,,,,,,,,,,,,,,,,,,,,,,,469.6289,470.6589,a,1,0.3512,,0.3512,1,470.6591,471.1588,,,,,,352,MAS,NOWORD,DIS,150,duepo,,la,,471.1588,471.159,-0.150546875,-0.019296875,0,0,0,,0,185,185,351,1,vuelo,,,,
,,,,,,,60f364780342181eb49b70d7,676192165fb32c2e1fb7aee6,67d1ab66e41611b45b4d2de5,2025-03-12_16h43.07.485,Tarea de decisión léxica,2024.2.5,MacIntel,59.88023952,,,,,,,,,,,,,,,,,,,,,,,471.1603,472.1596,a,1,0.3287,,0.3287,1,472.1598,472.6597,,,,,,12,MAS,NOWORD,DIS,150,bapo,,la,,472.6599,472.66,-0.150546875,-0.019296875,0,0,0,,0,186,186,11,1,lado,,,,
,,,,,,,60f364780342181eb49b70d7,676192165fb32c2e1fb7aee6,67d1ab66e41611b45b4d2de5,2025-03-12_16h43.07.485,Tarea de decisión léxica,2024.2.5,MacIntel,59.88023952,,,,,,,,,,,,,,,,,,,,,,,472.661,473.6595,a,1,0.3284,,0.3284,1,473.6595,474.1598,,,,,,364,FEM,NOWORD,DIS,150,veida,,el,,474.16,474.1601,-0.150546875,-0.019296875,0,0,0,,0,187,187,363,1,deuda,,,,
,,,,,,,60f364780342181eb49b70d7,676192165fb32c2e1fb7aee6,67d1ab66e41611b45b4d2de5,2025-03-12_16h43.07.485,Tarea de decisión léxica,2024.2.5,MacIntel,59.88023952,,,,,,,,,,,,,,,,,,,,,,,474.1614,475.1599,a,1,0.3171,,0.3171,1,475.16,475.6599,,,,,,410,MAS,NOWORD,AGR,150,pafro,,el,,475.66,475.6601,-0.150546875,-0.019296875,0,0,0,,0,188,188,409,1,carro,,,,
,,,,,,,60f364780342181eb49b70d7,676192165fb32c2e1fb7aee6,67d1ab66e41611b45b4d2de5,2025-03-12_16h43.07.485,Tarea de decisión léxica,2024.2.5,MacIntel,59.88023952,,,,,,,,,,,,,,,,,,,,,,,475.6614,476.71,l,1,0.367,,0.367,1,476.7102,477.2099,,,,,,17,FEM,WORD,AGR,150,mamá,,la,,477.211,477.212,-0.150546875,-0.019296875,0,0,0,,0,189,189,16,1,paba,,,,
,,,,,,,60f364780342181eb49b70d7,676192165fb32c2e1fb7aee6,67d1ab66e41611b45b4d2de5,2025-03-12_16h43.07.485,Tarea de decisión léxica,2024.2.5,MacIntel,59.88023952,,,,,,,,,,,,,,,,,,,,,,,477.2128,478.1932,a,1,0.302,,0.302,1,478.1933,478.6935,,,,,,236,FEM,NOWORD,DIS,150,tria,,el,,478.6935,478.6937,-0.150546875,-0.019296875,0,0,0,,0,190,190,235,1,grúa,,,,
,,,,,,,60f364780342181eb49b70d7,676192165fb32c2e1fb7aee6,67d1ab66e41611b45b4d2de5,2025-03-12_16h43.07.485,Tarea de decisión léxica,2024.2.5,MacIntel,59.88023952,,,,,,,,,,,,,,,,,,,,,,,478.695,479.6601,a,1,0.2862,,0.2862,1,479.6603,480.1599,,,,,,56,MAS,NOWORD,DIS,150,jado,,la,,480.16,480.1603,-0.150546875,-0.019296875,0,0,0,,0,191,191,55,1,gato,,,,
,,,,,,,60f364780342181eb49b70d7,676192165fb32c2e1fb7aee6,67d1ab66e41611b45b4d2de5,2025-03-12_16h43.07.485,Tarea de decisión léxica,2024.2.5,MacIntel,59.88023952,,,,,,,,,,,,,,,,,,,,,,,480.1613,481.3268,l,1,0.4952,,0.4952,1,481.3269,481.826,,,,,,67,FEM,WORD,AGR,150,nena,,la,,481.8261,481.8262,-0.150546875,-0.019296875,0,0,0,,0,192,192,66,1,gesa,,,,
,,,,,,,60f364780342181eb49b70d7,676192165fb32c2e1fb7aee6,67d1ab66e41611b45b4d2de5,2025-03-12_16h43.07.485,Tarea de decisión léxica,2024.2.5,MacIntel,59.88023952,,,,,,,,,,,,,,,,,,,,,,,481.8277,482.8102,l,1,0.3005,,0.3005,1,482.8103,483.3102,,,,,,459,MAS,WORD,AGR,150,grado,,el,,483.3102,483.3106,-0.150546875,-0.019296875,0,0,0,,0,193,193,458,1,fraco,,,,
,,,,,,,60f364780342181eb49b70d7,676192165fb32c2e1fb7aee6,67d1ab66e41611b45b4d2de5,2025-03-12_16h43.07.485,Tarea de decisión léxica,2024.2.5,MacIntel,59.88023952,,,,,,,,,,,,,,,,,,,,,,,483.3116,484.3769,l,1,0.3837,,0.3837,1,484.377,484.877,,,,,,435,MAS,WORD,AGR,150,ritmo,,el,,484.8784,484.8794,-0.150546875,-0.019296875,0,0,0,,0,194,194,434,1,ricno,,,,
,,,,,,,60f364780342181eb49b70d7,676192165fb32c2e1fb7aee6,67d1ab66e41611b45b4d2de5,2025-03-12_16h43.07.485,Tarea de decisión léxica,2024.2.5,MacIntel,59.88023952,,,,,,,,,,,,,,,,,,,,,,,484.8804,485.9928,a,1,0.4337,,0.4337,1,485.9929,486.4937,,,,,,450,FEM,NOWORD,AGR,150,crusa,,la,,486.4938,486.494,-0.150546875,-0.019296875,0,0,0,,0,195,195,449,1,pluma,,,,
,,,,,,,60f364780342181eb49b70d7,676192165fb32c2e1fb7aee6,67d1ab66e41611b45b4d2de5,2025-03-12_16h43.07.485,Tarea de decisión léxica,2024.2.5,MacIntel,59.88023952,,,,,,,,,,,,,,,,,,,,,,,486.495,487.4769,l,1,0.2999,,0.2999,1,487.477,487.9771,,,,,,87,MAS,WORD,DIS,150,vaso,,la,,487.9772,487.9773,-0.150546875,-0.019296875,0,0,0,,0,196,196,86,1,damo,,,,
,,,,,,,60f364780342181eb49b70d7,676192165fb32c2e1fb7aee6,67d1ab66e41611b45b4d2de5,2025-03-12_16h43.07.485,Tarea de decisión léxica,2024.2.5,MacIntel,59.88023952,,,,,,,,,,,,,,,,,,,,,,,487.9783,489.0263,a,1,0.3699,,0.3699,1,489.0264,489.5272,,,,,,74,MAS,NOWORD,AGR,150,omio,,el,,489.5274,489.5275,-0.150546875,-0.019296875,0,0,0,,0,197,197,73,1,odio,,,,
,,,,,,,60f364780342181eb49b70d7,676192165fb32c2e1fb7aee6,67d1ab66e41611b45b4d2de5,2025-03-12_16h43.07.485,Tarea de decisión léxica,2024.2.5,MacIntel,59.88023952,,,,,,,,,,,,,,,,,,,,,,,489.5287,490.6271,l,1,0.419,,0.419,1,490.6272,491.1274,,,,,,473,FEM,WORD,DIS,150,feria,,el,,491.1275,491.1277,-0.150546875,-0.019296875,0,0,0,,0,198,198,472,1,felia,,,,
,,,,,,,60f364780342181eb49b70d7,676192165fb32c2e1fb7aee6,67d1ab66e41611b45b4d2de5,2025-03-12_16h43.07.485,Tarea de decisión léxica,2024.2.5,MacIntel,59.88023952,,,,,,,,,,,,,,,,,,,,,,,491.1289,492.0597,a,1,0.2539,,0.2539,1,492.06,492.5607,,,,,,186,MAS,NOWORD,AGR,150,raol,,el,,492.5621,492.5632,-0.150546875,-0.019296875,0,0,0,,0,199,199,185,1,baúl,,,,
,,,,,,,60f364780342181eb49b70d7,676192165fb32c2e1fb7aee6,67d1ab66e41611b45b4d2de5,2025-03-12_16h43.07.485,Tarea de decisión léxica,2024.2.5,MacIntel,59.88023952,,,,,,,,,,,,,,,,,,,,,,,492.5643,493.5441,l,1,0.3119,,0.3119,1,493.5442,494.0441,,,,,,207,MAS,WORD,DIS,150,kilo,,la,,494.0443,494.0444,-0.150546875,-0.019296875,0,0,0,,0,200,200,206,1,kedo,,,,
,,,,,,,60f364780342181eb49b70d7,676192165fb32c2e1fb7aee6,67d1ab66e41611b45b4d2de5,2025-03-12_16h43.07.485,Tarea de decisión léxica,2024.2.5,MacIntel,59.88023952,,,,,,,,,,,,,,,,,,,,,,,494.0456,495.0933,a,1,0.3688,,0.3688,1,495.0934,495.5943,,,,,,378,MAS,NOWORD,AGR,150,gaulo,,el,,495.5944,495.5946,-0.150546875,-0.019296875,0,0,0,,0,201,201,377,1,hielo,,,,
,,,,,,,60f364780342181eb49b70d7,676192165fb32c2e1fb7aee6,67d1ab66e41611b45b4d2de5,2025-03-12_16h43.07.485,Tarea de decisión léxica,2024.2.5,MacIntel,59.88023952,,,,,,,,,,,,,,,,,,,,,,,495.5958,496.6275,a,1,0.3554,,0.3554,1,496.6276,497.1277,,,,,,68,FEM,NOWORD,DIS,150,gesa,,el,,497.1278,497.128,-0.150546875,-0.019296875,0,0,0,,0,202,202,67,1,nena,,,,
,,,,,,,60f364780342181eb49b70d7,676192165fb32c2e1fb7aee6,67d1ab66e41611b45b4d2de5,2025-03-12_16h43.07.485,Tarea de decisión léxica,2024.2.5,MacIntel,59.88023952,,,,,,,,,,,,,,,,,,,,,,,497.1293,498.0944,l,1,0.2829,,0.2829,1,498.0945,498.5943,,,,,,425,FEM,WORD,AGR,150,viuda,,la,,498.5955,498.5963,-0.150546875,-0.019296875,0,0,0,,0,203,203,424,1,virca,,,,
,,,,,,,60f364780342181eb49b70d7,676192165fb32c2e1fb7aee6,67d1ab66e41611b45b4d2de5,2025-03-12_16h43.07.485,Tarea de decisión léxica,2024.2.5,MacIntel,59.88023952,,,,,,,,,,,,,,,,,,,,,,,498.5973,499.561,a,0,0.2883,,0.2883,0,499.5619,500.0602,,,,,,225,MAS,WORD,AGR,150,lodo,,el,,500.0603,500.0604,-0.150546875,-0.019296875,0,0,0,,0,204,204,224,1,boco,,,,
,,,,,,,60f364780342181eb49b70d7,676192165fb32c2e1fb7aee6,67d1ab66e41611b45b4d2de5,2025-03-12_16h43.07.485,Tarea de decisión léxica,2024.2.5,MacIntel,59.88023952,,,,,,,,,,,,,,,,,,,,,,,500.0618,501.3445,l,1,0.6121,,0.6121,1,501.3455,501.8444,,,,,,9,MAS,WORD,AGR,150,tipo,,el,,501.8445,501.8446,-0.150546875,-0.019296875,0,0,0,,0,205,205,8,1,sibo,,,,
,,,,,,,60f364780342181eb49b70d7,676192165fb32c2e1fb7aee6,67d1ab66e41611b45b4d2de5,2025-03-12_16h43.07.485,Tarea de decisión léxica,2024.2.5,MacIntel,59.88023952,,,,,,,,,,,,,,,,,,,,,,,501.8456,503.1604,a,1,0.6332,,0.6332,1,503.1605,503.6613,,,,,,444,MAS,NOWORD,DIS,150,taron,,la,,503.6614,503.6617,-0.150546875,-0.019296875,0,0,0,,0,206,206,443,1,salón,,,,
,,,,,,,60f364780342181eb49b70d7,676192165fb32c2e1fb7aee6,67d1ab66e41611b45b4d2de5,2025-03-12_16h43.07.485,Tarea de decisión léxica,2024.2.5,MacIntel,59.88023952,,,,,,,,,,,,,,,,,,,,,,,503.6629,504.6438,l,1,0.3005,,0.3005,1,504.644,505.1447,,,,,,239,MAS,WORD,AGR,150,mozo,,el,,505.1448,505.145,-0.150546875,-0.019296875,0,0,0,,0,207,207,238,1,poño,,,,
,,,,,,,60f364780342181eb49b70d7,676192165fb32c2e1fb7aee6,67d1ab66e41611b45b4d2de5,2025-03-12_16h43.07.485,Tarea de decisión léxica,2024.2.5,MacIntel,59.88023952,,,,,,,,,,,,,,,,,,,,,,,505.1463,506.6948,a,1,0.8789,,0.8789,1,506.6949,507.1947,,,,,,228,MAS,NOWORD,DIS,150,laro,,la,,507.1962,507.1975,-0.150546875,-0.019296875,0,0,0,,0,208,208,227,1,faro,,,,
,,,,,,,60f364780342181eb49b70d7,676192165fb32c2e1fb7aee6,67d1ab66e41611b45b4d2de5,2025-03-12_16h43.07.485,Tarea de decisión léxica,2024.2.5,MacIntel,59.88023952,,,,,,,,,,,,,,,,,,,,,,,507.1984,508.4449,a,1,0.5662,,0.5662,1,508.4451,508.944,,,,,,320,MAS,NOWORD,DIS,150,tuero,,la,,508.9441,508.9442,-0.150546875,-0.019296875,0,0,0,,0,209,209,319,1,suelo,,,,
,,,,,,,60f364780342181eb49b70d7,676192165fb32c2e1fb7aee6,67d1ab66e41611b45b4d2de5,2025-03-12_16h43.07.485,Tarea de decisión léxica,2024.2.5,MacIntel,59.88023952,,,,,,,,,,,,,,,,,,,,,,,508.9454,509.9113,l,0,0.295,,0.295,0,509.9122,510.4107,,,,,,148,FEM,NOWORD,DIS,150,pama,,el,,510.4108,510.411,-0.150546875,-0.019296875,0,0,0,,0,210,210,147,1,hoja,,,,
,,,,,,,60f364780342181eb49b70d7,676192165fb32c2e1fb7aee6,67d1ab66e41611b45b4d2de5,2025-03-12_16h43.07.485,Tarea de decisión léxica,2024.2.5,MacIntel,59.88023952,,,,,,,,,,,,,,,,,,,,,,,510.4123,511.4787,a,1,0.3969,,0.3969,1,511.4798,511.9784,,,,,,328,MAS,NOWORD,DIS,150,lendo,,la,,511.9785,511.9786,-0.150546875,-0.019296875,0,0,0,,0,211,211,327,1,fondo,,,,
,,,,,,,60f364780342181eb49b70d7,676192165fb32c2e1fb7aee6,67d1ab66e41611b45b4d2de5,2025-03-12_16h43.07.485,Tarea de decisión léxica,2024.2.5,MacIntel,59.88023952,,,,,,,,,,,,,,,,,,,,,,,511.9799,512.9944,a,1,0.3383,,0.3383,1,512.9945,513.4951,,,,,,332,MAS,NOWORD,DIS,150,erato,,la,,513.4953,513.4954,-0.150546875,-0.019296875,0,0,0,,0,212,212,331,1,éxito,,,,
,,,,,,,60f364780342181eb49b70d7,676192165fb32c2e1fb7aee6,67d1ab66e41611b45b4d2de5,2025-03-12_16h43.07.485,Tarea de decisión léxica,2024.2.5,MacIntel,59.88023952,,,,,,,,,,,,,,,,,,,,,,,513.4967,514.5785,a,1,0.4111,,0.4111,1,514.5786,515.0786,,,,,,380,MAS,NOWORD,DIS,150,tunso,,la,,515.0798,515.0809,-0.150546875,-0.019296875,0,0,0,,0,213,213,379,1,turno,,,,
,,,,,,,60f364780342181eb49b70d7,676192165fb32c2e1fb7aee6,67d1ab66e41611b45b4d2de5,2025-03-12_16h43.07.485,Tarea de decisión léxica,2024.2.5,MacIntel,59.88023952,,,,,,,,,,,,,,,,,,,,,,,515.0819,516.1284,l,1,0.3673,,0.3673,1,516.1286,516.6287,,,,,,399,MAS,WORD,DIS,150,techo,,la,,516.6287,516.6289,-0.150546875,-0.019296875,0,0,0,,0,214,214,398,1,serro,,,,
,,,,,,,60f364780342181eb49b70d7,676192165fb32c2e1fb7aee6,67d1ab66e41611b45b4d2de5,2025-03-12_16h43.07.485,Tarea de decisión léxica,2024.2.5,MacIntel,59.88023952,,,,,,,,,,,,,,,,,,,,,,,516.6301,517.612,l,1,0.3006,,0.3006,1,517.6121,518.1121,,,,,,59,FEM,WORD,DIS,150,sala,,el,,518.1122,518.1123,-0.150546875,-0.019296875,0,0,0,,0,215,215,58,1,tafa,,,,
,,,,,,,60f364780342181eb49b70d7,676192165fb32c2e1fb7aee6,67d1ab66e41611b45b4d2de5,2025-03-12_16h43.07.485,Tarea de decisión léxica,2024.2.5,MacIntel,59.88023952,,,,,,,,,,,,,,,,,,,,,,,518.1135,519.3286,a,1,0.5368,,0.5368,1,519.3287,519.8287,,,,,,288,FEM,NOWORD,DIS,150,fosta,,el,,519.8288,519.829,-0.150546875,-0.019296875,0,0,0,,0,216,216,287,1,lista,,,,
,,,,,,,60f364780342181eb49b70d7,676192165fb32c2e1fb7aee6,67d1ab66e41611b45b4d2de5,2025-03-12_16h43.07.485,Tarea de decisión léxica,2024.2.5,MacIntel,59.88023952,,,,,,,,,,,,,,,,,,,,,,,519.8302,520.8292,l,1,0.3288,,0.3288,1,520.8293,521.3288,,,,,,167,FEM,WORD,DIS,150,jefa,,el,,521.329,521.3291,-0.150546875,-0.019296875,0,0,0,,0,217,217,166,1,zifa,,,,
,,,,,,,60f364780342181eb49b70d7,676192165fb32c2e1fb7aee6,67d1ab66e41611b45b4d2de5,2025-03-12_16h43.07.485,Tarea de decisión léxica,2024.2.5,MacIntel,59.88023952,,,,,,,,,,,,,,,,,,,,,,,521.3303,522.4615,l,1,0.4504,,0.4504,1,522.4616,522.9623,,,,,,407,FEM,WORD,AGR,150,cueva,,la,,522.9636,522.9646,-0.150546875,-0.019296875,0,0,0,,0,218,218,406,1,cauba,,,,
,,,,,,,60f364780342181eb49b70d7,676192165fb32c2e1fb7aee6,67d1ab66e41611b45b4d2de5,2025-03-12_16h43.07.485,Tarea de decisión léxica,2024.2.5,MacIntel,59.88023952,,,,,,,,,,,,,,,,,,,,,,,522.9656,523.979,a,1,0.3456,,0.3456,1,523.9791,524.479,,,,,,54,FEM,NOWORD,AGR,150,rora,,la,,524.4791,524.4792,-0.150546875,-0.019296875,0,0,0,,0,219,219,53,1,boda,,,,
,,,,,,,60f364780342181eb49b70d7,676192165fb32c2e1fb7aee6,67d1ab66e41611b45b4d2de5,2025-03-12_16h43.07.485,Tarea de decisión léxica,2024.2.5,MacIntel,59.88023952,,,,,,,,,,,,,,,,,,,,,,,524.4805,525.4956,l,1,0.3339,,0.3339,1,525.4957,525.9958,,,,,,179,MAS,WORD,DIS,150,toro,,la,,525.9959,525.9961,-0.150546875,-0.019296875,0,0,0,,0,220,220,178,1,sono,,,,
,,,,,,,60f364780342181eb49b70d7,676192165fb32c2e1fb7aee6,67d1ab66e41611b45b4d2de5,2025-03-12_16h43.07.485,Tarea de decisión léxica,2024.2.5,MacIntel,59.88023952,,,,,,,,,,,,,,,,,,,,,,,525.9974,526.9957,l,1,0.3174,,0.3174,1,526.9958,527.4958,,,,,,405,FEM,WORD,DIS,150,barra,,el,,527.496,527.4961,-0.150546875,-0.019296875,0,0,0,,0,221,221,404,1,rarra,,,,
,,,,,,,60f364780342181eb49b70d7,676192165fb32c2e1fb7aee6,67d1ab66e41611b45b4d2de5,2025-03-12_16h43.07.485,Tarea de decisión léxica,2024.2.5,MacIntel,59.88023952,,,,,,,,,,,,,,,,,,,,,,,527.4974,528.479,l,1,0.3055,,0.3055,1,528.4791,528.9793,,,,,,79,FEM,WORD,DIS,150,piel,,el,,528.9793,528.9796,-0.150546875,-0.019296875,0,0,0,,0,222,222,78,1,ciel,,,,
,,,,,,,60f364780342181eb49b70d7,676192165fb32c2e1fb7aee6,67d1ab66e41611b45b4d2de5,2025-03-12_16h43.07.485,Tarea de decisión léxica,2024.2.5,MacIntel,59.88023952,,,,,,,,,,,,,,,,,,,,,,,528.9808,530.1297,l,1,0.4794,,0.4794,1,530.1299,530.6294,,,,,,297,MAS,WORD,DIS,150,grupo,,la,,530.6308,530.632,-0.150546875,-0.019296875,0,0,0,,0,223,223,296,1,brubo,,,,
,,,,,,,60f364780342181eb49b70d7,676192165fb32c2e1fb7aee6,67d1ab66e41611b45b4d2de5,2025-03-12_16h43.07.485,Tarea de decisión léxica,2024.2.5,MacIntel,59.88023952,,,,,,,,,,,,,,,,,,,,,,,530.633,531.6292,l,1,0.3157,,0.3157,1,531.6292,532.1293,,,,,,301,FEM,WORD,AGR,150,banda,,la,,532.1295,532.1296,-0.150546875,-0.019296875,0,0,0,,0,224,224,300,1,ranga,,,,
,,,,,,,60f364780342181eb49b70d7,676192165fb32c2e1fb7aee6,67d1ab66e41611b45b4d2de5,2025-03-12_16h43.07.485,Tarea de decisión léxica,2024.2.5,MacIntel,59.88023952,,,,,,,,,,,,,,,,,,,,,,,532.1308,533.1461,l,1,0.3335,,0.3335,1,533.1462,533.6461,,,,,,95,FEM,WORD,AGR,151,moda,,la,,533.6462,533.6464,-0.150546875,-0.019296875,0,0,0,,0,225,225,94,1,neda,,,,
,,,,,,,60f364780342181eb49b70d7,676192165fb32c2e1fb7aee6,67d1ab66e41611b45b4d2de5,2025-03-12_16h43.07.485,Tarea de decisión léxica,2024.2.5,MacIntel,59.88023952,,,,,,,,,,,,,,,,,,,,,,,533.6477,534.6129,l,1,0.2854,,0.2854,1,534.613,535.1129,,,,,,251,MAS,WORD,DIS,150,señor,,la,,535.113,535.1131,-0.150546875,-0.019296875,0,0,0,,0,226,226,250,1,refor,,,,
,,,,,,,60f364780342181eb49b70d7,676192165fb32c2e1fb7aee6,67d1ab66e41611b45b4d2de5,2025-03-12_16h43.07.485,Tarea de decisión léxica,2024.2.5,MacIntel,59.88023952,,,,,,,,,,,,,,,,,,,,,,,535.1145,536.0629,l,1,0.2713,,0.2713,1,536.0631,536.5631,,,,,,189,MAS,WORD,AGR,150,puño,,el,,536.5643,536.5655,-0.150546875,-0.019296875,0,0,0,,0,227,227,188,1,muvo,,,,
,,,,,,,60f364780342181eb49b70d7,676192165fb32c2e1fb7aee6,67d1ab66e41611b45b4d2de5,2025-03-12_16h43.07.485,Tarea de decisión léxica,2024.2.5,MacIntel,59.88023952,,,,,,,,,,,,,,,,,,,,,,,536.5664,537.6633,a,1,0.4293,,0.4293,1,537.6634,538.1631,,,,,,196,FEM,NOWORD,DIS,150,sira,,el,,538.1631,538.1633,-0.150546875,-0.019296875,0,0,0,,0,228,228,195,1,tela,,,,
,,,,,,,60f364780342181eb49b70d7,676192165fb32c2e1fb7aee6,67d1ab66e41611b45b4d2de5,2025-03-12_16h43.07.485,Tarea de decisión léxica,2024.2.5,MacIntel,59.88023952,,,,,,,,,,,,,,,,,,,,,,,538.1646,539.313,a,1,0.4664,,0.4664,1,539.3132,539.8132,,,,,,178,MAS,NOWORD,AGR,150,bito,,el,,539.8133,539.8135,-0.150546875,-0.019296875,0,0,0,,0,229,229,177,1,reto,,,,
,,,,,,,60f364780342181eb49b70d7,676192165fb32c2e1fb7aee6,67d1ab66e41611b45b4d2de5,2025-03-12_16h43.07.485,Tarea de decisión léxica,2024.2.5,MacIntel,59.88023952,,,,,,,,,,,,,,,,,,,,,,,539.8146,540.8464,a,1,0.3541,,0.3541,1,540.8465,541.3465,,,,,,300,FEM,NOWORD,DIS,150,bosga,,el,,541.3466,541.3469,-0.150546875,-0.019296875,0,0,0,,0,230,230,299,1,bolsa,,,,
,,,,,,,60f364780342181eb49b70d7,676192165fb32c2e1fb7aee6,67d1ab66e41611b45b4d2de5,2025-03-12_16h43.07.485,Tarea de decisión léxica,2024.2.5,MacIntel,59.88023952,,,,,,,,,,,,,,,,,,,,,,,541.3485,542.33,l,1,0.3041,,0.3041,1,542.3301,542.83,,,,,,45,FEM,WORD,DIS,150,mesa,,el,,542.8301,542.8302,-0.150546875,-0.019296875,0,0,0,,0,231,231,44,1,pema,,,,
,,,,,,,60f364780342181eb49b70d7,676192165fb32c2e1fb7aee6,67d1ab66e41611b45b4d2de5,2025-03-12_16h43.07.485,Tarea de decisión léxica,2024.2.5,MacIntel,59.88023952,,,,,,,,,,,,,,,,,,,,,,,542.8314,543.9634,l,1,0.4626,,0.4626,1,543.9635,544.4634,,,,,,135,MAS,WORD,DIS,150,tubo,,la,,544.4647,544.4657,-0.150546875,-0.019296875,0,0,0,,0,232,232,134,1,geso,,,,
,,,,,,,60f364780342181eb49b70d7,676192165fb32c2e1fb7aee6,67d1ab66e41611b45b4d2de5,2025-03-12_16h43.07.485,Tarea de decisión léxica,2024.2.5,MacIntel,59.88023952,,,,,,,,,,,,,,,,,,,,,,,544.4667,545.4967,a,1,0.362,,0.362,1,545.4968,545.9969,,,,,,456,MAS,NOWORD,DIS,150,riaso,,la,,545.9969,545.9971,-0.150546875,-0.019296875,0,0,0,,0,233,233,455,1,reino,,,,
,,,,,,,60f364780342181eb49b70d7,676192165fb32c2e1fb7aee6,67d1ab66e41611b45b4d2de5,2025-03-12_16h43.07.485,Tarea de decisión léxica,2024.2.5,MacIntel,59.88023952,,,,,,,,,,,,,,,,,,,,,,,545.9982,547.0467,a,1,0.3671,,0.3671,1,547.0468,547.5467,,,,,,472,FEM,NOWORD,DIS,150,prana,,el,,547.5468,547.5471,-0.150546875,-0.019296875,0,0,0,,0,234,234,471,1,grasa,,,,
,,,,,,,60f364780342181eb49b70d7,676192165fb32c2e1fb7aee6,67d1ab66e41611b45b4d2de5,2025-03-12_16h43.07.485,Tarea de decisión léxica,2024.2.5,MacIntel,59.88023952,,,,,,,,,,,,,,,,,,,,,,,547.5484,548.5639,l,1,0.346,,0.346,1,548.564,549.0636,,,,,,33,FEM,WORD,AGR,150,boca,,la,,549.0637,549.064,-0.150546875,-0.019296875,0,0,0,,0,235,235,32,1,loda,,,,
,,,,,,,60f364780342181eb49b70d7,676192165fb32c2e1fb7aee6,67d1ab66e41611b45b4d2de5,2025-03-12_16h43.07.485,Tarea de decisión léxica,2024.2.5,MacIntel,59.88023952,,,,,,,,,,,,,,,,,,,,,,,549.0653,550.3801,a,1,0.6339,,0.6339,1,550.3803,550.8803,,,,,,418,FEM,NOWORD,AGR,150,banja,,la,,550.8804,550.8806,-0.150546875,-0.019296875,0,0,0,,0,236,236,417,1,barba,,,,
,,,,,,,60f364780342181eb49b70d7,676192165fb32c2e1fb7aee6,67d1ab66e41611b45b4d2de5,2025-03-12_16h43.07.485,Tarea de decisión léxica,2024.2.5,MacIntel,59.88023952,,,,,,,,,,,,,,,,,,,,,,,550.8818,551.947,l,1,0.3862,,0.3862,1,551.9472,552.4471,,,,,,429,FEM,WORD,AGR,150,tarta,,la,,552.4483,552.4494,-0.150546875,-0.019296875,0,0,0,,0,237,237,428,1,tenta,,,,
,,,,,,,60f364780342181eb49b70d7,676192165fb32c2e1fb7aee6,67d1ab66e41611b45b4d2de5,2025-03-12_16h43.07.485,Tarea de decisión léxica,2024.2.5,MacIntel,59.88023952,,,,,,,,,,,,,,,,,,,,,,,552.4503,553.6473,a,1,0.5186,,0.5186,1,553.6475,554.1472,,,,,,204,FEM,NOWORD,DIS,150,beja,,el,,554.1473,554.1475,-0.150546875,-0.019296875,0,0,0,,0,238,238,203,1,leña,,,,
,,,,,,,60f364780342181eb49b70d7,676192165fb32c2e1fb7aee6,67d1ab66e41611b45b4d2de5,2025-03-12_16h43.07.485,Tarea de decisión léxica,2024.2.5,MacIntel,59.88023952,,,,,,,,,,,,,,,,,,,,,,,554.1487,555.2475,a,1,0.4294,,0.4294,1,555.2477,555.7473,,,,,,46,FEM,NOWORD,AGR,150,pema,,la,,555.7474,555.7476,-0.150546875,-0.019296875,0,0,0,,0,239,239,45,1,mesa,,,,
,,,,,,,60f364780342181eb49b70d7,676192165fb32c2e1fb7aee6,67d1ab66e41611b45b4d2de5,2025-03-12_16h43.07.485,Tarea de decisión léxica,2024.2.5,MacIntel,59.88023952,,,,,,,,,,,,,,,,,,,,,,,555.7487,556.7306,l,1,0.3005,,0.3005,1,556.7307,557.2307,,,,,,391,MAS,WORD,AGR,150,dueño,,el,,557.2308,557.2309,-0.150546875,-0.019296875,0,0,0,,0,240,240,390,1,dievo,,,,
,,,,,,,60f364780342181eb49b70d7,676192165fb32c2e1fb7aee6,67d1ab66e41611b45b4d2de5,2025-03-12_16h43.07.485,Tarea de decisión léxica,2024.2.5,MacIntel,59.88023952,,,,,,,,,,,,,,,,,,,,,,,557.2322,558.3135,l,1,0.4006,,0.4006,1,558.3136,558.8141,,,,,,363,FEM,WORD,DIS,150,deuda,,el,,558.8142,558.8144,-0.150546875,-0.019296875,0,0,0,,0,241,241,362,1,veida,,,,
,,,,,,,60f364780342181eb49b70d7,676192165fb32c2e1fb7aee6,67d1ab66e41611b45b4d2de5,2025-03-12_16h43.07.485,Tarea de decisión léxica,2024.2.5,MacIntel,59.88023952,,,,,,,,,,,,,,,,,,,,,,,558.8156,559.7973,a,1,0.3112,,0.3112,1,559.7974,560.2975,,,,,,6,FEM,NOWORD,AGR,150,poga,,la,,560.2989,560.2998,-0.150546875,-0.019296875,0,0,0,,0,242,242,5,1,cosa,,,,
,,,,,,,60f364780342181eb49b70d7,676192165fb32c2e1fb7aee6,67d1ab66e41611b45b4d2de5,2025-03-12_16h43.07.485,Tarea de decisión léxica,2024.2.5,MacIntel,59.88023952,,,,,,,,,,,,,,,,,,,,,,,560.3006,561.3807,a,1,0.4034,,0.4034,1,561.3808,561.8809,,,,,,192,FEM,NOWORD,DIS,150,bila,,el,,561.881,561.8811,-0.150546875,-0.019296875,0,0,0,,0,243,243,191,1,pila,,,,
,,,,,,,60f364780342181eb49b70d7,676192165fb32c2e1fb7aee6,67d1ab66e41611b45b4d2de5,2025-03-12_16h43.07.485,Tarea de decisión léxica,2024.2.5,MacIntel,59.88023952,,,,,,,,,,,,,,,,,,,,,,,561.8824,562.9309,a,1,0.3701,,0.3701,1,562.9311,563.431,,,,,,302,FEM,NOWORD,AGR,150,ranga,,la,,563.4311,563.4313,-0.150546875,-0.019296875,0,0,0,,0,244,244,301,1,banda,,,,
,,,,,,,60f364780342181eb49b70d7,676192165fb32c2e1fb7aee6,67d1ab66e41611b45b4d2de5,2025-03-12_16h43.07.485,Tarea de decisión léxica,2024.2.5,MacIntel,59.88023952,,,,,,,,,,,,,,,,,,,,,,,563.4325,564.498,a,1,0.3951,,0.3951,1,564.4982,564.9977,,,,,,440,FEM,NOWORD,DIS,150,prema,,el,,564.9979,564.998,-0.150546875,-0.019296875,0,0,0,,0,245,245,439,1,presa,,,,
,,,,,,,60f364780342181eb49b70d7,676192165fb32c2e1fb7aee6,67d1ab66e41611b45b4d2de5,2025-03-12_16h43.07.485,Tarea de decisión léxica,2024.2.5,MacIntel,59.88023952,,,,,,,,,,,,,,,,,,,,,,,564.9993,566.0643,l,1,0.3839,,0.3839,1,566.0644,566.5644,,,,,,277,MAS,WORD,DIS,150,fuego,,la,,566.5644,566.5647,-0.150546875,-0.019296875,0,0,0,,0,246,246,276,1,vuemo,,,,
,,,,,,,60f364780342181eb49b70d7,676192165fb32c2e1fb7aee6,67d1ab66e41611b45b4d2de5,2025-03-12_16h43.07.485,Tarea de decisión léxica,2024.2.5,MacIntel,59.88023952,,,,,,,,,,,,,,,,,,,,,,,566.5659,567.8316,l,0,0.596,,0.596,0,567.8328,568.3311,,,,,,292,FEM,NOWORD,DIS,150,mesta,,el,,568.3324,568.3335,-0.150546875,-0.019296875,0,0,0,,0,247,247,291,1,pista,,,,
,,,,,,,60f364780342181eb49b70d7,676192165fb32c2e1fb7aee6,67d1ab66e41611b45b4d2de5,2025-03-12_16h43.07.485,Tarea de decisión léxica,2024.2.5,MacIntel,59.88023952,,,,,,,,,,,,,,,,,,,,,,,568.3344,569.4979,a,1,0.4857,,0.4857,1,569.4991,569.9979,,,,,,264,FEM,NOWORD,DIS,150,dosta,,el,,569.998,569.9981,-0.150546875,-0.019296875,0,0,0,,0,248,248,263,1,vista,,,,
,,,,,,,60f364780342181eb49b70d7,676192165fb32c2e1fb7aee6,67d1ab66e41611b45b4d2de5,2025-03-12_16h43.07.485,Tarea de decisión léxica,2024.2.5,MacIntel,59.88023952,,,,,,,,,,,,,,,,,,,,,,,569.9994,570.9812,l,1,0.3012,,0.3012,1,570.9813,571.4814,,,,,,259,MAS,WORD,AGR,150,juego,,el,,571.4815,571.4817,-0.150546875,-0.019296875,0,0,0,,0,249,249,258,1,jaumo,,,,
,,,,,,,60f364780342181eb49b70d7,676192165fb32c2e1fb7aee6,67d1ab66e41611b45b4d2de5,2025-03-12_16h43.07.485,Tarea de decisión léxica,2024.2.5,MacIntel,59.88023952,,,,,,,,,,,,,,,,,,,,,,,571.4831,572.5645,a,1,0.4043,,0.4043,1,572.5646,573.0647,,,,,,428,FEM,NOWORD,DIS,150,oseva,,el,,573.0648,573.0651,-0.150546875,-0.019296875,0,0,0,,0,250,250,427,1,oreja,,,,
,,,,,,,60f364780342181eb49b70d7,676192165fb32c2e1fb7aee6,67d1ab66e41611b45b4d2de5,2025-03-12_16h43.07.485,Tarea de decisión léxica,2024.2.5,MacIntel,59.88023952,,,,,,,,,,,,,,,,,,,,,,,573.0663,574.2479,l,1,0.5106,,0.5106,1,574.248,574.7482,,,,,,217,MAS,WORD,DIS,150,luto,,la,,574.7496,574.7507,-0.150546875,-0.019296875,0,0,0,,0,251,251,216,1,budo,,,,
,,,,,,,60f364780342181eb49b70d7,676192165fb32c2e1fb7aee6,67d1ab66e41611b45b4d2de5,2025-03-12_16h43.07.485,Tarea de decisión léxica,2024.2.5,MacIntel,59.88023952,,,,,,,,,,,,,,,,,,,,,,,574.7516,575.7981,a,1,0.3695,,0.3695,1,575.7982,576.2982,,,,,,258,FEM,NOWORD,AGR,150,asama,,la,,576.2983,576.2985,-0.150546875,-0.019296875,0,0,0,,0,252,252,257,1,amiga,,,,
,,,,,,,60f364780342181eb49b70d7,676192165fb32c2e1fb7aee6,67d1ab66e41611b45b4d2de5,2025-03-12_16h43.07.485,Tarea de decisión léxica,2024.2.5,MacIntel,59.88023952,,,,,,,,,,,,,,,,,,,,,,,576.2998,577.3482,l,1,0.3672,,0.3672,1,577.3483,577.8483,,,,,,113,FEM,WORD,DIS,150,miel,,el,,577.8484,577.8486,-0.150546875,-0.019296875,0,0,0,,0,253,253,112,1,tada,,,,
,,,,,,,60f364780342181eb49b70d7,676192165fb32c2e1fb7aee6,67d1ab66e41611b45b4d2de5,2025-03-12_16h43.07.485,Tarea de decisión léxica,2024.2.5,MacIntel,59.88023952,,,,,,,,,,,,,,,,,,,,,,,577.8498,578.8644,l,1,0.3329,,0.3329,1,578.8645,579.365,,,,,,205,FEM,WORD,DIS,150,rana,,el,,579.3651,579.3653,-0.150546875,-0.019296875,0,0,0,,0,254,254,204,1,bara,,,,
,,,,,,,60f364780342181eb49b70d7,676192165fb32c2e1fb7aee6,67d1ab66e41611b45b4d2de5,2025-03-12_16h43.07.485,Tarea de decisión léxica,2024.2.5,MacIntel,59.88023952,,,,,,,,,,,,,,,,,,,,,,,579.3665,580.3639,a,1,0.3226,,0.3226,1,580.364,580.8653,,,,,,256,MAS,NOWORD,DIS,150,mauco,,la,,580.8653,580.8655,-0.150546875,-0.019296875,0,0,0,,0,255,255,255,1,miedo,,,,
,,,,,,,60f364780342181eb49b70d7,676192165fb32c2e1fb7aee6,67d1ab66e41611b45b4d2de5,2025-03-12_16h43.07.485,Tarea de decisión léxica,2024.2.5,MacIntel,59.88023952,,,,,,,,,,,,,,,,,,,,,,,580.8668,581.9984,a,1,0.4496,,0.4496,1,581.9985,582.4975,,,,,,370,MAS,NOWORD,AGR,150,rioco,,el,,582.4989,582.4997,-0.150546875,-0.019296875,0,0,0,,0,256,256,369,1,ruido,,,,
,,,,,,,60f364780342181eb49b70d7,676192165fb32c2e1fb7aee6,67d1ab66e41611b45b4d2de5,2025-03-12_16h43.07.485,Tarea de decisión léxica,2024.2.5,MacIntel,59.88023952,,,,,,,,,,,,,,,,,,,,,,,582.5005,583.5308,l,1,0.3504,,0.3504,1,583.5309,584.0309,,,,,,249,FEM,WORD,DIS,150,clase,,el,,584.031,584.0311,-0.150546875,-0.019296875,0,0,0,,0,257,257,248,1,plane,,,,
,,,,,,,60f364780342181eb49b70d7,676192165fb32c2e1fb7aee6,67d1ab66e41611b45b4d2de5,2025-03-12_16h43.07.485,Tarea de decisión léxica,2024.2.5,MacIntel,59.88023952,,,,,,,,,,,,,,,,,,,,,,,584.0325,585.4654,l,0,0.7516,,0.7516,0,585.4664,585.9653,,,,,,422,MAS,NOWORD,AGR,150,griso,,el,,585.9654,585.9655,-0.150546875,-0.019296875,0,0,0,,0,258,258,421,1,primo,,,,
,,,,,,,60f364780342181eb49b70d7,676192165fb32c2e1fb7aee6,67d1ab66e41611b45b4d2de5,2025-03-12_16h43.07.485,Tarea de decisión léxica,2024.2.5,MacIntel,59.88023952,,,,,,,,,,,,,,,,,,,,,,,585.9667,586.9987,l,1,0.3626,,0.3626,1,586.9995,587.4987,,,,,,107,MAS,WORD,AGR,150,saco,,el,,587.4987,587.4988,-0.150546875,-0.019296875,0,0,0,,0,259,259,106,1,raot,,,,
