counterbalancing_condition,consent_prescreening.block_1/declare_consent,consent_prescreening.block_1/age_years,consent_prescreening.block_1/gender,consent_prescreening.block_1/language_disorder,consent_prescreening.block_1/first_language,PROLIFIC_PID,STUDY_ID,SESSION_ID,date,expName,psychopyVersion,OS,frameRate,check_prescreening_answers.started,check_prescreening_answers.stopped,Instructions.started,Instructions.stopped,instr_done_keyboard.keys,instr_done_keyboard.rt,instr_done_keyboard.duration,instr_done_touch.x,instr_done_touch.y,instr_done_touch.leftButton,instr_done_touch.midButton,instr_done_touch.rightButton,instruction_pages.thisRepN,instruction_pages.thisTrialN,instruction_pages.thisN,instruction_pages.thisIndex,instruction_pages.ran,pageN,phase,instruct_text,has_image,instruct_image,presentTrial.started,presentTrial.stopped,response.keys,response.corr,rt,corr,feedback.started,feedback.stopped,practice_trials.thisRepN,practice_trials.thisTrialN,practice_trials.thisN,practice_trials.thisIndex,practice_trials.ran,TrialID,Gender,StimulusType,Condition,PrimeDuration,Prime,len,Flanker,corrAns,response.rt,response.duration,Break.started,Break.stopped,break_done_touch.x,break_done_touch.y,break_done_touch.leftButton,break_done_touch.midButton,break_done_touch.rightButton,break_done_keyboard.keys,experiment_trials.thisRepN,experiment_trials.thisTrialN,experiment_trials.thisN,experiment_trials.thisIndex,experiment_trials.ran,PairedWith,break_done_keyboard.rt,break_done_keyboard.duration,End.started,End.stopped
3,"[""over_18"",""comfortable"",""read_info"",""consent_given""]",39,M,"[""none""]","[""spanish""]",61230876ad65890ff8619511,676192165fb32c2e1fb7aee6,67d17260ebfde88d705806a2,2025-03-12_05h44.46.720,Tarea de decisión léxica,2024.2.5,Win32,59.95203837,,,,,,,,,,,,,,,,,,,,,,,,,,,,,,,,,,,,,,,,,,,,,,,,,,,,,,,,,,,,,,,,
,,,,,,61230876ad65890ff8619511,676192165fb32c2e1fb7aee6,67d17260ebfde88d705806a2,2025-03-12_05h44.46.720,Tarea de decisión léxica,2024.2.5,Win32,59.95203837,47.216,47.216,,,,,,,,,,,,,,,,,,,,,,,,,,,,,,,,,,,,,,,,,,,,,,,,,,,,,,,,,,,,,,
,,,,,,61230876ad65890ff8619511,676192165fb32c2e1fb7aee6,67d17260ebfde88d705806a2,2025-03-12_05h44.46.720,Tarea de decisión léxica,2024.2.5,Win32,59.95203837,,,47.246,62.117,space,14.706,,-0.047222208,-0.364814829,0,0,0,0,0,0,0,1,1,instructions,"INSTRUCCIONES
Va a realizar una prueba de decisión léxica. Desde el comienzo de la prueba mire siempre al centro de la pantalla. Se presentará una serie de cadenas de letras, una a la vez, en la pantalla. Su tarea consiste en determinar si cada cadena de letras constituye una palabra real en español o una no-palabra (una secuencia de letras que no constituye una palabra real). 

Pulse la tecla ESPACIO para continuar.",0,keyboardresponseWN.png,,,,,,,,,,,,,,,,,,,,,,,,,,,,,,,,,,,,,,,,,,
,,,,,,61230876ad65890ff8619511,676192165fb32c2e1fb7aee6,67d17260ebfde88d705806a2,2025-03-12_05h44.46.720,Tarea de decisión léxica,2024.2.5,Win32,59.95203837,,,62.122,75.318,space,13.141,,-0.047222208,-0.364814829,0,0,0,0,1,1,1,1,2,instructions,"El procedimiento es el siguiente: Aparecerán dos barras verticales posicionadas en el centro de la pantalla, separadas por un pequeño espacio.Por favor, enfoque su atención en el espacio entre las barras. Esto preparará sus ojos para la siguiente cadena de letras, que aparecerá entre las dos barras durante un instante.

Pulse la tecla ESPACIO para continuar.",0,keyboardresponseWN.png,,,,,,,,,,,,,,,,,,,,,,,,,,,,,,,,,,,,,,,,,,
,,,,,,61230876ad65890ff8619511,676192165fb32c2e1fb7aee6,67d17260ebfde88d705806a2,2025-03-12_05h44.46.720,Tarea de decisión léxica,2024.2.5,Win32,59.95203837,,,75.321,87.236,space,11.792,,-0.047222208,-0.364814829,0,0,0,0,2,2,2,1,3,instructions,"En el teclado de su dispositivo, pulse la tecla ""A"" si la cadena de letras es una palabra real en español (por ejemplo: ""mano"") y la tecla ""L"" si la cadena de letras es una no-palabra (por ejemplo: ""minu"").
Pulse la tecla ESPACIO para continuar.",1,keyboardresponseWN.png,,,,,,,,,,,,,,,,,,,,,,,,,,,,,,,,,,,,,,,,,,
,,,,,,61230876ad65890ff8619511,676192165fb32c2e1fb7aee6,67d17260ebfde88d705806a2,2025-03-12_05h44.46.720,Tarea de decisión léxica,2024.2.5,Win32,59.95203837,,,87.243,96.27,space,8.985,,-0.047222208,-0.364814829,0,0,0,0,3,3,3,1,4,instructions,"Es muy importante que responda con la mayor rapidez y precisión posibles. Si no responde dentro de 2 segundos, aparecerá el mensaje ""Muy lento"" y el experimento pasará a la siguiente palabra. Inmediatamente después de su respuesta se indicará si fue correcta o no. Los primeros 15 intentos serán de práctica y habrá dos descansos durante la prueba.

Pulse la tecla ESPACIO  para iniciar la parte de práctica.",0,keyboardresponseWN.png,,,,,,,,,,,,,,,,,,,,,,,,,,,,,,,,,,,,,,,,,,
,,,,,,61230876ad65890ff8619511,676192165fb32c2e1fb7aee6,67d17260ebfde88d705806a2,2025-03-12_05h44.46.720,Tarea de decisión léxica,2024.2.5,Win32,59.95203837,,,,,,,,,,,,,,,,,,,,,,,96.305,98.952,,0,,-1,98.953,99.452,0,0,0,8,1,1009,FEM,WORD,AGR,150,viejo,5,la,l,,,,,,,,,,,,,,,,,,,,
,,,,,,61230876ad65890ff8619511,676192165fb32c2e1fb7aee6,67d17260ebfde88d705806a2,2025-03-12_05h44.46.720,Tarea de decisión léxica,2024.2.5,Win32,59.95203837,,,,,,,,,,,,,,,,,,,,,,,99.455,101.386,a,0,1.274,0,101.391,101.885,0,1,1,2,1,1003,FEM,NOWORD,DIS,150,muvor,5,el,a,1.274,,,,,,,,,,,,,,,,,,,
,,,,,,61230876ad65890ff8619511,676192165fb32c2e1fb7aee6,67d17260ebfde88d705806a2,2025-03-12_05h44.46.720,Tarea de decisión léxica,2024.2.5,Win32,59.95203837,,,,,,,,,,,,,,,,,,,,,,,101.887,103.603,a,1,1.031,1,103.604,104.104,0,2,2,6,1,1007,MAS,WORD,DIS,150,masa,4,la,l,1.031,,,,,,,,,,,,,,,,,,,
,,,,,,61230876ad65890ff8619511,676192165fb32c2e1fb7aee6,67d17260ebfde88d705806a2,2025-03-12_05h44.46.720,Tarea de decisión léxica,2024.2.5,Win32,59.95203837,,,,,,,,,,,,,,,,,,,,,,,104.106,105.568,l,1,0.785,1,105.569,106.068,0,3,3,4,1,1005,MAS,NOWORD,DIS,150,nobad,5,la,a,0.785,,,,,,,,,,,,,,,,,,,
,,,,,,61230876ad65890ff8619511,676192165fb32c2e1fb7aee6,67d17260ebfde88d705806a2,2025-03-12_05h44.46.720,Tarea de decisión léxica,2024.2.5,Win32,59.95203837,,,,,,,,,,,,,,,,,,,,,,,106.07,107.519,l,1,0.776,1,107.519,108.019,0,4,4,1,1,1002,FEM,NOWORD,DIS,150,mabo,4,el,a,0.776,,,,,,,,,,,,,,,,,,,
,,,,,,61230876ad65890ff8619511,676192165fb32c2e1fb7aee6,67d17260ebfde88d705806a2,2025-03-12_05h44.46.720,Tarea de decisión léxica,2024.2.5,Win32,59.95203837,,,,,,,,,,,,,,,,,,,,,,,108.021,109.352,l,1,0.651,1,109.353,109.853,0,5,5,0,1,1001,FEM,NOWORD,AGR,150,croz,4,la,a,0.651,,,,,,,,,,,,,,,,,,,
,,,,,,61230876ad65890ff8619511,676192165fb32c2e1fb7aee6,67d17260ebfde88d705806a2,2025-03-12_05h44.46.720,Tarea de decisión léxica,2024.2.5,Win32,59.95203837,,,,,,,,,,,,,,,,,,,,,,,109.857,111.536,a,1,1.007,1,111.537,112.035,0,6,6,9,1,1010,MAS,WORD,DIS,150,video,5,la,l,1.007,,,,,,,,,,,,,,,,,,,
,,,,,,61230876ad65890ff8619511,676192165fb32c2e1fb7aee6,67d17260ebfde88d705806a2,2025-03-12_05h44.46.720,Tarea de decisión léxica,2024.2.5,Win32,59.95203837,,,,,,,,,,,,,,,,,,,,,,,112.037,113.303,a,1,0.585,1,113.303,113.803,0,7,7,7,1,1008,MAS,WORD,DIS,150,frío,4,la,l,0.585,,,,,,,,,,,,,,,,,,,
,,,,,,61230876ad65890ff8619511,676192165fb32c2e1fb7aee6,67d17260ebfde88d705806a2,2025-03-12_05h44.46.720,Tarea de decisión léxica,2024.2.5,Win32,59.95203837,,,,,,,,,,,,,,,,,,,,,,,113.806,115.235,l,1,0.751,1,115.237,115.737,0,8,8,3,1,1004,FEM,NOWORD,AGR,150,bireo,5,la,a,0.751,,,,,,,,,,,,,,,,,,,
,,,,,,61230876ad65890ff8619511,676192165fb32c2e1fb7aee6,67d17260ebfde88d705806a2,2025-03-12_05h44.46.720,Tarea de decisión léxica,2024.2.5,Win32,59.95203837,,,,,,,,,,,,,,,,,,,,,,,115.741,117.22,a,1,0.8,1,117.22,117.718,0,9,9,5,1,1006,FEM,WORD,AGR,150,cara,4,la,l,0.8,,,,,,,,,,,,,,,,,,,
,,,,,,61230876ad65890ff8619511,676192165fb32c2e1fb7aee6,67d17260ebfde88d705806a2,2025-03-12_05h44.46.720,Tarea de decisión léxica,2024.2.5,Win32,59.95203837,,,125.038,129.776,space,4.695,,-0.040740755,-0.39907406,0,0,0,,,,,,,,,,,129.848,131.186,a,1,0.666,1,131.187,131.686,,,,,,383,FEM,WORD,DIS,150,frase,,el,,0.666,,131.686,131.692,-0.040740755,-0.39907406,0,0,0,,0,0,0,382,1,brame,,,,
,,,,,,61230876ad65890ff8619511,676192165fb32c2e1fb7aee6,67d17260ebfde88d705806a2,2025-03-12_05h44.46.720,Tarea de decisión léxica,2024.2.5,Win32,59.95203837,,,,,,,,,,,,,,,,,,,,,,,131.694,132.886,l,1,0.517,1,132.886,133.386,,,,,,386,FEM,NOWORD,AGR,150,febra,,la,,0.517,,133.386,133.386,-0.041666667,-0.401851866,0,0,0,,0,1,1,385,1,letra,,,,
,,,,,,61230876ad65890ff8619511,676192165fb32c2e1fb7aee6,67d17260ebfde88d705806a2,2025-03-12_05h44.46.720,Tarea de decisión léxica,2024.2.5,Win32,59.95203837,,,,,,,,,,,,,,,,,,,,,,,133.387,134.827,a,1,0.752,1,134.827,135.319,,,,,,259,MAS,WORD,DIS,150,juego,,la,,0.752,,135.321,135.323,-0.042592578,-0.402777778,0,0,0,,0,2,2,258,1,jaumo,,,,
,,,,,,61230876ad65890ff8619511,676192165fb32c2e1fb7aee6,67d17260ebfde88d705806a2,2025-03-12_05h44.46.720,Tarea de decisión léxica,2024.2.5,Win32,59.95203837,,,,,,,,,,,,,,,,,,,,,,,135.325,136.503,a,1,0.502,1,136.503,137.002,,,,,,467,MAS,WORD,DIS,150,piano,,la,,0.502,,137.003,137.003,-0.04351849,-0.402777778,0,0,0,,0,3,3,466,1,peiso,,,,
,,,,,,61230876ad65890ff8619511,676192165fb32c2e1fb7aee6,67d17260ebfde88d705806a2,2025-03-12_05h44.46.720,Tarea de decisión léxica,2024.2.5,Win32,59.95203837,,,,,,,,,,,,,,,,,,,,,,,137.004,138.186,a,1,0.517,1,138.186,138.686,,,,,,203,FEM,WORD,DIS,150,leña,,el,,0.517,,138.686,138.687,-0.044444473,-0.402777778,0,0,0,,0,4,4,202,1,beja,,,,
,,,,,,61230876ad65890ff8619511,676192165fb32c2e1fb7aee6,67d17260ebfde88d705806a2,2025-03-12_05h44.46.720,Tarea de decisión léxica,2024.2.5,Win32,59.95203837,,,,,,,,,,,,,,,,,,,,,,,138.688,139.826,a,1,0.465,1,139.827,140.32,,,,,,105,FEM,WORD,AGR,150,sopa,,la,,0.465,,140.32,140.32,-0.046296296,-0.404629601,0,0,0,,0,5,5,104,1,vina,,,,
,,,,,,61230876ad65890ff8619511,676192165fb32c2e1fb7aee6,67d17260ebfde88d705806a2,2025-03-12_05h44.46.720,Tarea de decisión léxica,2024.2.5,Win32,59.95203837,,,,,,,,,,,,,,,,,,,,,,,140.325,141.586,l,1,0.585,1,141.586,142.085,,,,,,124,FEM,NOWORD,DIS,150,maba,,el,,0.585,,142.086,142.086,-0.046296296,-0.404629601,0,0,0,,0,6,6,123,1,flor,,,,
,,,,,,61230876ad65890ff8619511,676192165fb32c2e1fb7aee6,67d17260ebfde88d705806a2,2025-03-12_05h44.46.720,Tarea de decisión léxica,2024.2.5,Win32,59.95203837,,,,,,,,,,,,,,,,,,,,,,,142.088,143.437,a,0,0.688,0,143.438,143.937,,,,,,342,MAS,NOWORD,AGR,150,daror,,el,,0.688,,143.939,143.941,-0.046296296,-0.404629601,0,0,0,,0,7,7,341,1,valor,,,,
,,,,,,61230876ad65890ff8619511,676192165fb32c2e1fb7aee6,67d17260ebfde88d705806a2,2025-03-12_05h44.46.720,Tarea de decisión léxica,2024.2.5,Win32,59.95203837,,,,,,,,,,,,,,,,,,,,,,,143.943,145.17,l,1,0.552,1,145.171,145.669,,,,,,346,FEM,NOWORD,AGR,150,anera,,la,,0.552,,145.669,145.67,-0.046296296,-0.404629601,0,0,0,,0,8,8,345,1,arena,,,,
,,,,,,61230876ad65890ff8619511,676192165fb32c2e1fb7aee6,67d17260ebfde88d705806a2,2025-03-12_05h44.46.720,Tarea de decisión léxica,2024.2.5,Win32,59.95203837,,,,,,,,,,,,,,,,,,,,,,,145.672,147.07,l,1,0.727,1,147.07,147.569,,,,,,402,MAS,NOWORD,AGR,150,pirvo,,el,,0.727,,147.569,147.569,-0.046296296,-0.405555584,0,0,0,,0,9,9,401,1,polvo,,,,
,,,,,,61230876ad65890ff8619511,676192165fb32c2e1fb7aee6,67d17260ebfde88d705806a2,2025-03-12_05h44.46.720,Tarea de decisión léxica,2024.2.5,Win32,59.95203837,,,,,,,,,,,,,,,,,,,,,,,147.571,148.771,l,1,0.537,1,148.772,149.271,,,,,,32,FEM,NOWORD,DIS,150,bova,,el,,0.537,,149.272,149.272,-0.046296296,-0.405555584,0,0,0,,0,10,10,31,1,ropa,,,,
,,,,,,61230876ad65890ff8619511,676192165fb32c2e1fb7aee6,67d17260ebfde88d705806a2,2025-03-12_05h44.46.720,Tarea de decisión léxica,2024.2.5,Win32,59.95203837,,,,,,,,,,,,,,,,,,,,,,,149.275,150.488,l,1,0.536,1,150.488,150.986,,,,,,338,MAS,NOWORD,AGR,150,nuejo,,el,,0.536,,150.987,150.989,-0.046296296,-0.405555584,0,0,0,,0,11,11,337,1,huevo,,,,
,,,,,,61230876ad65890ff8619511,676192165fb32c2e1fb7aee6,67d17260ebfde88d705806a2,2025-03-12_05h44.46.720,Tarea de decisión léxica,2024.2.5,Win32,59.95203837,,,,,,,,,,,,,,,,,,,,,,,150.991,152.355,l,1,0.683,1,152.355,152.853,,,,,,82,FEM,NOWORD,AGR,150,vasa,,la,,0.683,,152.853,152.853,-0.046296296,-0.405555584,0,0,0,,0,12,12,81,1,dama,,,,
,,,,,,61230876ad65890ff8619511,676192165fb32c2e1fb7aee6,67d17260ebfde88d705806a2,2025-03-12_05h44.46.720,Tarea de decisión léxica,2024.2.5,Win32,59.95203837,,,,,,,,,,,,,,,,,,,,,,,152.855,154.137,a,1,0.597,1,154.137,154.636,,,,,,109,MAS,WORD,AGR,150,rayo,,el,,0.597,,154.636,154.636,-0.046296296,-0.405555584,0,0,0,,0,13,13,108,1,suno,,,,
,,,,,,61230876ad65890ff8619511,676192165fb32c2e1fb7aee6,67d17260ebfde88d705806a2,2025-03-12_05h44.46.720,Tarea de decisión léxica,2024.2.5,Win32,59.95203837,,,,,,,,,,,,,,,,,,,,,,,154.638,155.837,a,1,0.517,1,155.837,156.337,,,,,,205,FEM,WORD,AGR,150,rana,,la,,0.517,,156.337,156.337,-0.046296296,-0.405555584,0,0,0,,0,14,14,204,1,bara,,,,
,,,,,,61230876ad65890ff8619511,676192165fb32c2e1fb7aee6,67d17260ebfde88d705806a2,2025-03-12_05h44.46.720,Tarea de decisión léxica,2024.2.5,Win32,59.95203837,,,,,,,,,,,,,,,,,,,,,,,156.338,157.72,l,1,0.701,1,157.722,158.22,,,,,,42,FEM,NOWORD,AGR,150,haje,,la,,0.701,,158.22,158.22,-0.046296296,-0.405555584,0,0,0,,0,15,15,41,1,nave,,,,
,,,,,,61230876ad65890ff8619511,676192165fb32c2e1fb7aee6,67d17260ebfde88d705806a2,2025-03-12_05h44.46.720,Tarea de decisión léxica,2024.2.5,Win32,59.95203837,,,,,,,,,,,,,,,,,,,,,,,158.223,159.588,l,1,0.696,1,159.588,160.091,,,,,,150,MAS,NOWORD,AGR,150,pafo,,el,,0.696,,160.092,160.094,-0.046296296,-0.405555584,0,0,0,,0,16,16,149,1,cabo,,,,
,,,,,,61230876ad65890ff8619511,676192165fb32c2e1fb7aee6,67d17260ebfde88d705806a2,2025-03-12_05h44.46.720,Tarea de decisión léxica,2024.2.5,Win32,59.95203837,,,,,,,,,,,,,,,,,,,,,,,160.095,161.322,l,1,0.552,1,161.322,161.82,,,,,,292,FEM,NOWORD,DIS,150,mesta,,el,,0.552,,161.82,161.82,-0.046296296,-0.405555584,0,0,0,,0,17,17,291,1,pista,,,,
,,,,,,61230876ad65890ff8619511,676192165fb32c2e1fb7aee6,67d17260ebfde88d705806a2,2025-03-12_05h44.46.720,Tarea de decisión léxica,2024.2.5,Win32,59.95203837,,,,,,,,,,,,,,,,,,,,,,,161.821,162.904,a,1,0.404,1,162.905,163.405,,,,,,33,FEM,WORD,AGR,150,boca,,la,,0.404,,163.406,163.406,-0.046296296,-0.405555584,0,0,0,,0,18,18,32,1,loda,,,,
,,,,,,61230876ad65890ff8619511,676192165fb32c2e1fb7aee6,67d17260ebfde88d705806a2,2025-03-12_05h44.46.720,Tarea de decisión léxica,2024.2.5,Win32,59.95203837,,,,,,,,,,,,,,,,,,,,,,,163.407,164.894,a,0,0.809,0,164.895,165.387,,,,,,112,MAS,NOWORD,DIS,150,siro,,la,,0.809,,165.387,165.387,-0.046296296,-0.405555584,0,0,0,,0,19,19,111,1,muro,,,,
,,,,,,61230876ad65890ff8619511,676192165fb32c2e1fb7aee6,67d17260ebfde88d705806a2,2025-03-12_05h44.46.720,Tarea de decisión léxica,2024.2.5,Win32,59.95203837,,,,,,,,,,,,,,,,,,,,,,,165.389,166.627,l,1,0.566,1,166.628,167.12,,,,,,324,FEM,NOWORD,DIS,150,certa,,el,,0.566,,167.12,167.12,-0.046296296,-0.405555584,0,0,0,,0,20,20,323,1,cinta,,,,
,,,,,,61230876ad65890ff8619511,676192165fb32c2e1fb7aee6,67d17260ebfde88d705806a2,2025-03-12_05h44.46.720,Tarea de decisión léxica,2024.2.5,Win32,59.95203837,,,,,,,,,,,,,,,,,,,,,,,167.123,168.254,a,1,0.46,1,168.254,168.755,,,,,,11,MAS,WORD,DIS,150,lado,,la,,0.46,,168.758,168.76,-0.046296296,-0.405555584,0,0,0,,0,21,21,10,1,bapo,,,,
,,,,,,61230876ad65890ff8619511,676192165fb32c2e1fb7aee6,67d17260ebfde88d705806a2,2025-03-12_05h44.46.720,Tarea de decisión léxica,2024.2.5,Win32,59.95203837,,,,,,,,,,,,,,,,,,,,,,,168.764,170.076,l,1,0.645,1,170.076,170.571,,,,,,140,MAS,NOWORD,DIS,150,nila,,la,,0.645,,170.571,170.572,-0.046296296,-0.405555584,0,0,0,,0,22,22,139,1,mago,,,,
,,,,,,61230876ad65890ff8619511,676192165fb32c2e1fb7aee6,67d17260ebfde88d705806a2,2025-03-12_05h44.46.720,Tarea de decisión léxica,2024.2.5,Win32,59.95203837,,,,,,,,,,,,,,,,,,,,,,,170.577,172.123,a,1,0.879,1,172.123,172.62,,,,,,225,MAS,WORD,AGR,150,lodo,,el,,0.879,,172.62,172.62,-0.046296296,-0.405555584,0,0,0,,0,23,23,224,1,boco,,,,
,,,,,,61230876ad65890ff8619511,676192165fb32c2e1fb7aee6,67d17260ebfde88d705806a2,2025-03-12_05h44.46.720,Tarea de decisión léxica,2024.2.5,Win32,59.95203837,,,,,,,,,,,,,,,,,,,,,,,172.622,173.921,a,1,0.642,1,173.921,174.42,,,,,,29,MAS,WORD,AGR,150,modo,,el,,0.642,,174.42,174.42,-0.046296296,-0.405555584,0,0,0,,0,24,24,28,1,pono,,,,
,,,,,,61230876ad65890ff8619511,676192165fb32c2e1fb7aee6,67d17260ebfde88d705806a2,2025-03-12_05h44.46.720,Tarea de decisión léxica,2024.2.5,Win32,59.95203837,,,,,,,,,,,,,,,,,,,,,,,174.422,175.654,l,0,0.557,0,175.656,176.156,,,,,,213,FEM,WORD,AGR,150,rama,,la,,0.557,,176.156,176.157,-0.046296296,-0.405555584,0,0,0,,0,25,25,212,1,bana,,,,
,,,,,,61230876ad65890ff8619511,676192165fb32c2e1fb7aee6,67d17260ebfde88d705806a2,2025-03-12_05h44.46.720,Tarea de decisión léxica,2024.2.5,Win32,59.95203837,,,,,,,,,,,,,,,,,,,,,,,176.158,177.522,a,1,0.682,1,177.524,178.022,,,,,,255,MAS,WORD,DIS,150,miedo,,la,,0.682,,178.025,178.028,-0.046296296,-0.405555584,0,0,0,,0,26,26,254,1,mauco,,,,
,,,,,,61230876ad65890ff8619511,676192165fb32c2e1fb7aee6,67d17260ebfde88d705806a2,2025-03-12_05h44.46.720,Tarea de decisión léxica,2024.2.5,Win32,59.95203837,,,,,,,,,,,,,,,,,,,,,,,178.03,179.221,l,1,0.526,1,179.222,179.721,,,,,,160,MAS,NOWORD,DIS,150,bilo,,la,,0.526,,179.722,179.722,-0.046296296,-0.405555584,0,0,0,,0,27,27,159,1,giro,,,,
,,,,,,61230876ad65890ff8619511,676192165fb32c2e1fb7aee6,67d17260ebfde88d705806a2,2025-03-12_05h44.46.720,Tarea de decisión léxica,2024.2.5,Win32,59.95203837,,,,,,,,,,,,,,,,,,,,,,,179.722,181.071,a,1,0.672,1,181.071,181.573,,,,,,389,MAS,WORD,AGR,150,cerdo,,el,,0.672,,181.573,181.574,-0.046296296,-0.405555584,0,0,0,,0,28,28,388,1,cenco,,,,
,,,,,,61230876ad65890ff8619511,676192165fb32c2e1fb7aee6,67d17260ebfde88d705806a2,2025-03-12_05h44.46.720,Tarea de decisión léxica,2024.2.5,Win32,59.95203837,,,,,,,,,,,,,,,,,,,,,,,181.575,182.756,a,1,0.506,1,182.756,183.239,,,,,,257,FEM,WORD,AGR,150,amiga,,la,,0.506,,183.239,183.239,-0.046296296,-0.405555584,0,0,0,,0,29,29,256,1,asama,,,,
,,,,,,61230876ad65890ff8619511,676192165fb32c2e1fb7aee6,67d17260ebfde88d705806a2,2025-03-12_05h44.46.720,Tarea de decisión léxica,2024.2.5,Win32,59.95203837,,,,,,,,,,,,,,,,,,,,,,,183.24,184.389,a,1,0.469,1,184.391,184.874,,,,,,443,MAS,WORD,DIS,150,salón,,la,,0.469,,184.874,184.874,-0.046296296,-0.405555584,0,0,0,,0,30,30,442,1,taron,,,,
,,,,,,61230876ad65890ff8619511,676192165fb32c2e1fb7aee6,67d17260ebfde88d705806a2,2025-03-12_05h44.46.720,Tarea de decisión léxica,2024.2.5,Win32,59.95203837,,,,,,,,,,,,,,,,,,,,,,,184.876,186.087,a,1,0.541,1,186.087,186.587,,,,,,459,MAS,WORD,DIS,150,grado,,la,,0.541,,186.589,186.589,-0.046296296,-0.405555584,0,0,0,,0,31,31,458,1,fraco,,,,
,,,,,,61230876ad65890ff8619511,676192165fb32c2e1fb7aee6,67d17260ebfde88d705806a2,2025-03-12_05h44.46.720,Tarea de decisión léxica,2024.2.5,Win32,59.95203837,,,,,,,,,,,,,,,,,,,,,,,186.59,187.905,l,1,0.644,1,187.906,188.405,,,,,,308,MAS,NOWORD,DIS,150,holol,,la,,0.644,,188.405,188.405,-0.046296296,-0.405555584,0,0,0,,0,32,32,307,1,hotel,,,,
,,,,,,61230876ad65890ff8619511,676192165fb32c2e1fb7aee6,67d17260ebfde88d705806a2,2025-03-12_05h44.46.720,Tarea de decisión léxica,2024.2.5,Win32,59.95203837,,,,,,,,,,,,,,,,,,,,,,,188.407,189.805,l,1,0.698,1,189.805,190.307,,,,,,18,FEM,NOWORD,AGR,150,paba,,la,,0.698,,190.307,190.308,-0.046296296,-0.405555584,0,0,0,,0,33,33,17,1,mamá,,,,
,,,,,,61230876ad65890ff8619511,676192165fb32c2e1fb7aee6,67d17260ebfde88d705806a2,2025-03-12_05h44.46.720,Tarea de decisión léxica,2024.2.5,Win32,59.95203837,,,,,,,,,,,,,,,,,,,,,,,190.31,191.856,a,1,0.868,1,191.856,192.345,,,,,,435,MAS,WORD,DIS,150,ritmo,,la,,0.868,,192.345,192.346,-0.046296296,-0.405555584,0,0,0,,0,34,34,434,1,ricno,,,,
,,,,,,61230876ad65890ff8619511,676192165fb32c2e1fb7aee6,67d17260ebfde88d705806a2,2025-03-12_05h44.46.720,Tarea de decisión léxica,2024.2.5,Win32,59.95203837,,,,,,,,,,,,,,,,,,,,,,,192.348,193.707,l,0,0.689,0,193.709,194.206,,,,,,161,MAS,WORD,AGR,150,coro,,el,,0.689,,194.209,194.211,-0.046296296,-0.405555584,0,0,0,,0,35,35,160,1,bopo,,,,
,,,,,,61230876ad65890ff8619511,676192165fb32c2e1fb7aee6,67d17260ebfde88d705806a2,2025-03-12_05h44.46.720,Tarea de decisión léxica,2024.2.5,Win32,59.95203837,,,,,,,,,,,,,,,,,,,,,,,194.213,195.539,l,0,0.656,0,195.539,196.038,,,,,,307,MAS,WORD,DIS,150,hotel,,la,,0.656,,196.038,196.038,-0.046296296,-0.405555584,0,0,0,,0,36,36,306,1,holol,,,,
,,,,,,61230876ad65890ff8619511,676192165fb32c2e1fb7aee6,67d17260ebfde88d705806a2,2025-03-12_05h44.46.720,Tarea de decisión léxica,2024.2.5,Win32,59.95203837,,,,,,,,,,,,,,,,,,,,,,,196.04,197.456,l,1,0.736,1,197.459,197.955,,,,,,446,MAS,NOWORD,AGR,150,ascor,,el,,0.736,,197.956,197.956,-0.046296296,-0.405555584,0,0,0,,0,37,37,445,1,actor,,,,
,,,,,,61230876ad65890ff8619511,676192165fb32c2e1fb7aee6,67d17260ebfde88d705806a2,2025-03-12_05h44.46.720,Tarea de decisión léxica,2024.2.5,Win32,59.95203837,,,,,,,,,,,,,,,,,,,,,,,197.958,199.488,a,0,0.852,0,199.489,199.992,,,,,,246,FEM,NOWORD,AGR,150,pafle,,la,,0.852,,199.992,199.992,-0.046296296,-0.405555584,0,0,0,,0,38,38,245,1,madre,,,,
,,,,,,61230876ad65890ff8619511,676192165fb32c2e1fb7aee6,67d17260ebfde88d705806a2,2025-03-12_05h44.46.720,Tarea de decisión léxica,2024.2.5,Win32,59.95203837,,,,,,,,,,,,,,,,,,,,,,,199.993,201.655,l,1,0.984,1,201.658,202.155,,,,,,148,FEM,NOWORD,DIS,150,pama,,el,,0.984,,202.156,202.156,-0.046296296,-0.405555584,0,0,0,,0,39,39,147,1,hoja,,,,
,,,,,,61230876ad65890ff8619511,676192165fb32c2e1fb7aee6,67d17260ebfde88d705806a2,2025-03-12_05h44.46.720,Tarea de decisión léxica,2024.2.5,Win32,59.95203837,,,,,,,,,,,,,,,,,,,,,,,202.159,203.488,a,1,0.659,1,203.488,203.988,,,,,,147,FEM,WORD,DIS,150,hoja,,el,,0.659,,203.989,203.992,-0.046296296,-0.405555584,0,0,0,,0,40,40,146,1,pama,,,,
,,,,,,61230876ad65890ff8619511,676192165fb32c2e1fb7aee6,67d17260ebfde88d705806a2,2025-03-12_05h44.46.720,Tarea de decisión léxica,2024.2.5,Win32,59.95203837,,,,,,,,,,,,,,,,,,,,,,,203.993,205.522,l,1,0.856,1,205.522,206.022,,,,,,382,MAS,NOWORD,AGR,150,nusor,,el,,0.856,,206.022,206.023,-0.046296296,-0.405555584,0,0,0,,0,41,41,381,1,humor,,,,
,,,,,,61230876ad65890ff8619511,676192165fb32c2e1fb7aee6,67d17260ebfde88d705806a2,2025-03-12_05h44.46.720,Tarea de decisión léxica,2024.2.5,Win32,59.95203837,,,,,,,,,,,,,,,,,,,,,,,206.025,207.141,l,1,0.438,1,207.141,207.639,,,,,,220,FEM,NOWORD,DIS,150,miva,,el,,0.438,,207.639,207.639,-0.046296296,-0.405555584,0,0,0,,0,42,42,219,1,pipa,,,,
,,,,,,61230876ad65890ff8619511,676192165fb32c2e1fb7aee6,67d17260ebfde88d705806a2,2025-03-12_05h44.46.720,Tarea de decisión léxica,2024.2.5,Win32,59.95203837,,,,,,,,,,,,,,,,,,,,,,,207.641,209.173,l,1,0.849,1,209.174,209.676,,,,,,360,MAS,NOWORD,DIS,150,cacer,,la,,0.849,,209.676,209.676,-0.046296296,-0.405555584,0,0,0,,0,43,43,359,1,calor,,,,
,,,,,,61230876ad65890ff8619511,676192165fb32c2e1fb7aee6,67d17260ebfde88d705806a2,2025-03-12_05h44.46.720,Tarea de decisión léxica,2024.2.5,Win32,59.95203837,,,,,,,,,,,,,,,,,,,,,,,209.677,210.856,a,1,0.498,1,210.856,211.358,,,,,,9,MAS,WORD,AGR,150,tipo,,el,,0.498,,211.358,211.358,-0.046296296,-0.405555584,0,0,0,,0,44,44,8,1,sibo,,,,
,,,,,,61230876ad65890ff8619511,676192165fb32c2e1fb7aee6,67d17260ebfde88d705806a2,2025-03-12_05h44.46.720,Tarea de decisión léxica,2024.2.5,Win32,59.95203837,,,,,,,,,,,,,,,,,,,,,,,211.359,212.772,a,1,0.735,1,212.772,213.271,,,,,,249,FEM,WORD,AGR,150,clase,,la,,0.735,,213.273,213.275,-0.046296296,-0.405555584,0,0,0,,0,45,45,248,1,plane,,,,
,,,,,,61230876ad65890ff8619511,676192165fb32c2e1fb7aee6,67d17260ebfde88d705806a2,2025-03-12_05h44.46.720,Tarea de decisión léxica,2024.2.5,Win32,59.95203837,,,,,,,,,,,,,,,,,,,,,,,213.276,214.574,l,1,0.617,1,214.575,215.073,,,,,,24,FEM,NOWORD,DIS,150,giva,,el,,0.617,,215.073,215.073,-0.046296296,-0.405555584,0,0,0,,0,46,46,23,1,hija,,,,
,,,,,,61230876ad65890ff8619511,676192165fb32c2e1fb7aee6,67d17260ebfde88d705806a2,2025-03-12_05h44.46.720,Tarea de decisión léxica,2024.2.5,Win32,59.95203837,,,,,,,,,,,,,,,,,,,,,,,215.075,216.539,l,1,0.79,1,216.539,217.039,,,,,,132,FEM,NOWORD,DIS,150,fada,,el,,0.79,,217.039,217.039,-0.046296296,-0.405555584,0,0,0,,0,47,47,131,1,mina,,,,
,,,,,,61230876ad65890ff8619511,676192165fb32c2e1fb7aee6,67d17260ebfde88d705806a2,2025-03-12_05h44.46.720,Tarea de decisión léxica,2024.2.5,Win32,59.95203837,,,,,,,,,,,,,,,,,,,,,,,217.041,218.207,l,1,0.495,1,218.207,218.706,,,,,,470,MAS,NOWORD,AGR,150,matia,,el,,0.495,,218.706,218.706,-0.046296296,-0.405555584,0,0,0,,0,48,48,469,1,patio,,,,
,,,,,,61230876ad65890ff8619511,676192165fb32c2e1fb7aee6,67d17260ebfde88d705806a2,2025-03-12_05h44.46.720,Tarea de decisión léxica,2024.2.5,Win32,59.95203837,,,,,,,,,,,,,,,,,,,,,,,218.708,219.872,a,1,0.488,1,219.872,220.372,,,,,,263,FEM,WORD,DIS,150,vista,,el,,0.488,,220.373,220.373,-0.046296296,-0.405555584,0,0,0,,0,49,49,262,1,dosta,,,,
,,,,,,61230876ad65890ff8619511,676192165fb32c2e1fb7aee6,67d17260ebfde88d705806a2,2025-03-12_05h44.46.720,Tarea de decisión léxica,2024.2.5,Win32,59.95203837,,,,,,,,,,,,,,,,,,,,,,,220.374,222.239,a,0,1.192,0,222.241,222.739,,,,,,258,FEM,NOWORD,AGR,150,asama,,la,,1.192,,222.74,222.741,-0.046296296,-0.405555584,0,0,0,,0,50,50,257,1,amiga,,,,
,,,,,,61230876ad65890ff8619511,676192165fb32c2e1fb7aee6,67d17260ebfde88d705806a2,2025-03-12_05h44.46.720,Tarea de decisión léxica,2024.2.5,Win32,59.95203837,,,,,,,,,,,,,,,,,,,,,,,222.743,224.274,l,0,0.848,0,224.274,224.773,,,,,,409,MAS,WORD,AGR,150,carro,,el,,0.848,,224.773,224.774,-0.046296296,-0.405555584,0,0,0,,0,51,51,408,1,pafro,,,,
,,,,,,61230876ad65890ff8619511,676192165fb32c2e1fb7aee6,67d17260ebfde88d705806a2,2025-03-12_05h44.46.720,Tarea de decisión léxica,2024.2.5,Win32,59.95203837,,,,,,,,,,,,,,,,,,,,,,,224.776,226.706,l,1,1.252,1,226.707,227.206,,,,,,134,FEM,NOWORD,AGR,150,vesa,,la,,1.252,,227.207,227.207,-0.046296296,-0.405555584,0,0,0,,0,52,52,133,1,vaca,,,,
,,,,,,61230876ad65890ff8619511,676192165fb32c2e1fb7aee6,67d17260ebfde88d705806a2,2025-03-12_05h44.46.720,Tarea de decisión léxica,2024.2.5,Win32,59.95203837,,,,,,,,,,,,,,,,,,,,,,,227.208,228.422,l,1,0.536,1,228.422,228.923,,,,,,120,MAS,NOWORD,DIS,150,hooy,,la,,0.536,,228.923,228.923,-0.046296296,-0.405555584,0,0,0,,0,53,53,119,1,pozo,,,,
,,,,,,61230876ad65890ff8619511,676192165fb32c2e1fb7aee6,67d17260ebfde88d705806a2,2025-03-12_05h44.46.720,Tarea de decisión léxica,2024.2.5,Win32,59.95203837,,,,,,,,,,,,,,,,,,,,,,,228.924,230.69,l,1,1.102,1,230.692,231.19,,,,,,56,MAS,NOWORD,DIS,150,jado,,la,,1.102,,231.19,231.19,-0.046296296,-0.405555584,0,0,0,,0,54,54,55,1,gato,,,,
,,,,,,61230876ad65890ff8619511,676192165fb32c2e1fb7aee6,67d17260ebfde88d705806a2,2025-03-12_05h44.46.720,Tarea de decisión léxica,2024.2.5,Win32,59.95203837,,,,,,,,,,,,,,,,,,,,,,,231.197,232.341,l,1,0.45,1,232.342,232.839,,,,,,230,MAS,NOWORD,AGR,150,ador,,el,,0.45,,232.841,232.844,-0.046296296,-0.405555584,0,0,0,,0,55,55,229,1,amor,,,,
,,,,,,61230876ad65890ff8619511,676192165fb32c2e1fb7aee6,67d17260ebfde88d705806a2,2025-03-12_05h44.46.720,Tarea de decisión léxica,2024.2.5,Win32,59.95203837,,,,,,,,,,,,,,,,,,,,,,,232.846,234.056,l,1,0.542,1,234.056,234.557,,,,,,438,FEM,NOWORD,AGR,150,glava,,la,,0.542,,234.557,234.557,-0.046296296,-0.405555584,0,0,0,,0,56,56,437,1,plaza,,,,
,,,,,,61230876ad65890ff8619511,676192165fb32c2e1fb7aee6,67d17260ebfde88d705806a2,2025-03-12_05h44.46.720,Tarea de decisión léxica,2024.2.5,Win32,59.95203837,,,,,,,,,,,,,,,,,,,,,,,234.559,235.839,l,1,0.606,1,235.839,236.34,,,,,,144,MAS,NOWORD,DIS,150,pezo,,la,,0.606,,236.34,236.34,-0.046296296,-0.405555584,0,0,0,,0,57,57,143,1,pavo,,,,
,,,,,,61230876ad65890ff8619511,676192165fb32c2e1fb7aee6,67d17260ebfde88d705806a2,2025-03-12_05h44.46.720,Tarea de decisión léxica,2024.2.5,Win32,59.95203837,,,,,,,,,,,,,,,,,,,,,,,236.341,237.468,a,1,0.452,1,237.468,237.956,,,,,,337,MAS,WORD,AGR,150,huevo,,el,,0.452,,237.956,237.956,-0.046296296,-0.405555584,0,0,0,,0,58,58,336,1,nuejo,,,,
,,,,,,61230876ad65890ff8619511,676192165fb32c2e1fb7aee6,67d17260ebfde88d705806a2,2025-03-12_05h44.46.720,Tarea de decisión léxica,2024.2.5,Win32,59.95203837,,,,,,,,,,,,,,,,,,,,,,,237.958,239.191,l,1,0.552,1,239.192,239.689,,,,,,332,MAS,NOWORD,DIS,150,erato,,la,,0.552,,239.69,239.694,-0.046296296,-0.405555584,0,0,0,,0,59,59,331,1,éxito,,,,
,,,,,,61230876ad65890ff8619511,676192165fb32c2e1fb7aee6,67d17260ebfde88d705806a2,2025-03-12_05h44.46.720,Tarea de decisión léxica,2024.2.5,Win32,59.95203837,,,,,,,,,,,,,,,,,,,,,,,239.695,240.79,a,1,0.426,1,240.79,241.289,,,,,,451,FEM,WORD,DIS,150,fruta,,el,,0.426,,241.289,241.29,-0.046296296,-0.405555584,0,0,0,,0,60,60,450,1,clita,,,,
,,,,,,61230876ad65890ff8619511,676192165fb32c2e1fb7aee6,67d17260ebfde88d705806a2,2025-03-12_05h44.46.720,Tarea de decisión léxica,2024.2.5,Win32,59.95203837,,,,,,,,,,,,,,,,,,,,,,,241.291,242.574,l,1,0.625,1,242.574,243.074,,,,,,326,FEM,NOWORD,AGR,150,mabia,,la,,0.625,,243.074,243.074,-0.046296296,-0.405555584,0,0,0,,0,61,61,325,1,magia,,,,
,,,,,,61230876ad65890ff8619511,676192165fb32c2e1fb7aee6,67d17260ebfde88d705806a2,2025-03-12_05h44.46.720,Tarea de decisión léxica,2024.2.5,Win32,59.95203837,,,,,,,,,,,,,,,,,,,,,,,243.077,244.223,a,1,0.468,1,244.224,244.737,,,,,,77,MAS,WORD,AGR,150,loco,,el,,0.468,,244.737,244.737,-0.046296296,-0.405555584,0,0,0,,0,62,62,76,1,fodo,,,,
,,,,,,61230876ad65890ff8619511,676192165fb32c2e1fb7aee6,67d17260ebfde88d705806a2,2025-03-12_05h44.46.720,Tarea de decisión léxica,2024.2.5,Win32,59.95203837,,,,,,,,,,,,,,,,,,,,,,,244.739,246.074,l,1,0.672,1,246.074,246.575,,,,,,54,FEM,NOWORD,AGR,150,rora,,la,,0.672,,246.575,246.575,-0.046296296,-0.405555584,0,0,0,,0,63,63,53,1,boda,,,,
,,,,,,61230876ad65890ff8619511,676192165fb32c2e1fb7aee6,67d17260ebfde88d705806a2,2025-03-12_05h44.46.720,Tarea de decisión léxica,2024.2.5,Win32,59.95203837,,,,,,,,,,,,,,,,,,,,,,,246.577,247.858,a,1,0.612,1,247.859,248.355,,,,,,17,FEM,WORD,AGR,150,mamá,,la,,0.612,,248.356,248.358,-0.046296296,-0.405555584,0,0,0,,0,64,64,16,1,paba,,,,
,,,,,,61230876ad65890ff8619511,676192165fb32c2e1fb7aee6,67d17260ebfde88d705806a2,2025-03-12_05h44.46.720,Tarea de decisión léxica,2024.2.5,Win32,59.95203837,,,,,,,,,,,,,,,,,,,,,,,248.36,249.712,a,1,0.684,1,249.712,250.207,,,,,,457,MAS,WORD,AGR,150,plato,,el,,0.684,,250.207,250.207,-0.046296296,-0.405555584,0,0,0,,0,65,65,456,1,glaco,,,,
,,,,,,61230876ad65890ff8619511,676192165fb32c2e1fb7aee6,67d17260ebfde88d705806a2,2025-03-12_05h44.46.720,Tarea de decisión léxica,2024.2.5,Win32,59.95203837,,,,,,,,,,,,,,,,,,,,,,,250.208,251.373,a,1,0.499,1,251.373,251.873,,,,,,191,FEM,WORD,DIS,150,pila,,el,,0.499,,251.873,251.873,-0.046296296,-0.405555584,0,0,0,,0,66,66,190,1,bila,,,,
,,,,,,61230876ad65890ff8619511,676192165fb32c2e1fb7aee6,67d17260ebfde88d705806a2,2025-03-12_05h44.46.720,Tarea de decisión léxica,2024.2.5,Win32,59.95203837,,,,,,,,,,,,,,,,,,,,,,,251.875,253.206,a,1,0.658,1,253.207,253.706,,,,,,455,MAS,WORD,DIS,150,reino,,la,,0.658,,253.706,253.706,-0.046296296,-0.405555584,0,0,0,,0,67,67,454,1,riaso,,,,
,,,,,,61230876ad65890ff8619511,676192165fb32c2e1fb7aee6,67d17260ebfde88d705806a2,2025-03-12_05h44.46.720,Tarea de decisión léxica,2024.2.5,Win32,59.95203837,,,,,,,,,,,,,,,,,,,,,,,253.708,254.975,l,0,0.602,0,254.977,255.474,,,,,,131,FEM,WORD,DIS,150,mina,,el,,0.602,,255.474,255.475,-0.046296296,-0.405555584,0,0,0,,0,68,68,130,1,fada,,,,
,,,,,,61230876ad65890ff8619511,676192165fb32c2e1fb7aee6,67d17260ebfde88d705806a2,2025-03-12_05h44.46.720,Tarea de decisión léxica,2024.2.5,Win32,59.95203837,,,,,,,,,,,,,,,,,,,,,,,255.477,256.858,l,1,0.701,1,256.86,257.352,,,,,,410,MAS,NOWORD,AGR,150,pafro,,el,,0.701,,257.354,257.356,-0.046296296,-0.405555584,0,0,0,,0,69,69,409,1,carro,,,,
,,,,,,61230876ad65890ff8619511,676192165fb32c2e1fb7aee6,67d17260ebfde88d705806a2,2025-03-12_05h44.46.720,Tarea de decisión léxica,2024.2.5,Win32,59.95203837,,,,,,,,,,,,,,,,,,,,,,,257.357,258.558,a,1,0.519,1,258.558,259.057,,,,,,61,FEM,WORD,AGR,150,obra,,la,,0.519,,259.057,259.058,-0.046296296,-0.405555584,0,0,0,,0,70,70,60,1,efla,,,,
,,,,,,61230876ad65890ff8619511,676192165fb32c2e1fb7aee6,67d17260ebfde88d705806a2,2025-03-12_05h44.46.720,Tarea de decisión léxica,2024.2.5,Win32,59.95203837,,,,,,,,,,,,,,,,,,,,,,,259.058,260.206,a,1,0.469,1,260.207,260.697,,,,,,143,MAS,WORD,DIS,150,pavo,,la,,0.469,,260.697,260.697,-0.046296296,-0.405555584,0,0,0,,0,71,71,142,1,pezo,,,,
,,,,,,61230876ad65890ff8619511,676192165fb32c2e1fb7aee6,67d17260ebfde88d705806a2,2025-03-12_05h44.46.720,Tarea de decisión léxica,2024.2.5,Win32,59.95203837,,,,,,,,,,,,,,,,,,,,,,,260.698,261.874,a,1,0.504,1,261.875,262.384,,,,,,31,FEM,WORD,DIS,150,ropa,,el,,0.504,,262.384,262.384,-0.046296296,-0.405555584,0,0,0,,0,72,72,30,1,bova,,,,
,,,,,,61230876ad65890ff8619511,676192165fb32c2e1fb7aee6,67d17260ebfde88d705806a2,2025-03-12_05h44.46.720,Tarea de decisión léxica,2024.2.5,Win32,59.95203837,,,,,,,,,,,,,,,,,,,,,,,262.388,263.825,l,1,0.769,1,263.825,264.324,,,,,,314,MAS,NOWORD,AGR,150,govio,,el,,0.769,,264.324,264.324,-0.046296296,-0.405555584,0,0,0,,0,73,73,313,1,novio,,,,
,,,,,,61230876ad65890ff8619511,676192165fb32c2e1fb7aee6,67d17260ebfde88d705806a2,2025-03-12_05h44.46.720,Tarea de decisión léxica,2024.2.5,Win32,59.95203837,,,,,,,,,,,,,,,,,,,,,,,264.326,265.84,l,1,0.837,1,265.841,266.34,,,,,,336,FEM,NOWORD,DIS,150,pesta,,el,,0.837,,266.343,266.346,-0.046296296,-0.405555584,0,0,0,,0,74,74,335,1,costa,,,,
,,,,,,61230876ad65890ff8619511,676192165fb32c2e1fb7aee6,67d17260ebfde88d705806a2,2025-03-12_05h44.46.720,Tarea de decisión léxica,2024.2.5,Win32,59.95203837,,,,,,,,,,,,,,,,,,,,,,,266.348,267.624,a,1,0.602,1,267.624,268.124,,,,,,103,FEM,WORD,DIS,150,ruta,,el,,0.602,,268.124,268.124,-0.046296296,-0.405555584,0,0,0,,0,75,75,102,1,rova,,,,
,,,,,,61230876ad65890ff8619511,676192165fb32c2e1fb7aee6,67d17260ebfde88d705806a2,2025-03-12_05h44.46.720,Tarea de decisión léxica,2024.2.5,Win32,59.95203837,,,,,,,,,,,,,,,,,,,,,,,268.125,269.707,l,1,0.903,1,269.708,270.207,,,,,,480,MAS,NOWORD,DIS,150,rimpo,,la,,0.903,,270.207,270.208,-0.046296296,-0.405555584,0,0,0,,0,76,76,479,1,rumbo,,,,
,,,,,,61230876ad65890ff8619511,676192165fb32c2e1fb7aee6,67d17260ebfde88d705806a2,2025-03-12_05h44.46.720,Tarea de decisión léxica,2024.2.5,Win32,59.95203837,,,,,,,,,,,,,,,,,,,,,,,270.209,271.364,a,1,0.471,1,271.365,271.858,,,,,,471,FEM,WORD,DIS,150,grasa,,el,,0.471,,271.858,271.858,-0.046296296,-0.405555584,0,0,0,,0,77,77,470,1,prana,,,,
,,,,,,61230876ad65890ff8619511,676192165fb32c2e1fb7aee6,67d17260ebfde88d705806a2,2025-03-12_05h44.46.720,Tarea de decisión léxica,2024.2.5,Win32,59.95203837,,,,,,,,,,,,,,,,,,,,,,,271.86,273.24,l,1,0.705,1,273.241,273.742,,,,,,406,FEM,NOWORD,AGR,150,rarra,,la,,0.705,,273.742,273.742,-0.046296296,-0.405555584,0,0,0,,0,78,78,405,1,barra,,,,
,,,,,,61230876ad65890ff8619511,676192165fb32c2e1fb7aee6,67d17260ebfde88d705806a2,2025-03-12_05h44.46.720,Tarea de decisión léxica,2024.2.5,Win32,59.95203837,,,,,,,,,,,,,,,,,,,,,,,273.746,275.147,l,1,0.72,1,275.148,275.641,,,,,,414,FEM,NOWORD,AGR,150,bieda,,la,,0.72,,275.642,275.645,-0.046296296,-0.405555584,0,0,0,,0,79,79,413,1,rueda,,,,
,,,,,,61230876ad65890ff8619511,676192165fb32c2e1fb7aee6,67d17260ebfde88d705806a2,2025-03-12_05h44.46.720,Tarea de decisión léxica,2024.2.5,Win32,59.95203837,,,,,,,,,,,,,,,,,,,,,,,275.647,276.793,l,1,0.479,1,276.793,277.292,,,,,,2,FEM,NOWORD,AGR,150,mada,,la,,0.479,,277.292,277.292,-0.046296296,-0.405555584,0,0,0,,0,80,80,1,1,casa,,,,
,,,,,,61230876ad65890ff8619511,676192165fb32c2e1fb7aee6,67d17260ebfde88d705806a2,2025-03-12_05h44.46.720,Tarea de decisión léxica,2024.2.5,Win32,59.95203837,,,,,,,,,,,,,,,,,,,,,,,277.293,278.776,l,1,0.798,1,278.777,279.275,,,,,,104,FEM,NOWORD,DIS,150,rova,,el,,0.798,,279.275,279.276,-0.046296296,-0.405555584,0,0,0,,0,81,81,103,1,ruta,,,,
,,,,,,61230876ad65890ff8619511,676192165fb32c2e1fb7aee6,67d17260ebfde88d705806a2,2025-03-12_05h44.46.720,Tarea de decisión léxica,2024.2.5,Win32,59.95203837,,,,,,,,,,,,,,,,,,,,,,,279.277,280.341,l,1,0.393,1,280.341,280.84,,,,,,348,FEM,NOWORD,DIS,150,mueza,,el,,0.393,,280.841,280.842,-0.046296296,-0.405555584,0,0,0,,0,82,82,347,1,pieza,,,,
,,,,,,61230876ad65890ff8619511,676192165fb32c2e1fb7aee6,67d17260ebfde88d705806a2,2025-03-12_05h44.46.720,Tarea de decisión léxica,2024.2.5,Win32,59.95203837,,,,,,,,,,,,,,,,,,,,,,,280.843,281.947,a,1,0.415,1,281.947,282.441,,,,,,121,MAS,WORD,AGR,150,hoyo,,el,,0.415,,282.442,282.444,-0.046296296,-0.405555584,0,0,0,,0,83,83,120,1,bomo,,,,
,,,,,,61230876ad65890ff8619511,676192165fb32c2e1fb7aee6,67d17260ebfde88d705806a2,2025-03-12_05h44.46.720,Tarea de decisión léxica,2024.2.5,Win32,59.95203837,,,,,,,,,,,,,,,,,,,,,,,282.445,284.074,l,1,0.958,1,284.075,284.575,,,,,,34,FEM,NOWORD,AGR,150,loda,,la,,0.958,,284.575,284.575,-0.046296296,-0.405555584,0,0,0,,0,84,84,33,1,boca,,,,
,,,,,,61230876ad65890ff8619511,676192165fb32c2e1fb7aee6,67d17260ebfde88d705806a2,2025-03-12_05h44.46.720,Tarea de decisión léxica,2024.2.5,Win32,59.95203837,,,,,,,,,,,,,,,,,,,,,,,284.576,285.808,l,1,0.556,1,285.809,286.308,,,,,,22,MAS,NOWORD,AGR,150,blan,,el,,0.556,,286.309,286.309,-0.046296296,-0.405555584,0,0,0,,0,85,85,21,1,plan,,,,
,,,,,,61230876ad65890ff8619511,676192165fb32c2e1fb7aee6,67d17260ebfde88d705806a2,2025-03-12_05h44.46.720,Tarea de decisión léxica,2024.2.5,Win32,59.95203837,,,,,,,,,,,,,,,,,,,,,,,286.309,287.641,a,1,0.652,1,287.641,288.146,,,,,,195,FEM,WORD,DIS,150,tela,,el,,0.652,,288.146,288.146,-0.046296296,-0.405555584,0,0,0,,0,86,86,194,1,sira,,,,
,,,,,,61230876ad65890ff8619511,676192165fb32c2e1fb7aee6,67d17260ebfde88d705806a2,2025-03-12_05h44.46.720,Tarea de decisión léxica,2024.2.5,Win32,59.95203837,,,,,,,,,,,,,,,,,,,,,,,288.147,289.291,a,1,0.47,1,289.291,289.791,,,,,,193,FEM,WORD,AGR,150,loca,,la,,0.47,,289.791,289.792,-0.046296296,-0.405555584,0,0,0,,0,87,87,192,1,foda,,,,
,,,,,,61230876ad65890ff8619511,676192165fb32c2e1fb7aee6,67d17260ebfde88d705806a2,2025-03-12_05h44.46.720,Tarea de decisión léxica,2024.2.5,Win32,59.95203837,,,,,,,,,,,,,,,,,,,,,,,289.792,290.893,a,1,0.424,1,290.894,291.394,,,,,,327,MAS,WORD,DIS,150,fondo,,la,,0.424,,291.395,291.397,-0.046296296,-0.405555584,0,0,0,,0,88,88,326,1,lendo,,,,
,,,,,,61230876ad65890ff8619511,676192165fb32c2e1fb7aee6,67d17260ebfde88d705806a2,2025-03-12_05h44.46.720,Tarea de decisión léxica,2024.2.5,Win32,59.95203837,,,,,,,,,,,,,,,,,,,,,,,291.398,292.525,l,1,0.455,1,292.527,293.026,,,,,,126,MAS,NOWORD,AGR,150,vudo,,el,,0.455,,293.026,293.026,-0.046296296,-0.405555584,0,0,0,,0,89,89,125,1,lujo,,,,
,,,,,,61230876ad65890ff8619511,676192165fb32c2e1fb7aee6,67d17260ebfde88d705806a2,2025-03-12_05h44.46.720,Tarea de decisión léxica,2024.2.5,Win32,59.95203837,,,,,,,,,,,,,,,,,,,,,,,293.03,294.375,l,1,0.666,1,294.375,294.875,,,,,,250,FEM,NOWORD,AGR,150,plane,,la,,0.666,,294.875,294.875,-0.046296296,-0.405555584,0,0,0,,0,90,90,249,1,clase,,,,
,,,,,,61230876ad65890ff8619511,676192165fb32c2e1fb7aee6,67d17260ebfde88d705806a2,2025-03-12_05h44.46.720,Tarea de decisión léxica,2024.2.5,Win32,59.95203837,,,,,,,,,,,,,,,,,,,,,,,294.878,296.079,l,1,0.521,1,296.079,296.575,,,,,,472,FEM,NOWORD,DIS,150,prana,,el,,0.521,,296.575,296.575,-0.046296296,-0.405555584,0,0,0,,0,91,91,471,1,grasa,,,,
,,,,,,61230876ad65890ff8619511,676192165fb32c2e1fb7aee6,67d17260ebfde88d705806a2,2025-03-12_05h44.46.720,Tarea de decisión léxica,2024.2.5,Win32,59.95203837,,,,,,,,,,,,,,,,,,,,,,,296.577,297.774,l,1,0.522,1,297.774,298.275,,,,,,296,MAS,NOWORD,DIS,150,goler,,la,,0.522,,298.275,298.275,-0.046296296,-0.405555584,0,0,0,,0,92,92,295,1,dolor,,,,
,,,,,,61230876ad65890ff8619511,676192165fb32c2e1fb7aee6,67d17260ebfde88d705806a2,2025-03-12_05h44.46.720,Tarea de decisión léxica,2024.2.5,Win32,59.95203837,,,,,,,,,,,,,,,,,,,,,,,298.278,299.608,a,1,0.655,1,299.608,300.108,,,,,,167,FEM,WORD,DIS,150,jefa,,el,,0.655,,300.109,300.112,-0.046296296,-0.405555584,0,0,0,,0,93,93,166,1,zifa,,,,
,,,,,,61230876ad65890ff8619511,676192165fb32c2e1fb7aee6,67d17260ebfde88d705806a2,2025-03-12_05h44.46.720,Tarea de decisión léxica,2024.2.5,Win32,59.95203837,,,,,,,,,,,,,,,,,,,,,,,300.113,301.376,a,1,0.584,1,301.377,301.876,,,,,,69,FEM,WORD,AGR,150,zona,,la,,0.584,,301.876,301.876,-0.046296296,-0.405555584,0,0,0,,0,94,94,68,1,ñola,,,,
,,,,,,61230876ad65890ff8619511,676192165fb32c2e1fb7aee6,67d17260ebfde88d705806a2,2025-03-12_05h44.46.720,Tarea de decisión léxica,2024.2.5,Win32,59.95203837,,,,,,,,,,,,,,,,,,,,,,,301.877,303.025,l,1,0.477,1,303.025,303.526,,,,,,318,FEM,NOWORD,AGR,150,plaad,,la,,0.477,,303.527,303.528,-0.046296296,-0.405555584,0,0,0,,0,95,95,317,1,playa,,,,
,,,,,,61230876ad65890ff8619511,676192165fb32c2e1fb7aee6,67d17260ebfde88d705806a2,2025-03-12_05h44.46.720,Tarea de decisión léxica,2024.2.5,Win32,59.95203837,,,,,,,,,,,,,,,,,,,,,,,303.53,304.76,l,1,0.556,1,304.76,305.259,,,,,,142,FEM,NOWORD,AGR,150,sina,,la,,0.556,,305.259,305.259,-0.046296296,-0.405555584,0,0,0,,0,96,96,141,1,cruz,,,,
,,,,,,61230876ad65890ff8619511,676192165fb32c2e1fb7aee6,67d17260ebfde88d705806a2,2025-03-12_05h44.46.720,Tarea de decisión léxica,2024.2.5,Win32,59.95203837,,,,,,,,,,,,,,,,,,,,,,,305.26,306.625,l,1,0.683,1,306.625,307.127,,,,,,392,MAS,NOWORD,DIS,150,dievo,,la,,0.683,,307.127,307.127,-0.046296296,-0.405555584,0,0,0,,0,97,97,391,1,dueño,,,,
,,,,,,61230876ad65890ff8619511,676192165fb32c2e1fb7aee6,67d17260ebfde88d705806a2,2025-03-12_05h44.46.720,Tarea de decisión léxica,2024.2.5,Win32,59.95203837,,,,,,,,,,,,,,,,,,,,,,,307.128,308.242,l,1,0.436,1,308.242,308.743,,,,,,424,MAS,NOWORD,DIS,150,quigo,,la,,0.436,,308.745,308.746,-0.046296296,-0.405555584,0,0,0,,0,98,98,423,1,queso,,,,
,,,,,,61230876ad65890ff8619511,676192165fb32c2e1fb7aee6,67d17260ebfde88d705806a2,2025-03-12_05h44.46.720,Tarea de decisión léxica,2024.2.5,Win32,59.95203837,,,,,,,,,,,,,,,,,,,,,,,308.748,309.824,l,1,0.419,1,309.825,310.325,,,,,,162,MAS,NOWORD,AGR,150,bopo,,el,,0.419,,310.325,310.325,-0.046296296,-0.405555584,0,0,0,,0,99,99,161,1,coro,,,,
,,,,,,61230876ad65890ff8619511,676192165fb32c2e1fb7aee6,67d17260ebfde88d705806a2,2025-03-12_05h44.46.720,Tarea de decisión léxica,2024.2.5,Win32,59.95203837,,,,,,,,,,,,,,,,,,,,,,,310.327,311.46,a,1,0.426,1,311.46,311.979,,,,,,421,MAS,WORD,AGR,150,primo,,el,,0.426,,311.979,311.979,-0.046296296,-0.405555584,0,0,0,,0,100,100,420,1,griso,,,,
,,,,,,61230876ad65890ff8619511,676192165fb32c2e1fb7aee6,67d17260ebfde88d705806a2,2025-03-12_05h44.46.720,Tarea de decisión léxica,2024.2.5,Win32,59.95203837,,,,,,,,,,,,,,,,,,,,,,,311.98,313.058,a,1,0.4,1,313.059,313.558,,,,,,273,FEM,WORD,AGR,150,broma,,la,,0.4,,313.558,313.559,-0.046296296,-0.405555584,0,0,0,,0,101,101,272,1,frosa,,,,
,,,,,,61230876ad65890ff8619511,676192165fb32c2e1fb7aee6,67d17260ebfde88d705806a2,2025-03-12_05h44.46.720,Tarea de decisión léxica,2024.2.5,Win32,59.95203837,,,,,,,,,,,,,,,,,,,,,,,313.561,314.676,a,1,0.438,1,314.676,315.175,,,,,,303,MAS,WORD,DIS,150,barco,,la,,0.438,,315.175,315.176,-0.046296296,-0.405555584,0,0,0,,0,102,102,302,1,lanco,,,,
,,,,,,61230876ad65890ff8619511,676192165fb32c2e1fb7aee6,67d17260ebfde88d705806a2,2025-03-12_05h44.46.720,Tarea de decisión léxica,2024.2.5,Win32,59.95203837,,,,,,,,,,,,,,,,,,,,,,,315.178,316.342,a,1,0.486,1,316.342,316.842,,,,,,151,MAS,WORD,DIS,150,tomo,,la,,0.486,,316.843,316.845,-0.046296296,-0.405555584,0,0,0,,0,103,103,150,1,sogo,,,,
,,,,,,61230876ad65890ff8619511,676192165fb32c2e1fb7aee6,67d17260ebfde88d705806a2,2025-03-12_05h44.46.720,Tarea de decisión léxica,2024.2.5,Win32,59.95203837,,,,,,,,,,,,,,,,,,,,,,,316.846,318.013,a,0,0.491,0,318.014,318.511,,,,,,430,FEM,NOWORD,AGR,150,tenta,,la,,0.491,,318.511,318.511,-0.046296296,-0.405555584,0,0,0,,0,104,104,429,1,tarta,,,,
,,,,,,61230876ad65890ff8619511,676192165fb32c2e1fb7aee6,67d17260ebfde88d705806a2,2025-03-12_05h44.46.720,Tarea de decisión léxica,2024.2.5,Win32,59.95203837,,,,,,,,,,,,,,,,,,,,,,,318.513,320.094,l,1,0.904,1,320.095,320.593,,,,,,316,FEM,NOWORD,DIS,150,riosa,,el,,0.904,,320.593,320.594,-0.046296296,-0.405555584,0,0,0,,0,105,105,315,1,reina,,,,
,,,,,,61230876ad65890ff8619511,676192165fb32c2e1fb7aee6,67d17260ebfde88d705806a2,2025-03-12_05h44.46.720,Tarea de decisión léxica,2024.2.5,Win32,59.95203837,,,,,,,,,,,,,,,,,,,,,,,320.596,321.96,a,1,0.69,1,321.963,322.461,,,,,,199,MAS,WORD,DIS,150,lazo,,la,,0.69,,322.461,322.461,-0.046296296,-0.405555584,0,0,0,,0,106,106,198,1,fano,,,,
,,,,,,61230876ad65890ff8619511,676192165fb32c2e1fb7aee6,67d17260ebfde88d705806a2,2025-03-12_05h44.46.720,Tarea de decisión léxica,2024.2.5,Win32,59.95203837,,,,,,,,,,,,,,,,,,,,,,,322.468,324.044,l,1,0.905,1,324.044,324.543,,,,,,330,MAS,NOWORD,AGR,150,nueno,,el,,0.905,,324.544,324.546,-0.046296296,-0.405555584,0,0,0,,0,107,107,329,1,hueso,,,,
,,,,,,61230876ad65890ff8619511,676192165fb32c2e1fb7aee6,67d17260ebfde88d705806a2,2025-03-12_05h44.46.720,Tarea de decisión léxica,2024.2.5,Win32,59.95203837,,,,,,,,,,,,,,,,,,,,,,,324.547,326.105,l,1,0.888,1,326.106,326.609,,,,,,352,MAS,NOWORD,DIS,150,duepo,,la,,0.888,,326.609,326.609,-0.046296296,-0.405555584,0,0,0,,0,108,108,351,1,vuelo,,,,
,,,,,,61230876ad65890ff8619511,676192165fb32c2e1fb7aee6,67d17260ebfde88d705806a2,2025-03-12_05h44.46.720,Tarea de decisión léxica,2024.2.5,Win32,59.95203837,,,,,,,,,,,,,,,,,,,,,,,326.611,327.876,a,1,0.583,1,327.876,328.378,,,,,,329,MAS,WORD,AGR,150,hueso,,el,,0.583,,328.378,328.379,-0.046296296,-0.405555584,0,0,0,,0,109,109,328,1,nueno,,,,
,,,,,,61230876ad65890ff8619511,676192165fb32c2e1fb7aee6,67d17260ebfde88d705806a2,2025-03-12_05h44.46.720,Tarea de decisión léxica,2024.2.5,Win32,59.95203837,,,,,,,,,,,,,,,,,,,,,,,328.38,329.711,l,1,0.663,1,329.711,330.21,,,,,,276,MAS,NOWORD,DIS,150,musto,,la,,0.663,,330.21,330.21,-0.046296296,-0.405555584,0,0,0,,0,110,110,275,1,punto,,,,
,,,,,,61230876ad65890ff8619511,676192165fb32c2e1fb7aee6,67d17260ebfde88d705806a2,2025-03-12_05h44.46.720,Tarea de decisión léxica,2024.2.5,Win32,59.95203837,,,,,,,,,,,,,,,,,,,,,,,330.213,331.66,a,1,0.773,1,331.66,332.159,,,,,,465,FEM,WORD,AGR,150,aguja,,la,,0.773,,332.159,332.159,-0.046296296,-0.405555584,0,0,0,,0,111,111,464,1,asuba,,,,
,,,,,,61230876ad65890ff8619511,676192165fb32c2e1fb7aee6,67d17260ebfde88d705806a2,2025-03-12_05h44.46.720,Tarea de decisión léxica,2024.2.5,Win32,59.95203837,,,,,,,,,,,,,,,,,,,,,,,332.161,333.466,l,1,0.632,1,333.466,333.96,,,,,,268,MAS,NOWORD,DIS,150,figro,,la,,0.632,,333.961,333.963,-0.046296296,-0.405555584,0,0,0,,0,112,112,267,1,libro,,,,
,,,,,,61230876ad65890ff8619511,676192165fb32c2e1fb7aee6,67d17260ebfde88d705806a2,2025-03-12_05h44.46.720,Tarea de decisión léxica,2024.2.5,Win32,59.95203837,,,,,,,,,,,,,,,,,,,,,,,333.965,335.226,l,1,0.588,1,335.227,335.727,,,,,,262,MAS,NOWORD,AGR,150,titio,,el,,0.588,,335.728,335.728,-0.046296296,-0.405555584,0,0,0,,0,113,113,261,1,sitio,,,,
,,,,,,61230876ad65890ff8619511,676192165fb32c2e1fb7aee6,67d17260ebfde88d705806a2,2025-03-12_05h44.46.720,Tarea de decisión léxica,2024.2.5,Win32,59.95203837,,,,,,,,,,,,,,,,,,,,,,,335.73,336.91,a,1,0.503,1,336.911,337.41,,,,,,415,FEM,WORD,DIS,150,jaula,,el,,0.503,,337.41,337.41,-0.046296296,-0.405555584,0,0,0,,0,114,114,414,1,juira,,,,
,,,,,,61230876ad65890ff8619511,676192165fb32c2e1fb7aee6,67d17260ebfde88d705806a2,2025-03-12_05h44.46.720,Tarea de decisión léxica,2024.2.5,Win32,59.95203837,,,,,,,,,,,,,,,,,,,,,,,337.412,338.561,l,1,0.48,1,338.561,339.06,,,,,,398,FEM,NOWORD,AGR,150,trigi,,la,,0.48,,339.06,339.061,-0.046296296,-0.405555584,0,0,0,,0,115,115,397,1,tribu,,,,
,,,,,,61230876ad65890ff8619511,676192165fb32c2e1fb7aee6,67d17260ebfde88d705806a2,2025-03-12_05h44.46.720,Tarea de decisión léxica,2024.2.5,Win32,59.95203837,,,,,,,,,,,,,,,,,,,,,,,339.062,340.093,l,1,0.362,1,340.093,340.593,,,,,,266,FEM,NOWORD,AGR,150,pitat,,la,,0.362,,340.594,340.594,-0.046296296,-0.405555584,0,0,0,,0,116,116,265,1,mitad,,,,
,,,,,,61230876ad65890ff8619511,676192165fb32c2e1fb7aee6,67d17260ebfde88d705806a2,2025-03-12_05h44.46.720,Tarea de decisión léxica,2024.2.5,Win32,59.95203837,,,,,,,,,,,,,,,,,,,,,,,340.596,341.744,a,0,0.472,0,341.745,342.244,,,,,,156,FEM,NOWORD,DIS,150,luma,,el,,0.472,,342.246,342.247,-0.046296296,-0.405555584,0,0,0,,0,117,117,155,1,fuga,,,,
,,,,,,61230876ad65890ff8619511,676192165fb32c2e1fb7aee6,67d17260ebfde88d705806a2,2025-03-12_05h44.46.720,Tarea de decisión léxica,2024.2.5,Win32,59.95203837,,,,,,,,,,,,,,,,,,,,,,,342.25,343.56,a,1,0.636,1,343.562,344.06,,,,,,381,MAS,WORD,AGR,150,humor,,el,,0.636,,344.06,344.06,-0.046296296,-0.405555584,0,0,0,,0,118,118,380,1,nusor,,,,
,,,,,,61230876ad65890ff8619511,676192165fb32c2e1fb7aee6,67d17260ebfde88d705806a2,2025-03-12_05h44.46.720,Tarea de decisión léxica,2024.2.5,Win32,59.95203837,,,,,,,,,,,,,,,,,,,,,,,344.062,345.277,a,1,0.54,1,345.278,345.78,,,,,,445,MAS,WORD,AGR,150,actor,,el,,0.54,,345.78,345.78,-0.046296296,-0.405555584,0,0,0,,0,119,119,444,1,ascor,,,,
,,,,,,61230876ad65890ff8619511,676192165fb32c2e1fb7aee6,67d17260ebfde88d705806a2,2025-03-12_05h44.46.720,Tarea de decisión léxica,2024.2.5,Win32,59.95203837,,,,,,,,,,,,,,,,,,,,,,,345.782,346.876,a,1,0.419,1,346.876,347.376,,,,,,341,MAS,WORD,AGR,150,valor,,el,,0.419,,347.376,347.376,-0.046296296,-0.405555584,0,0,0,,0,120,120,340,1,daror,,,,
,,,,,,61230876ad65890ff8619511,676192165fb32c2e1fb7aee6,67d17260ebfde88d705806a2,2025-03-12_05h44.46.720,Tarea de decisión léxica,2024.2.5,Win32,59.95203837,,,,,,,,,,,,,,,,,,,,,,,347.378,348.527,a,1,0.472,1,348.527,349.014,,,,,,159,MAS,WORD,DIS,150,giro,,la,,0.472,,349.014,349.014,-0.046296296,-0.405555584,0,0,0,,0,121,121,158,1,bilo,,,,
,,,,,,61230876ad65890ff8619511,676192165fb32c2e1fb7aee6,67d17260ebfde88d705806a2,2025-03-12_05h44.46.720,Tarea de decisión léxica,2024.2.5,Win32,59.95203837,,,,,,,,,,,,,,,,,,,,,,,349.015,350.276,l,1,0.584,1,350.276,350.777,,,,,,158,MAS,NOWORD,AGR,150,hico,,el,,0.584,,350.778,350.779,-0.046296296,-0.405555584,0,0,0,,0,122,122,157,1,nido,,,,
,,,,,,61230876ad65890ff8619511,676192165fb32c2e1fb7aee6,67d17260ebfde88d705806a2,2025-03-12_05h44.46.720,Tarea de decisión léxica,2024.2.5,Win32,59.95203837,,,,,,,,,,,,,,,,,,,,,,,350.781,351.962,a,1,0.508,1,351.963,352.46,,,,,,347,FEM,WORD,DIS,150,pieza,,el,,0.508,,352.46,352.46,-0.046296296,-0.405555584,0,0,0,,0,123,123,346,1,mueza,,,,
,,,,,,61230876ad65890ff8619511,676192165fb32c2e1fb7aee6,67d17260ebfde88d705806a2,2025-03-12_05h44.46.720,Tarea de decisión léxica,2024.2.5,Win32,59.95203837,,,,,,,,,,,,,,,,,,,,,,,352.461,353.777,l,1,0.637,1,353.778,354.277,,,,,,136,MAS,NOWORD,DIS,150,geso,,la,,0.637,,354.277,354.277,-0.046296296,-0.405555584,0,0,0,,0,124,124,135,1,tubo,,,,
,,,,,,61230876ad65890ff8619511,676192165fb32c2e1fb7aee6,67d17260ebfde88d705806a2,2025-03-12_05h44.46.720,Tarea de decisión léxica,2024.2.5,Win32,59.95203837,,,,,,,,,,,,,,,,,,,,,,,354.282,355.493,l,1,0.543,1,355.493,355.995,,,,,,4,FEM,NOWORD,DIS,150,dica,,el,,0.543,,355.995,355.995,-0.046296296,-0.405555584,0,0,0,,0,125,125,3,1,vida,,,,
,,,,,,61230876ad65890ff8619511,676192165fb32c2e1fb7aee6,67d17260ebfde88d705806a2,2025-03-12_05h44.46.720,Tarea de decisión léxica,2024.2.5,Win32,59.95203837,,,,,,,,,,,,,,,,,,,,,,,355.997,357.362,a,1,0.683,1,357.362,357.862,,,,,,65,MAS,WORD,AGR,150,dios,,el,,0.683,,357.862,357.863,-0.046296296,-0.405555584,0,0,0,,0,126,126,64,1,nios,,,,
,,,,,,61230876ad65890ff8619511,676192165fb32c2e1fb7aee6,67d17260ebfde88d705806a2,2025-03-12_05h44.46.720,Tarea de decisión léxica,2024.2.5,Win32,59.95203837,,,,,,,,,,,,,,,,,,,,,,,357.864,359.079,a,1,0.54,1,359.079,359.577,,,,,,73,MAS,WORD,AGR,150,odio,,el,,0.54,,359.578,359.581,-0.046296296,-0.405555584,0,0,0,,0,127,127,72,1,omio,,,,
,,,,,,61230876ad65890ff8619511,676192165fb32c2e1fb7aee6,67d17260ebfde88d705806a2,2025-03-12_05h44.46.720,Tarea de decisión léxica,2024.2.5,Win32,59.95203837,,,,,,,,,,,,,,,,,,,,,,,359.583,360.764,a,1,0.508,1,360.764,361.26,,,,,,367,MAS,WORD,DIS,150,reloj,,la,,0.508,,361.26,361.261,-0.046296296,-0.405555584,0,0,0,,0,128,128,366,1,rerob,,,,
,,,,,,61230876ad65890ff8619511,676192165fb32c2e1fb7aee6,67d17260ebfde88d705806a2,2025-03-12_05h44.46.720,Tarea de decisión léxica,2024.2.5,Win32,59.95203837,,,,,,,,,,,,,,,,,,,,,,,361.263,362.477,l,1,0.535,1,362.477,362.977,,,,,,394,FEM,NOWORD,AGR,150,ashea,,la,,0.535,,362.977,362.978,-0.046296296,-0.405555584,0,0,0,,0,129,129,393,1,aldea,,,,
,,,,,,61230876ad65890ff8619511,676192165fb32c2e1fb7aee6,67d17260ebfde88d705806a2,2025-03-12_05h44.46.720,Tarea de decisión léxica,2024.2.5,Win32,59.95203837,,,,,,,,,,,,,,,,,,,,,,,362.979,364.644,l,1,0.984,1,364.644,365.144,,,,,,288,FEM,NOWORD,DIS,150,fosta,,el,,0.984,,365.144,365.144,-0.046296296,-0.405555584,0,0,0,,0,130,130,287,1,lista,,,,
,,,,,,61230876ad65890ff8619511,676192165fb32c2e1fb7aee6,67d17260ebfde88d705806a2,2025-03-12_05h44.46.720,Tarea de decisión léxica,2024.2.5,Win32,59.95203837,,,,,,,,,,,,,,,,,,,,,,,365.145,366.494,l,1,0.669,1,366.494,366.993,,,,,,298,MAS,NOWORD,AGR,150,brubo,,el,,0.669,,366.995,366.997,-0.046296296,-0.405555584,0,0,0,,0,131,131,297,1,grupo,,,,
,,,,,,61230876ad65890ff8619511,676192165fb32c2e1fb7aee6,67d17260ebfde88d705806a2,2025-03-12_05h44.46.720,Tarea de decisión léxica,2024.2.5,Win32,59.95203837,,,,,,,,,,,,,,,,,,,,,,,366.999,368.494,l,1,0.817,1,368.494,368.994,,,,,,196,FEM,NOWORD,DIS,150,sira,,el,,0.817,,368.994,368.994,-0.046296296,-0.405555584,0,0,0,,0,132,132,195,1,tela,,,,
,,,,,,61230876ad65890ff8619511,676192165fb32c2e1fb7aee6,67d17260ebfde88d705806a2,2025-03-12_05h44.46.720,Tarea de decisión léxica,2024.2.5,Win32,59.95203837,,,,,,,,,,,,,,,,,,,,,,,368.995,370.16,l,1,0.488,1,370.16,370.661,,,,,,390,MAS,NOWORD,AGR,150,cenco,,el,,0.488,,370.661,370.661,-0.046296296,-0.405555584,0,0,0,,0,133,133,389,1,cerdo,,,,
,,,,,,61230876ad65890ff8619511,676192165fb32c2e1fb7aee6,67d17260ebfde88d705806a2,2025-03-12_05h44.46.720,Tarea de decisión léxica,2024.2.5,Win32,59.95203837,,,,,,,,,,,,,,,,,,,,,,,370.662,371.694,a,1,0.367,1,371.694,372.194,,,,,,377,MAS,WORD,AGR,150,hielo,,el,,0.367,,372.194,372.194,-0.046296296,-0.405555584,0,0,0,,0,134,134,376,1,gaulo,,,,
,,,,,,61230876ad65890ff8619511,676192165fb32c2e1fb7aee6,67d17260ebfde88d705806a2,2025-03-12_05h44.46.720,Tarea de decisión léxica,2024.2.5,Win32,59.95203837,,,,,,,,,,,,,,,,,,,,,,,372.195,373.227,a,1,0.355,1,373.227,373.728,,,,,,189,MAS,WORD,AGR,150,puño,,el,,0.355,,373.728,373.728,-0.046296296,-0.405555584,0,0,0,,0,135,135,188,1,muvo,,,,
,,,,,,61230876ad65890ff8619511,676192165fb32c2e1fb7aee6,67d17260ebfde88d705806a2,2025-03-12_05h44.46.720,Tarea de decisión léxica,2024.2.5,Win32,59.95203837,,,,,,,,,,,,,,,,,,,,,,,373.729,374.794,a,1,0.384,1,374.795,375.294,,,,,,53,FEM,WORD,AGR,150,boda,,la,,0.384,,375.295,375.296,-0.046296296,-0.405555584,0,0,0,,0,136,136,52,1,rora,,,,
,,,,,,61230876ad65890ff8619511,676192165fb32c2e1fb7aee6,67d17260ebfde88d705806a2,2025-03-12_05h44.46.720,Tarea de decisión léxica,2024.2.5,Win32,59.95203837,,,,,,,,,,,,,,,,,,,,,,,375.298,376.611,a,1,0.633,1,376.611,377.111,,,,,,439,FEM,WORD,DIS,150,presa,,el,,0.633,,377.111,377.111,-0.046296296,-0.405555584,0,0,0,,0,137,137,438,1,prema,,,,
,,,,,,61230876ad65890ff8619511,676192165fb32c2e1fb7aee6,67d17260ebfde88d705806a2,2025-03-12_05h44.46.720,Tarea de decisión léxica,2024.2.5,Win32,59.95203837,,,,,,,,,,,,,,,,,,,,,,,377.112,378.211,l,1,0.444,1,378.211,378.712,,,,,,62,FEM,NOWORD,AGR,150,efla,,la,,0.444,,378.712,378.712,-0.046296296,-0.405555584,0,0,0,,0,138,138,61,1,obra,,,,
,,,,,,61230876ad65890ff8619511,676192165fb32c2e1fb7aee6,67d17260ebfde88d705806a2,2025-03-12_05h44.46.720,Tarea de decisión léxica,2024.2.5,Win32,59.95203837,,,,,,,,,,,,,,,,,,,,,,,378.713,379.644,l,1,0.252,1,379.645,380.144,,,,,,88,MAS,NOWORD,DIS,150,damo,,la,,0.252,,380.144,380.144,-0.046296296,-0.405555584,0,0,0,,0,139,139,87,1,vaso,,,,
,,,,,,61230876ad65890ff8619511,676192165fb32c2e1fb7aee6,67d17260ebfde88d705806a2,2025-03-12_05h44.46.720,Tarea de decisión léxica,2024.2.5,Win32,59.95203837,,,,,,,,,,,,,,,,,,,,,,,380.146,381.329,l,1,0.501,1,381.329,381.829,,,,,,214,FEM,NOWORD,AGR,150,bana,,la,,0.501,,381.829,381.829,-0.046296296,-0.405555584,0,0,0,,0,140,140,213,1,rama,,,,
,,,,,,61230876ad65890ff8619511,676192165fb32c2e1fb7aee6,67d17260ebfde88d705806a2,2025-03-12_05h44.46.720,Tarea de decisión léxica,2024.2.5,Win32,59.95203837,,,,,,,,,,,,,,,,,,,,,,,381.83,383.029,l,1,0.516,1,383.031,383.53,,,,,,448,MAS,NOWORD,DIS,150,buaso,,la,,0.516,,383.535,383.54,-0.046296296,-0.405555584,0,0,0,,0,141,141,447,1,bolso,,,,
,,,,,,61230876ad65890ff8619511,676192165fb32c2e1fb7aee6,67d17260ebfde88d705806a2,2025-03-12_05h44.46.720,Tarea de decisión léxica,2024.2.5,Win32,59.95203837,,,,,,,,,,,,,,,,,,,,,,,383.544,384.596,l,1,0.39,1,384.597,385.095,,,,,,80,FEM,NOWORD,DIS,150,ciel,,el,,0.39,,385.096,385.097,-0.046296296,-0.405555584,0,0,0,,0,142,142,79,1,piel,,,,
,,,,,,61230876ad65890ff8619511,676192165fb32c2e1fb7aee6,67d17260ebfde88d705806a2,2025-03-12_05h44.46.720,Tarea de decisión léxica,2024.2.5,Win32,59.95203837,,,,,,,,,,,,,,,,,,,,,,,385.099,386.445,l,1,0.669,1,386.445,386.946,,,,,,432,MAS,NOWORD,DIS,150,tetor,,la,,0.669,,386.946,386.946,-0.046296296,-0.405555584,0,0,0,,0,143,143,431,1,motor,,,,
,,,,,,61230876ad65890ff8619511,676192165fb32c2e1fb7aee6,67d17260ebfde88d705806a2,2025-03-12_05h44.46.720,Tarea de decisión léxica,2024.2.5,Win32,59.95203837,,,,,,,,,,,,,,,,,,,,,,,386.949,388.113,a,1,0.492,1,388.114,388.613,,,,,,285,MAS,WORD,AGR,150,error,,el,,0.492,,388.613,388.614,-0.046296296,-0.405555584,0,0,0,,0,144,144,284,1,echor,,,,
,,,,,,61230876ad65890ff8619511,676192165fb32c2e1fb7aee6,67d17260ebfde88d705806a2,2025-03-12_05h44.46.720,Tarea de decisión léxica,2024.2.5,Win32,59.95203837,,,,,,,,,,,,,,,,,,,,,,,388.615,389.844,l,1,0.552,1,389.844,390.346,,,,,,12,MAS,NOWORD,DIS,150,bapo,,la,,0.552,,390.346,390.346,-0.046296296,-0.405555584,0,0,0,,0,145,145,11,1,lado,,,,
,,,,,,61230876ad65890ff8619511,676192165fb32c2e1fb7aee6,67d17260ebfde88d705806a2,2025-03-12_05h44.46.720,Tarea de decisión léxica,2024.2.5,Win32,59.95203837,,,,,,,,,,,,,,,,,,,,,,,390.348,391.512,l,1,0.48,1,391.513,392.012,,,,,,70,FEM,NOWORD,AGR,150,ñola,,la,,0.48,,392.015,392.017,-0.046296296,-0.405555584,0,0,0,,0,146,146,69,1,zona,,,,
,,,,,,61230876ad65890ff8619511,676192165fb32c2e1fb7aee6,67d17260ebfde88d705806a2,2025-03-12_05h44.46.720,Tarea de decisión léxica,2024.2.5,Win32,59.95203837,,,,,,,,,,,,,,,,,,,,,,,392.018,393.228,a,1,0.542,1,393.228,393.728,,,,,,247,FEM,WORD,DIS,150,chica,,el,,0.542,,393.728,393.728,-0.046296296,-0.405555584,0,0,0,,0,147,147,246,1,trida,,,,
,,,,,,61230876ad65890ff8619511,676192165fb32c2e1fb7aee6,67d17260ebfde88d705806a2,2025-03-12_05h44.46.720,Tarea de decisión léxica,2024.2.5,Win32,59.95203837,,,,,,,,,,,,,,,,,,,,,,,393.729,394.962,l,1,0.551,1,394.962,395.461,,,,,,420,MAS,NOWORD,DIS,150,chudo,,la,,0.551,,395.461,395.461,-0.046296296,-0.405555584,0,0,0,,0,148,148,419,1,truco,,,,
,,,,,,61230876ad65890ff8619511,676192165fb32c2e1fb7aee6,67d17260ebfde88d705806a2,2025-03-12_05h44.46.720,Tarea de decisión léxica,2024.2.5,Win32,59.95203837,,,,,,,,,,,,,,,,,,,,,,,395.463,396.645,a,1,0.502,1,396.645,397.145,,,,,,301,FEM,WORD,AGR,150,banda,,la,,0.502,,397.145,397.145,-0.046296296,-0.405555584,0,0,0,,0,149,149,300,1,ranga,,,,
,,,,,,61230876ad65890ff8619511,676192165fb32c2e1fb7aee6,67d17260ebfde88d705806a2,2025-03-12_05h44.46.720,Tarea de decisión léxica,2024.2.5,Win32,59.95203837,,,,,,,,,,,,,,,,,,,,,,,397.147,398.512,a,1,0.683,1,398.512,399.012,,,,,,473,FEM,WORD,AGR,150,feria,,la,,0.683,,399.012,399.012,-0.046296296,-0.405555584,0,0,0,,0,150,150,472,1,felia,,,,
,,,,,,61230876ad65890ff8619511,676192165fb32c2e1fb7aee6,67d17260ebfde88d705806a2,2025-03-12_05h44.46.720,Tarea de decisión léxica,2024.2.5,Win32,59.95203837,,,,,,,,,,,,,,,,,,,,,,,399.013,400.278,l,1,0.605,1,400.278,400.779,,,,,,302,FEM,NOWORD,AGR,150,ranga,,la,,0.605,,400.781,400.783,-0.046296296,-0.405555584,0,0,0,,0,151,151,301,1,banda,,,,
,,,,,,61230876ad65890ff8619511,676192165fb32c2e1fb7aee6,67d17260ebfde88d705806a2,2025-03-12_05h44.46.720,Tarea de decisión léxica,2024.2.5,Win32,59.95203837,,,,,,,,,,,,,,,,,,,,,,,400.786,402.096,l,1,0.64,1,402.096,402.595,,,,,,408,FEM,NOWORD,DIS,150,cauba,,el,,0.64,,402.595,402.595,-0.046296296,-0.405555584,0,0,0,,0,152,152,407,1,cueva,,,,
,,,,,,61230876ad65890ff8619511,676192165fb32c2e1fb7aee6,67d17260ebfde88d705806a2,2025-03-12_05h44.46.720,Tarea de decisión léxica,2024.2.5,Win32,59.95203837,,,,,,,,,,,,,,,,,,,,,,,402.596,403.813,a,1,0.533,1,403.813,404.313,,,,,,219,FEM,WORD,DIS,150,pipa,,el,,0.533,,404.314,404.314,-0.046296296,-0.405555584,0,0,0,,0,153,153,218,1,miva,,,,
,,,,,,61230876ad65890ff8619511,676192165fb32c2e1fb7aee6,67d17260ebfde88d705806a2,2025-03-12_05h44.46.720,Tarea de decisión léxica,2024.2.5,Win32,59.95203837,,,,,,,,,,,,,,,,,,,,,,,404.315,405.612,a,1,0.627,1,405.613,406.112,,,,,,369,MAS,WORD,AGR,150,ruido,,el,,0.627,,406.112,406.112,-0.046296296,-0.405555584,0,0,0,,0,154,154,368,1,rioco,,,,
,,,,,,61230876ad65890ff8619511,676192165fb32c2e1fb7aee6,67d17260ebfde88d705806a2,2025-03-12_05h44.46.720,Tarea de decisión léxica,2024.2.5,Win32,59.95203837,,,,,,,,,,,,,,,,,,,,,,,406.114,407.862,l,1,1.069,1,407.862,408.362,,,,,,36,MAS,NOWORD,DIS,150,meno,,la,,1.069,,408.363,408.364,-0.046296296,-0.405555584,0,0,0,,0,155,155,35,1,pelo,,,,
,,,,,,61230876ad65890ff8619511,676192165fb32c2e1fb7aee6,67d17260ebfde88d705806a2,2025-03-12_05h44.46.720,Tarea de decisión léxica,2024.2.5,Win32,59.95203837,,,,,,,,,,,,,,,,,,,,,,,408.366,409.696,l,1,0.651,1,409.696,410.195,,,,,,300,FEM,NOWORD,DIS,150,bosga,,el,,0.651,,410.195,410.195,-0.046296296,-0.405555584,0,0,0,,0,156,156,299,1,bolsa,,,,
,,,,,,61230876ad65890ff8619511,676192165fb32c2e1fb7aee6,67d17260ebfde88d705806a2,2025-03-12_05h44.46.720,Tarea de decisión léxica,2024.2.5,Win32,59.95203837,,,,,,,,,,,,,,,,,,,,,,,410.197,411.595,a,1,0.722,1,411.595,412.096,,,,,,209,MAS,WORD,AGR,150,velo,,el,,0.722,,412.096,412.096,-0.046296296,-0.405555584,0,0,0,,0,157,157,208,1,dero,,,,
,,,,,,61230876ad65890ff8619511,676192165fb32c2e1fb7aee6,67d17260ebfde88d705806a2,2025-03-12_05h44.46.720,Tarea de decisión léxica,2024.2.5,Win32,59.95203837,,,,,,,,,,,,,,,,,,,,,,,412.097,413.147,a,1,0.368,1,413.15,413.645,,,,,,321,MAS,WORD,AGR,150,banco,,el,,0.368,,413.646,413.646,-0.046296296,-0.405555584,0,0,0,,0,158,158,320,1,rarco,,,,
,,,,,,61230876ad65890ff8619511,676192165fb32c2e1fb7aee6,67d17260ebfde88d705806a2,2025-03-12_05h44.46.720,Tarea de decisión léxica,2024.2.5,Win32,59.95203837,,,,,,,,,,,,,,,,,,,,,,,413.652,414.797,a,1,0.471,1,414.797,415.296,,,,,,153,MAS,WORD,AGR,150,pato,,el,,0.471,,415.296,415.296,-0.046296296,-0.405555584,0,0,0,,0,159,159,152,1,tado,,,,
,,,,,,61230876ad65890ff8619511,676192165fb32c2e1fb7aee6,67d17260ebfde88d705806a2,2025-03-12_05h44.46.720,Tarea de decisión léxica,2024.2.5,Win32,59.95203837,,,,,,,,,,,,,,,,,,,,,,,415.297,416.496,l,1,0.513,1,416.496,416.996,,,,,,58,MAS,NOWORD,AGR,150,heco,,el,,0.513,,416.998,465.515,-0.045370384,-0.390740712,0,0,0,space,0,160,160,57,1,dedo,48.465,,,
,,,,,,61230876ad65890ff8619511,676192165fb32c2e1fb7aee6,67d17260ebfde88d705806a2,2025-03-12_05h44.46.720,Tarea de decisión léxica,2024.2.5,Win32,59.95203837,,,,,,,,,,,,,,,,,,,,,,,465.522,467.248,a,0,1.062,0,467.25,467.747,,,,,,236,FEM,NOWORD,DIS,150,tria,,el,,1.062,,467.748,467.748,-0.045370384,-0.405555584,0,0,0,,0,161,161,235,1,grúa,,,,
,,,,,,61230876ad65890ff8619511,676192165fb32c2e1fb7aee6,67d17260ebfde88d705806a2,2025-03-12_05h44.46.720,Tarea de decisión léxica,2024.2.5,Win32,59.95203837,,,,,,,,,,,,,,,,,,,,,,,467.749,469.247,l,1,0.827,1,469.249,469.747,,,,,,178,MAS,NOWORD,AGR,150,bito,,el,,0.827,,469.747,469.747,-0.045370384,-0.405555584,0,0,0,,0,162,162,177,1,reto,,,,
,,,,,,61230876ad65890ff8619511,676192165fb32c2e1fb7aee6,67d17260ebfde88d705806a2,2025-03-12_05h44.46.720,Tarea de decisión léxica,2024.2.5,Win32,59.95203837,,,,,,,,,,,,,,,,,,,,,,,469.749,470.964,a,1,0.532,1,470.964,471.464,,,,,,343,FEM,WORD,DIS,150,plata,,el,,0.532,,471.464,471.464,-0.045370384,-0.405555584,0,0,0,,0,163,163,342,1,trada,,,,
,,,,,,61230876ad65890ff8619511,676192165fb32c2e1fb7aee6,67d17260ebfde88d705806a2,2025-03-12_05h44.46.720,Tarea de decisión léxica,2024.2.5,Win32,59.95203837,,,,,,,,,,,,,,,,,,,,,,,471.465,472.981,l,1,0.838,1,472.981,473.48,,,,,,248,FEM,NOWORD,DIS,150,trida,,el,,0.838,,473.48,473.48,-0.046296296,-0.406481496,0,0,0,,0,164,164,247,1,chica,,,,
,,,,,,61230876ad65890ff8619511,676192165fb32c2e1fb7aee6,67d17260ebfde88d705806a2,2025-03-12_05h44.46.720,Tarea de decisión léxica,2024.2.5,Win32,59.95203837,,,,,,,,,,,,,,,,,,,,,,,473.482,474.747,l,1,0.584,1,474.747,475.247,,,,,,118,MAS,NOWORD,AGR,150,movo,,el,,0.584,,475.249,475.252,-0.046296296,-0.406481496,0,0,0,,0,165,165,117,1,palo,,,,
,,,,,,61230876ad65890ff8619511,676192165fb32c2e1fb7aee6,67d17260ebfde88d705806a2,2025-03-12_05h44.46.720,Tarea de decisión léxica,2024.2.5,Win32,59.95203837,,,,,,,,,,,,,,,,,,,,,,,475.255,476.348,a,1,0.424,1,476.349,476.838,,,,,,339,MAS,WORD,DIS,150,brazo,,la,,0.424,,476.838,476.838,-0.046296296,-0.406481496,0,0,0,,0,166,166,338,1,plajo,,,,
,,,,,,61230876ad65890ff8619511,676192165fb32c2e1fb7aee6,67d17260ebfde88d705806a2,2025-03-12_05h44.46.720,Tarea de decisión léxica,2024.2.5,Win32,59.95203837,,,,,,,,,,,,,,,,,,,,,,,476.838,478.081,a,1,0.572,1,478.082,478.581,,,,,,429,FEM,WORD,AGR,150,tarta,,la,,0.572,,478.581,478.581,-0.046296296,-0.406481496,0,0,0,,0,167,167,428,1,tenta,,,,
,,,,,,61230876ad65890ff8619511,676192165fb32c2e1fb7aee6,67d17260ebfde88d705806a2,2025-03-12_05h44.46.720,Tarea de decisión léxica,2024.2.5,Win32,59.95203837,,,,,,,,,,,,,,,,,,,,,,,478.584,479.932,l,1,0.668,1,479.932,480.43,,,,,,384,FEM,NOWORD,DIS,150,brame,,el,,0.668,,480.43,480.43,-0.046296296,-0.406481496,0,0,0,,0,168,168,383,1,frase,,,,
,,,,,,61230876ad65890ff8619511,676192165fb32c2e1fb7aee6,67d17260ebfde88d705806a2,2025-03-12_05h44.46.720,Tarea de decisión léxica,2024.2.5,Win32,59.95203837,,,,,,,,,,,,,,,,,,,,,,,480.432,481.614,a,0,0.501,0,481.616,482.114,,,,,,260,MAS,NOWORD,DIS,150,jaumo,,la,,0.501,,482.114,482.114,-0.046296296,-0.406481496,0,0,0,,0,169,169,259,1,juego,,,,
,,,,,,61230876ad65890ff8619511,676192165fb32c2e1fb7aee6,67d17260ebfde88d705806a2,2025-03-12_05h44.46.720,Tarea de decisión léxica,2024.2.5,Win32,59.95203837,,,,,,,,,,,,,,,,,,,,,,,482.115,483.281,a,1,0.494,1,483.281,483.78,,,,,,49,FEM,WORD,AGR,150,edad,,la,,0.494,,483.781,483.783,-0.046296296,-0.406481496,0,0,0,,0,170,170,48,1,ecat,,,,
,,,,,,61230876ad65890ff8619511,676192165fb32c2e1fb7aee6,67d17260ebfde88d705806a2,2025-03-12_05h44.46.720,Tarea de decisión léxica,2024.2.5,Win32,59.95203837,,,,,,,,,,,,,,,,,,,,,,,483.785,485.814,l,1,1.353,1,485.814,486.313,,,,,,366,FEM,NOWORD,AGR,150,gulla,,la,,1.353,,486.313,486.313,-0.046296296,-0.406481496,0,0,0,,0,171,171,365,1,ducha,,,,
,,,,,,61230876ad65890ff8619511,676192165fb32c2e1fb7aee6,67d17260ebfde88d705806a2,2025-03-12_05h44.46.720,Tarea de decisión léxica,2024.2.5,Win32,59.95203837,,,,,,,,,,,,,,,,,,,,,,,486.315,487.53,a,1,0.537,1,487.531,488.031,,,,,,325,FEM,WORD,AGR,150,magia,,la,,0.537,,488.031,488.031,-0.046296296,-0.406481496,0,0,0,,0,172,172,324,1,mabia,,,,
,,,,,,61230876ad65890ff8619511,676192165fb32c2e1fb7aee6,67d17260ebfde88d705806a2,2025-03-12_05h44.46.720,Tarea de decisión léxica,2024.2.5,Win32,59.95203837,,,,,,,,,,,,,,,,,,,,,,,488.032,489.38,l,1,0.668,1,489.381,489.881,,,,,,400,MAS,NOWORD,DIS,150,serro,,la,,0.668,,489.882,489.882,-0.046296296,-0.406481496,0,0,0,,0,173,173,399,1,techo,,,,
,,,,,,61230876ad65890ff8619511,676192165fb32c2e1fb7aee6,67d17260ebfde88d705806a2,2025-03-12_05h44.46.720,Tarea de decisión léxica,2024.2.5,Win32,59.95203837,,,,,,,,,,,,,,,,,,,,,,,489.883,491.098,l,1,0.535,1,491.099,491.598,,,,,,72,FEM,NOWORD,DIS,150,urla,,el,,0.535,,491.598,491.598,-0.046296296,-0.406481496,0,0,0,,0,174,174,71,1,isla,,,,
,,,,,,61230876ad65890ff8619511,676192165fb32c2e1fb7aee6,67d17260ebfde88d705806a2,2025-03-12_05h44.46.720,Tarea de decisión léxica,2024.2.5,Win32,59.95203837,,,,,,,,,,,,,,,,,,,,,,,491.6,492.864,l,1,0.584,1,492.864,493.365,,,,,,138,MAS,NOWORD,AGR,150,pamo,,el,,0.584,,493.366,493.367,-0.046296296,-0.406481496,0,0,0,,0,175,175,137,1,nene,,,,
,,,,,,61230876ad65890ff8619511,676192165fb32c2e1fb7aee6,67d17260ebfde88d705806a2,2025-03-12_05h44.46.720,Tarea de decisión léxica,2024.2.5,Win32,59.95203837,,,,,,,,,,,,,,,,,,,,,,,493.369,494.498,a,1,0.453,1,494.498,494.998,,,,,,277,MAS,WORD,AGR,150,fuego,,el,,0.453,,494.998,494.998,-0.046296296,-0.406481496,0,0,0,,0,176,176,276,1,vuemo,,,,
,,,,,,61230876ad65890ff8619511,676192165fb32c2e1fb7aee6,67d17260ebfde88d705806a2,2025-03-12_05h44.46.720,Tarea de decisión léxica,2024.2.5,Win32,59.95203837,,,,,,,,,,,,,,,,,,,,,,,495,496.098,a,1,0.419,1,496.098,496.6,,,,,,243,MAS,WORD,DIS,150,amigo,,la,,0.419,,496.6,496.6,-0.046296296,-0.406481496,0,0,0,,0,177,177,242,1,asamo,,,,
,,,,,,61230876ad65890ff8619511,676192165fb32c2e1fb7aee6,67d17260ebfde88d705806a2,2025-03-12_05h44.46.720,Tarea de decisión léxica,2024.2.5,Win32,59.95203837,,,,,,,,,,,,,,,,,,,,,,,496.601,497.815,l,1,0.54,1,497.815,498.315,,,,,,30,MAS,NOWORD,AGR,150,pono,,el,,0.54,,498.315,498.315,-0.046296296,-0.406481496,0,0,0,,0,178,178,29,1,modo,,,,
,,,,,,61230876ad65890ff8619511,676192165fb32c2e1fb7aee6,67d17260ebfde88d705806a2,2025-03-12_05h44.46.720,Tarea de decisión léxica,2024.2.5,Win32,59.95203837,,,,,,,,,,,,,,,,,,,,,,,498.317,499.348,l,0,0.35,0,499.349,499.848,,,,,,39,MAS,WORD,DIS,150,voto,,la,,0.35,,499.849,499.85,-0.046296296,-0.406481496,0,0,0,,0,179,179,38,1,redo,,,,
,,,,,,61230876ad65890ff8619511,676192165fb32c2e1fb7aee6,67d17260ebfde88d705806a2,2025-03-12_05h44.46.720,Tarea de decisión léxica,2024.2.5,Win32,59.95203837,,,,,,,,,,,,,,,,,,,,,,,499.852,501.081,l,0,0.557,0,501.081,501.581,,,,,,125,MAS,WORD,AGR,150,lujo,,el,,0.557,,501.581,501.581,-0.046296296,-0.406481496,0,0,0,,0,180,180,124,1,vudo,,,,
,,,,,,61230876ad65890ff8619511,676192165fb32c2e1fb7aee6,67d17260ebfde88d705806a2,2025-03-12_05h44.46.720,Tarea de decisión léxica,2024.2.5,Win32,59.95203837,,,,,,,,,,,,,,,,,,,,,,,501.582,502.664,a,1,0.404,1,502.665,503.164,,,,,,79,FEM,WORD,DIS,150,piel,,el,,0.404,,503.164,503.164,-0.046296296,-0.406481496,0,0,0,,0,181,181,78,1,ciel,,,,
,,,,,,61230876ad65890ff8619511,676192165fb32c2e1fb7aee6,67d17260ebfde88d705806a2,2025-03-12_05h44.46.720,Tarea de decisión léxica,2024.2.5,Win32,59.95203837,,,,,,,,,,,,,,,,,,,,,,,503.166,504.347,l,1,0.508,1,504.348,504.849,,,,,,440,FEM,NOWORD,DIS,150,prema,,el,,0.508,,504.849,504.849,-0.046296296,-0.406481496,0,0,0,,0,182,182,439,1,presa,,,,
,,,,,,61230876ad65890ff8619511,676192165fb32c2e1fb7aee6,67d17260ebfde88d705806a2,2025-03-12_05h44.46.720,Tarea de decisión léxica,2024.2.5,Win32,59.95203837,,,,,,,,,,,,,,,,,,,,,,,504.85,506.247,l,1,0.714,1,506.248,506.748,,,,,,202,FEM,NOWORD,AGR,150,cusa,,la,,0.714,,506.748,506.748,-0.046296296,-0.406481496,0,0,0,,0,183,183,201,1,cuna,,,,
,,,,,,61230876ad65890ff8619511,676192165fb32c2e1fb7aee6,67d17260ebfde88d705806a2,2025-03-12_05h44.46.720,Tarea de decisión léxica,2024.2.5,Win32,59.95203837,,,,,,,,,,,,,,,,,,,,,,,506.749,507.898,a,1,0.47,1,507.899,508.397,,,,,,59,FEM,WORD,DIS,150,sala,,el,,0.47,,508.399,508.4,-0.046296296,-0.406481496,0,0,0,,0,184,184,58,1,tafa,,,,
,,,,,,61230876ad65890ff8619511,676192165fb32c2e1fb7aee6,67d17260ebfde88d705806a2,2025-03-12_05h44.46.720,Tarea de decisión léxica,2024.2.5,Win32,59.95203837,,,,,,,,,,,,,,,,,,,,,,,508.401,509.631,a,1,0.551,1,509.631,510.131,,,,,,57,MAS,WORD,AGR,150,dedo,,el,,0.551,,510.131,510.132,-0.046296296,-0.406481496,0,0,0,,0,185,185,56,1,heco,,,,
,,,,,,61230876ad65890ff8619511,676192165fb32c2e1fb7aee6,67d17260ebfde88d705806a2,2025-03-12_05h44.46.720,Tarea de decisión léxica,2024.2.5,Win32,59.95203837,,,,,,,,,,,,,,,,,,,,,,,510.133,511.366,l,1,0.554,1,511.368,511.865,,,,,,466,FEM,NOWORD,AGR,150,asuba,,la,,0.554,,511.865,511.865,-0.046296296,-0.406481496,0,0,0,,0,186,186,465,1,aguja,,,,
,,,,,,61230876ad65890ff8619511,676192165fb32c2e1fb7aee6,67d17260ebfde88d705806a2,2025-03-12_05h44.46.720,Tarea de decisión léxica,2024.2.5,Win32,59.95203837,,,,,,,,,,,,,,,,,,,,,,,511.869,513.131,l,1,0.591,1,513.131,513.632,,,,,,242,MAS,NOWORD,AGR,150,mirdo,,el,,0.591,,513.632,513.632,-0.046296296,-0.406481496,0,0,0,,0,187,187,241,1,mundo,,,,
,,,,,,61230876ad65890ff8619511,676192165fb32c2e1fb7aee6,67d17260ebfde88d705806a2,2025-03-12_05h44.46.720,Tarea de decisión léxica,2024.2.5,Win32,59.95203837,,,,,,,,,,,,,,,,,,,,,,,513.633,514.815,a,0,0.503,0,514.816,515.315,,,,,,164,FEM,NOWORD,DIS,150,laga,,el,,0.503,,515.315,515.315,-0.046296296,-0.406481496,0,0,0,,0,188,188,163,1,fama,,,,
,,,,,,61230876ad65890ff8619511,676192165fb32c2e1fb7aee6,67d17260ebfde88d705806a2,2025-03-12_05h44.46.720,Tarea de decisión léxica,2024.2.5,Win32,59.95203837,,,,,,,,,,,,,,,,,,,,,,,515.317,516.648,a,1,0.653,1,516.649,517.148,,,,,,371,FEM,WORD,DIS,150,pasta,,el,,0.653,,517.149,517.151,-0.046296296,-0.406481496,0,0,0,,0,189,189,370,1,mosta,,,,
,,,,,,61230876ad65890ff8619511,676192165fb32c2e1fb7aee6,67d17260ebfde88d705806a2,2025-03-12_05h44.46.720,Tarea de decisión léxica,2024.2.5,Win32,59.95203837,,,,,,,,,,,,,,,,,,,,,,,517.152,518.565,a,1,0.733,1,518.565,519.064,,,,,,453,FEM,WORD,AGR,150,mafia,,la,,0.733,,519.065,519.066,-0.046296296,-0.406481496,0,0,0,,0,190,190,452,1,pafia,,,,
,,,,,,61230876ad65890ff8619511,676192165fb32c2e1fb7aee6,67d17260ebfde88d705806a2,2025-03-12_05h44.46.720,Tarea de decisión léxica,2024.2.5,Win32,59.95203837,,,,,,,,,,,,,,,,,,,,,,,519.067,520.331,l,1,0.586,1,520.332,520.831,,,,,,122,MAS,NOWORD,AGR,150,bomo,,el,,0.586,,520.831,520.831,-0.046296296,-0.406481496,0,0,0,,0,191,191,121,1,hoyo,,,,
,,,,,,61230876ad65890ff8619511,676192165fb32c2e1fb7aee6,67d17260ebfde88d705806a2,2025-03-12_05h44.46.720,Tarea de decisión léxica,2024.2.5,Win32,59.95203837,,,,,,,,,,,,,,,,,,,,,,,520.833,522.182,a,1,0.672,1,522.182,522.681,,,,,,75,MAS,WORD,DIS,150,olor,,la,,0.672,,522.681,522.681,-0.046296296,-0.406481496,0,0,0,,0,192,192,74,1,ocer,,,,
,,,,,,61230876ad65890ff8619511,676192165fb32c2e1fb7aee6,67d17260ebfde88d705806a2,2025-03-12_05h44.46.720,Tarea de decisión léxica,2024.2.5,Win32,59.95203837,,,,,,,,,,,,,,,,,,,,,,,522.683,523.699,a,0,0.356,0,523.7,524.198,,,,,,238,MAS,NOWORD,AGR,150,huco,,el,,0.356,,524.198,524.198,-0.046296296,-0.406481496,0,0,0,,0,193,193,237,1,nudo,,,,
,,,,,,61230876ad65890ff8619511,676192165fb32c2e1fb7aee6,67d17260ebfde88d705806a2,2025-03-12_05h44.46.720,Tarea de decisión léxica,2024.2.5,Win32,59.95203837,,,,,,,,,,,,,,,,,,,,,,,524.2,525.448,a,1,0.567,1,525.449,525.949,,,,,,23,FEM,WORD,DIS,150,hija,,el,,0.567,,525.949,525.951,-0.046296296,-0.406481496,0,0,0,,0,194,194,22,1,giva,,,,
,,,,,,61230876ad65890ff8619511,676192165fb32c2e1fb7aee6,67d17260ebfde88d705806a2,2025-03-12_05h44.46.720,Tarea de decisión léxica,2024.2.5,Win32,59.95203837,,,,,,,,,,,,,,,,,,,,,,,525.952,527.082,a,1,0.45,1,527.082,527.581,,,,,,123,FEM,WORD,DIS,150,flor,,el,,0.45,,527.581,527.582,-0.046296296,-0.406481496,0,0,0,,0,195,195,122,1,maba,,,,
,,,,,,61230876ad65890ff8619511,676192165fb32c2e1fb7aee6,67d17260ebfde88d705806a2,2025-03-12_05h44.46.720,Tarea de decisión léxica,2024.2.5,Win32,59.95203837,,,,,,,,,,,,,,,,,,,,,,,527.583,528.798,a,1,0.535,1,528.799,529.298,,,,,,419,MAS,WORD,DIS,150,truco,,la,,0.535,,529.298,529.298,-0.046296296,-0.406481496,0,0,0,,0,196,196,418,1,chudo,,,,
,,,,,,61230876ad65890ff8619511,676192165fb32c2e1fb7aee6,67d17260ebfde88d705806a2,2025-03-12_05h44.46.720,Tarea de decisión léxica,2024.2.5,Win32,59.95203837,,,,,,,,,,,,,,,,,,,,,,,529.3,530.632,l,1,0.652,1,530.632,531.131,,,,,,50,FEM,NOWORD,AGR,150,ecat,,la,,0.652,,531.132,531.132,-0.046296296,-0.406481496,0,0,0,,0,197,197,49,1,edad,,,,
,,,,,,61230876ad65890ff8619511,676192165fb32c2e1fb7aee6,67d17260ebfde88d705806a2,2025-03-12_05h44.46.720,Tarea de decisión léxica,2024.2.5,Win32,59.95203837,,,,,,,,,,,,,,,,,,,,,,,531.133,532.432,a,1,0.617,1,532.433,532.932,,,,,,175,FEM,WORD,DIS,150,goma,,el,,0.617,,532.932,532.932,-0.046296296,-0.406481496,0,0,0,,0,198,198,174,1,hosa,,,,
,,,,,,61230876ad65890ff8619511,676192165fb32c2e1fb7aee6,67d17260ebfde88d705806a2,2025-03-12_05h44.46.720,Tarea de decisión léxica,2024.2.5,Win32,59.95203837,,,,,,,,,,,,,,,,,,,,,,,532.933,534.265,a,1,0.666,1,534.265,534.765,,,,,,289,FEM,WORD,AGR,150,bomba,,la,,0.666,,534.766,534.767,-0.046296296,-0.406481496,0,0,0,,0,199,199,288,1,bumpa,,,,
,,,,,,61230876ad65890ff8619511,676192165fb32c2e1fb7aee6,67d17260ebfde88d705806a2,2025-03-12_05h44.46.720,Tarea de decisión léxica,2024.2.5,Win32,59.95203837,,,,,,,,,,,,,,,,,,,,,,,534.768,536.032,l,1,0.592,1,536.032,536.532,,,,,,304,MAS,NOWORD,DIS,150,lanco,,la,,0.592,,536.532,536.532,-0.046296296,-0.406481496,0,0,0,,0,200,200,303,1,barco,,,,
,,,,,,61230876ad65890ff8619511,676192165fb32c2e1fb7aee6,67d17260ebfde88d705806a2,2025-03-12_05h44.46.720,Tarea de decisión léxica,2024.2.5,Win32,59.95203837,,,,,,,,,,,,,,,,,,,,,,,536.533,537.883,l,1,0.674,1,537.883,538.382,,,,,,454,FEM,NOWORD,AGR,150,pafia,,la,,0.674,,538.383,538.383,-0.046296296,-0.406481496,0,0,0,,0,201,201,453,1,mafia,,,,
,,,,,,61230876ad65890ff8619511,676192165fb32c2e1fb7aee6,67d17260ebfde88d705806a2,2025-03-12_05h44.46.720,Tarea de decisión léxica,2024.2.5,Win32,59.95203837,,,,,,,,,,,,,,,,,,,,,,,538.384,539.682,l,1,0.623,1,539.683,540.182,,,,,,464,FEM,NOWORD,DIS,150,matla,,el,,0.623,,540.182,540.183,-0.046296296,-0.406481496,0,0,0,,0,202,202,463,1,cabra,,,,
,,,,,,61230876ad65890ff8619511,676192165fb32c2e1fb7aee6,67d17260ebfde88d705806a2,2025-03-12_05h44.46.720,Tarea de decisión léxica,2024.2.5,Win32,59.95203837,,,,,,,,,,,,,,,,,,,,,,,540.183,541.432,a,1,0.566,1,541.432,541.932,,,,,,417,FEM,WORD,AGR,150,barba,,la,,0.566,,541.933,541.934,-0.046296296,-0.406481496,0,0,0,,0,203,203,416,1,banja,,,,
,,,,,,61230876ad65890ff8619511,676192165fb32c2e1fb7aee6,67d17260ebfde88d705806a2,2025-03-12_05h44.46.720,Tarea de decisión léxica,2024.2.5,Win32,59.95203837,,,,,,,,,,,,,,,,,,,,,,,541.935,543.249,a,1,0.637,1,543.25,543.749,,,,,,137,MAS,WORD,AGR,150,nene,,el,,0.637,,543.749,543.749,-0.046296296,-0.406481496,0,0,0,,0,204,204,136,1,pamo,,,,
,,,,,,61230876ad65890ff8619511,676192165fb32c2e1fb7aee6,67d17260ebfde88d705806a2,2025-03-12_05h44.46.720,Tarea de decisión léxica,2024.2.5,Win32,59.95203837,,,,,,,,,,,,,,,,,,,,,,,543.75,545.134,l,1,0.705,1,545.135,545.632,,,,,,172,MAS,NOWORD,DIS,150,niro,,la,,0.705,,545.632,545.633,-0.046296296,-0.406481496,0,0,0,,0,205,205,171,1,hilo,,,,
,,,,,,61230876ad65890ff8619511,676192165fb32c2e1fb7aee6,67d17260ebfde88d705806a2,2025-03-12_05h44.46.720,Tarea de decisión léxica,2024.2.5,Win32,59.95203837,,,,,,,,,,,,,,,,,,,,,,,545.638,546.849,l,1,0.54,1,546.849,547.349,,,,,,190,MAS,NOWORD,AGR,150,muvo,,el,,0.54,,547.349,547.35,-0.046296296,-0.406481496,0,0,0,,0,206,206,189,1,puño,,,,
,,,,,,61230876ad65890ff8619511,676192165fb32c2e1fb7aee6,67d17260ebfde88d705806a2,2025-03-12_05h44.46.720,Tarea de decisión léxica,2024.2.5,Win32,59.95203837,,,,,,,,,,,,,,,,,,,,,,,547.351,548.649,l,1,0.617,1,548.649,549.149,,,,,,388,FEM,NOWORD,DIS,150,bresa,,el,,0.617,,549.15,549.15,-0.046296296,-0.406481496,0,0,0,,0,207,207,387,1,crema,,,,
,,,,,,61230876ad65890ff8619511,676192165fb32c2e1fb7aee6,67d17260ebfde88d705806a2,2025-03-12_05h44.46.720,Tarea de decisión léxica,2024.2.5,Win32,59.95203837,,,,,,,,,,,,,,,,,,,,,,,549.151,550.249,a,1,0.417,1,550.25,550.749,,,,,,45,FEM,WORD,AGR,150,mesa,,la,,0.417,,550.75,550.752,-0.046296296,-0.406481496,0,0,0,,0,208,208,44,1,pema,,,,
,,,,,,61230876ad65890ff8619511,676192165fb32c2e1fb7aee6,67d17260ebfde88d705806a2,2025-03-12_05h44.46.720,Tarea de decisión léxica,2024.2.5,Win32,59.95203837,,,,,,,,,,,,,,,,,,,,,,,550.754,552.066,l,1,0.635,1,552.066,552.567,,,,,,210,MAS,NOWORD,AGR,150,dero,,el,,0.635,,552.567,552.567,-0.041666667,-0.412962949,0,0,0,,0,209,209,209,1,velo,,,,
,,,,,,61230876ad65890ff8619511,676192165fb32c2e1fb7aee6,67d17260ebfde88d705806a2,2025-03-12_05h44.46.720,Tarea de decisión léxica,2024.2.5,Win32,59.95203837,,,,,,,,,,,,,,,,,,,,,,,552.567,553.8,l,1,0.549,1,553.8,554.299,,,,,,40,MAS,NOWORD,DIS,150,redo,,la,,0.549,,554.3,554.3,-0.041666667,-0.412962949,0,0,0,,0,210,210,39,1,voto,,,,
,,,,,,61230876ad65890ff8619511,676192165fb32c2e1fb7aee6,67d17260ebfde88d705806a2,2025-03-12_05h44.46.720,Tarea de decisión léxica,2024.2.5,Win32,59.95203837,,,,,,,,,,,,,,,,,,,,,,,554.301,555.517,a,1,0.538,1,555.517,556.017,,,,,,93,FEM,WORD,AGR,150,bola,,la,,0.538,,556.017,556.017,-0.037037037,-0.421296296,0,0,0,,0,211,211,92,1,rona,,,,
,,,,,,61230876ad65890ff8619511,676192165fb32c2e1fb7aee6,67d17260ebfde88d705806a2,2025-03-12_05h44.46.720,Tarea de decisión léxica,2024.2.5,Win32,59.95203837,,,,,,,,,,,,,,,,,,,,,,,556.019,557.384,l,1,0.687,1,557.384,557.884,,,,,,320,MAS,NOWORD,DIS,150,tuero,,la,,0.687,,557.884,557.884,-0.037037037,-0.421296296,0,0,0,,0,212,212,319,1,suelo,,,,
,,,,,,61230876ad65890ff8619511,676192165fb32c2e1fb7aee6,67d17260ebfde88d705806a2,2025-03-12_05h44.46.720,Tarea de decisión léxica,2024.2.5,Win32,59.95203837,,,,,,,,,,,,,,,,,,,,,,,557.886,559.171,l,1,0.614,1,559.172,559.667,,,,,,244,MAS,NOWORD,DIS,150,asamo,,la,,0.614,,559.668,559.67,-0.037037037,-0.421296296,0,0,0,,0,213,213,243,1,amigo,,,,
,,,,,,61230876ad65890ff8619511,676192165fb32c2e1fb7aee6,67d17260ebfde88d705806a2,2025-03-12_05h44.46.720,Tarea de decisión léxica,2024.2.5,Win32,59.95203837,,,,,,,,,,,,,,,,,,,,,,,559.671,560.833,l,1,0.491,1,560.833,561.333,,,,,,86,MAS,NOWORD,AGR,150,babo,,el,,0.491,,561.333,561.333,-0.037037037,-0.421296296,0,0,0,,0,214,214,85,1,lago,,,,
,,,,,,61230876ad65890ff8619511,676192165fb32c2e1fb7aee6,67d17260ebfde88d705806a2,2025-03-12_05h44.46.720,Tarea de decisión léxica,2024.2.5,Win32,59.95203837,,,,,,,,,,,,,,,,,,,,,,,561.334,562.384,a,1,0.373,1,562.384,562.883,,,,,,317,FEM,WORD,AGR,150,playa,,la,,0.373,,562.883,562.883,-0.037037037,-0.421296296,0,0,0,,0,215,215,316,1,plaad,,,,
,,,,,,61230876ad65890ff8619511,676192165fb32c2e1fb7aee6,67d17260ebfde88d705806a2,2025-03-12_05h44.46.720,Tarea de decisión léxica,2024.2.5,Win32,59.95203837,,,,,,,,,,,,,,,,,,,,,,,562.886,564.101,a,1,0.54,1,564.101,564.6,,,,,,173,FEM,WORD,AGR,150,rosa,,la,,0.54,,564.6,564.601,-0.037037037,-0.421296296,0,0,0,,0,216,216,172,1,boma,,,,
,,,,,,61230876ad65890ff8619511,676192165fb32c2e1fb7aee6,67d17260ebfde88d705806a2,2025-03-12_05h44.46.720,Tarea de decisión léxica,2024.2.5,Win32,59.95203837,,,,,,,,,,,,,,,,,,,,,,,564.601,565.767,l,1,0.486,1,565.767,566.259,,,,,,290,FEM,NOWORD,AGR,150,bumpa,,la,,0.486,,566.26,566.26,-0.037037037,-0.421296296,0,0,0,,0,217,217,289,1,bomba,,,,
,,,,,,61230876ad65890ff8619511,676192165fb32c2e1fb7aee6,67d17260ebfde88d705806a2,2025-03-12_05h44.46.720,Tarea de decisión léxica,2024.2.5,Win32,59.95203837,,,,,,,,,,,,,,,,,,,,,,,566.261,567.4,l,1,0.474,1,567.401,567.889,,,,,,254,MAS,NOWORD,AGR,150,trido,,el,,0.474,,567.89,567.892,-0.037037037,-0.421296296,0,0,0,,0,218,218,253,1,chico,,,,
,,,,,,61230876ad65890ff8619511,676192165fb32c2e1fb7aee6,67d17260ebfde88d705806a2,2025-03-12_05h44.46.720,Tarea de decisión léxica,2024.2.5,Win32,59.95203837,,,,,,,,,,,,,,,,,,,,,,,567.893,568.968,l,1,0.404,1,568.968,569.473,,,,,,48,MAS,NOWORD,DIS,150,chub,,la,,0.404,,569.473,569.473,-0.037037037,-0.421296296,0,0,0,,0,219,219,47,1,club,,,,
,,,,,,61230876ad65890ff8619511,676192165fb32c2e1fb7aee6,67d17260ebfde88d705806a2,2025-03-12_05h44.46.720,Tarea de decisión léxica,2024.2.5,Win32,59.95203837,,,,,,,,,,,,,,,,,,,,,,,569.474,570.587,a,1,0.436,1,570.588,571.09,,,,,,7,MAS,WORD,DIS,150,hijo,,la,,0.436,,571.09,571.092,-0.037037037,-0.421296296,0,0,0,,0,220,220,6,1,nivo,,,,
,,,,,,61230876ad65890ff8619511,676192165fb32c2e1fb7aee6,67d17260ebfde88d705806a2,2025-03-12_05h44.46.720,Tarea de decisión léxica,2024.2.5,Win32,59.95203837,,,,,,,,,,,,,,,,,,,,,,,571.093,572.172,l,0,0.403,0,572.173,572.669,,,,,,71,FEM,WORD,DIS,150,isla,,el,,0.403,,572.669,572.669,-0.037037037,-0.421296296,0,0,0,,0,221,221,70,1,urla,,,,
,,,,,,61230876ad65890ff8619511,676192165fb32c2e1fb7aee6,67d17260ebfde88d705806a2,2025-03-12_05h44.46.720,Tarea de decisión léxica,2024.2.5,Win32,59.95203837,,,,,,,,,,,,,,,,,,,,,,,572.671,574.067,a,1,0.712,1,574.068,574.567,,,,,,201,FEM,WORD,AGR,150,cuna,,la,,0.712,,574.567,574.567,-0.037037037,-0.421296296,0,0,0,,0,222,222,200,1,cusa,,,,
,,,,,,61230876ad65890ff8619511,676192165fb32c2e1fb7aee6,67d17260ebfde88d705806a2,2025-03-12_05h44.46.720,Tarea de decisión léxica,2024.2.5,Win32,59.95203837,,,,,,,,,,,,,,,,,,,,,,,574.569,576.084,l,0,0.834,0,576.087,576.583,,,,,,449,FEM,WORD,AGR,150,pluma,,la,,0.834,,576.585,576.588,-0.037037037,-0.421296296,0,0,0,,0,223,223,448,1,crusa,,,,
,,,,,,61230876ad65890ff8619511,676192165fb32c2e1fb7aee6,67d17260ebfde88d705806a2,2025-03-12_05h44.46.720,Tarea de decisión léxica,2024.2.5,Win32,59.95203837,,,,,,,,,,,,,,,,,,,,,,,576.592,577.7,a,1,0.433,1,577.702,578.2,,,,,,335,FEM,WORD,DIS,150,costa,,el,,0.433,,578.2,578.201,-0.039814843,-0.416666667,0,0,0,,0,224,224,334,1,pesta,,,,
,,,,,,61230876ad65890ff8619511,676192165fb32c2e1fb7aee6,67d17260ebfde88d705806a2,2025-03-12_05h44.46.720,Tarea de decisión léxica,2024.2.5,Win32,59.95203837,,,,,,,,,,,,,,,,,,,,,,,578.202,579.434,a,1,0.556,1,579.434,579.934,,,,,,387,FEM,WORD,DIS,150,crema,,el,,0.556,,579.934,579.934,-0.039814843,-0.416666667,0,0,0,,0,225,225,386,1,bresa,,,,
,,,,,,61230876ad65890ff8619511,676192165fb32c2e1fb7aee6,67d17260ebfde88d705806a2,2025-03-12_05h44.46.720,Tarea de decisión léxica,2024.2.5,Win32,59.95203837,,,,,,,,,,,,,,,,,,,,,,,579.937,581.084,a,1,0.467,1,581.085,581.585,,,,,,119,MAS,WORD,DIS,150,pozo,,la,,0.467,,581.585,581.585,-0.035185213,-0.424074102,0,0,0,,0,226,226,118,1,hooy,,,,
,,,,,,61230876ad65890ff8619511,676192165fb32c2e1fb7aee6,67d17260ebfde88d705806a2,2025-03-12_05h44.46.720,Tarea de decisión léxica,2024.2.5,Win32,59.95203837,,,,,,,,,,,,,,,,,,,,,,,581.586,583.517,a,1,1.25,1,583.517,584.017,,,,,,135,MAS,WORD,DIS,150,tubo,,la,,1.25,,584.018,584.02,-0.035185213,-0.424074102,0,0,0,,0,227,227,134,1,geso,,,,
,,,,,,61230876ad65890ff8619511,676192165fb32c2e1fb7aee6,67d17260ebfde88d705806a2,2025-03-12_05h44.46.720,Tarea de decisión léxica,2024.2.5,Win32,59.95203837,,,,,,,,,,,,,,,,,,,,,,,584.022,585.301,l,1,0.601,1,585.301,585.802,,,,,,188,MAS,NOWORD,DIS,150,suto,,la,,0.601,,585.802,585.802,-0.035185213,-0.424074102,0,0,0,,0,228,228,187,1,mito,,,,
,,,,,,61230876ad65890ff8619511,676192165fb32c2e1fb7aee6,67d17260ebfde88d705806a2,2025-03-12_05h44.46.720,Tarea de decisión léxica,2024.2.5,Win32,59.95203837,,,,,,,,,,,,,,,,,,,,,,,585.804,586.957,a,1,0.479,1,586.957,587.459,,,,,,251,MAS,WORD,DIS,150,señor,,la,,0.479,,587.459,587.459,-0.035185213,-0.424074102,0,0,0,,0,229,229,250,1,refor,,,,
,,,,,,61230876ad65890ff8619511,676192165fb32c2e1fb7aee6,67d17260ebfde88d705806a2,2025-03-12_05h44.46.720,Tarea de decisión léxica,2024.2.5,Win32,59.95203837,,,,,,,,,,,,,,,,,,,,,,,587.461,588.74,l,1,0.598,1,588.74,589.235,,,,,,174,FEM,NOWORD,AGR,150,boma,,la,,0.598,,589.235,589.235,-0.035185213,-0.424074102,0,0,0,,0,230,230,173,1,rosa,,,,
,,,,,,61230876ad65890ff8619511,676192165fb32c2e1fb7aee6,67d17260ebfde88d705806a2,2025-03-12_05h44.46.720,Tarea de decisión léxica,2024.2.5,Win32,59.95203837,,,,,,,,,,,,,,,,,,,,,,,589.236,590.418,l,1,0.502,1,590.418,590.918,,,,,,378,MAS,NOWORD,AGR,150,gaulo,,el,,0.502,,590.918,590.918,-0.035185213,-0.424074102,0,0,0,,0,231,231,377,1,hielo,,,,
,,,,,,61230876ad65890ff8619511,676192165fb32c2e1fb7aee6,67d17260ebfde88d705806a2,2025-03-12_05h44.46.720,Tarea de decisión léxica,2024.2.5,Win32,59.95203837,,,,,,,,,,,,,,,,,,,,,,,590.919,591.967,a,1,0.369,1,591.967,592.468,,,,,,275,MAS,WORD,DIS,150,punto,,la,,0.369,,592.469,592.47,-0.035185213,-0.424074102,0,0,0,,0,232,232,274,1,musto,,,,
,,,,,,61230876ad65890ff8619511,676192165fb32c2e1fb7aee6,67d17260ebfde88d705806a2,2025-03-12_05h44.46.720,Tarea de decisión léxica,2024.2.5,Win32,59.95203837,,,,,,,,,,,,,,,,,,,,,,,592.474,593.568,a,1,0.419,1,593.568,594.068,,,,,,221,FEM,WORD,AGR,150,mula,,la,,0.419,,594.068,594.068,-0.035185213,-0.424074102,0,0,0,,0,233,233,220,1,puca,,,,
,,,,,,61230876ad65890ff8619511,676192165fb32c2e1fb7aee6,67d17260ebfde88d705806a2,2025-03-12_05h44.46.720,Tarea de decisión léxica,2024.2.5,Win32,59.95203837,,,,,,,,,,,,,,,,,,,,,,,594.069,595.318,a,1,0.569,1,595.318,595.818,,,,,,157,MAS,WORD,AGR,150,nido,,el,,0.569,,595.818,595.818,-0.035185213,-0.424074102,0,0,0,,0,234,234,156,1,hico,,,,
,,,,,,61230876ad65890ff8619511,676192165fb32c2e1fb7aee6,67d17260ebfde88d705806a2,2025-03-12_05h44.46.720,Tarea de decisión léxica,2024.2.5,Win32,59.95203837,,,,,,,,,,,,,,,,,,,,,,,595.819,596.918,l,1,0.423,1,596.918,597.419,,,,,,278,MAS,NOWORD,AGR,150,vuemo,,el,,0.423,,597.419,597.419,-0.035185213,-0.424074102,0,0,0,,0,235,235,277,1,fuego,,,,
,,,,,,61230876ad65890ff8619511,676192165fb32c2e1fb7aee6,67d17260ebfde88d705806a2,2025-03-12_05h44.46.720,Tarea de decisión léxica,2024.2.5,Win32,59.95203837,,,,,,,,,,,,,,,,,,,,,,,597.421,598.538,a,1,0.414,1,598.538,599.034,,,,,,269,MAS,WORD,AGR,150,perro,,el,,0.414,,599.034,599.034,-0.035185213,-0.424074102,0,0,0,,0,236,236,268,1,mello,,,,
,,,,,,61230876ad65890ff8619511,676192165fb32c2e1fb7aee6,67d17260ebfde88d705806a2,2025-03-12_05h44.46.720,Tarea de decisión léxica,2024.2.5,Win32,59.95203837,,,,,,,,,,,,,,,,,,,,,,,599.035,600.201,a,1,0.492,1,600.201,600.693,,,,,,141,FEM,WORD,AGR,150,cruz,,la,,0.492,,600.694,600.695,-0.035185213,-0.424074102,0,0,0,,0,237,237,140,1,sina,,,,
,,,,,,61230876ad65890ff8619511,676192165fb32c2e1fb7aee6,67d17260ebfde88d705806a2,2025-03-12_05h44.46.720,Tarea de decisión léxica,2024.2.5,Win32,59.95203837,,,,,,,,,,,,,,,,,,,,,,,600.698,601.759,a,1,0.377,1,601.76,602.252,,,,,,401,MAS,WORD,AGR,150,polvo,,el,,0.377,,602.252,602.253,-0.035185213,-0.424074102,0,0,0,,0,238,238,400,1,pirvo,,,,
,,,,,,61230876ad65890ff8619511,676192165fb32c2e1fb7aee6,67d17260ebfde88d705806a2,2025-03-12_05h44.46.720,Tarea de decisión léxica,2024.2.5,Win32,59.95203837,,,,,,,,,,,,,,,,,,,,,,,602.254,603.586,l,1,0.661,1,603.586,604.092,,,,,,240,MAS,NOWORD,DIS,150,poño,,la,,0.661,,604.092,604.092,-0.035185213,-0.424074102,0,0,0,,0,239,239,239,1,mozo,,,,
,,,,,,61230876ad65890ff8619511,676192165fb32c2e1fb7aee6,67d17260ebfde88d705806a2,2025-03-12_05h44.46.720,Tarea de decisión léxica,2024.2.5,Win32,59.95203837,,,,,,,,,,,,,,,,,,,,,,,604.092,605.285,a,1,0.517,1,605.285,605.786,,,,,,233,FEM,WORD,AGR,150,lana,,la,,0.517,,605.786,605.786,-0.035185213,-0.424074102,0,0,0,,0,240,240,232,1,fasa,,,,
,,,,,,61230876ad65890ff8619511,676192165fb32c2e1fb7aee6,67d17260ebfde88d705806a2,2025-03-12_05h44.46.720,Tarea de decisión léxica,2024.2.5,Win32,59.95203837,,,,,,,,,,,,,,,,,,,,,,,605.788,606.901,a,1,0.436,1,606.902,607.404,,,,,,425,FEM,WORD,AGR,150,viuda,,la,,0.436,,607.404,607.405,-0.035185213,-0.424074102,0,0,0,,0,241,241,424,1,virca,,,,
,,,,,,61230876ad65890ff8619511,676192165fb32c2e1fb7aee6,67d17260ebfde88d705806a2,2025-03-12_05h44.46.720,Tarea de decisión léxica,2024.2.5,Win32,59.95203837,,,,,,,,,,,,,,,,,,,,,,,607.413,608.501,l,1,0.423,1,608.502,609.007,,,,,,60,FEM,NOWORD,DIS,150,tafa,,el,,0.423,,609.009,609.009,-0.035185213,-0.424074102,0,0,0,,0,242,242,59,1,sala,,,,
,,,,,,61230876ad65890ff8619511,676192165fb32c2e1fb7aee6,67d17260ebfde88d705806a2,2025-03-12_05h44.46.720,Tarea de decisión léxica,2024.2.5,Win32,59.95203837,,,,,,,,,,,,,,,,,,,,,,,609.01,610.127,a,1,0.453,1,610.127,610.645,,,,,,395,FEM,WORD,DIS,150,caída,,el,,0.453,,610.645,610.645,-0.035185213,-0.424074102,0,0,0,,0,243,243,394,1,paeda,,,,
,,,,,,61230876ad65890ff8619511,676192165fb32c2e1fb7aee6,67d17260ebfde88d705806a2,2025-03-12_05h44.46.720,Tarea de decisión léxica,2024.2.5,Win32,59.95203837,,,,,,,,,,,,,,,,,,,,,,,610.647,611.901,a,1,0.589,1,611.902,612.394,,,,,,41,FEM,WORD,AGR,150,nave,,la,,0.589,,612.394,612.394,-0.035185213,-0.424074102,0,0,0,,0,244,244,40,1,haje,,,,
,,,,,,61230876ad65890ff8619511,676192165fb32c2e1fb7aee6,67d17260ebfde88d705806a2,2025-03-12_05h44.46.720,Tarea de decisión léxica,2024.2.5,Win32,59.95203837,,,,,,,,,,,,,,,,,,,,,,,612.395,614.208,a,1,1.142,1,614.208,614.701,,,,,,313,MAS,WORD,AGR,150,novio,,el,,1.142,,614.701,614.702,-0.035185213,-0.424074102,0,0,0,,0,245,245,312,1,govio,,,,
,,,,,,61230876ad65890ff8619511,676192165fb32c2e1fb7aee6,67d17260ebfde88d705806a2,2025-03-12_05h44.46.720,Tarea de decisión léxica,2024.2.5,Win32,59.95203837,,,,,,,,,,,,,,,,,,,,,,,614.703,615.985,l,1,0.6,1,615.985,616.485,,,,,,468,MAS,NOWORD,DIS,150,peiso,,la,,0.6,,616.485,616.485,-0.035185213,-0.424074102,0,0,0,,0,246,246,467,1,piano,,,,
,,,,,,61230876ad65890ff8619511,676192165fb32c2e1fb7aee6,67d17260ebfde88d705806a2,2025-03-12_05h44.46.720,Tarea de decisión léxica,2024.2.5,Win32,59.95203837,,,,,,,,,,,,,,,,,,,,,,,616.486,617.585,a,1,0.429,1,617.586,618.089,,,,,,25,FEM,WORD,AGR,150,cama,,la,,0.429,,618.09,618.092,-0.035185213,-0.424074102,0,0,0,,0,247,247,24,1,paza,,,,
,,,,,,61230876ad65890ff8619511,676192165fb32c2e1fb7aee6,67d17260ebfde88d705806a2,2025-03-12_05h44.46.720,Tarea de decisión léxica,2024.2.5,Win32,59.95203837,,,,,,,,,,,,,,,,,,,,,,,618.094,619.325,l,1,0.514,1,619.325,619.817,,,,,,256,MAS,NOWORD,DIS,150,mauco,,la,,0.514,,619.817,619.817,-0.035185213,-0.424074102,0,0,0,,0,248,248,255,1,miedo,,,,
,,,,,,61230876ad65890ff8619511,676192165fb32c2e1fb7aee6,67d17260ebfde88d705806a2,2025-03-12_05h44.46.720,Tarea de decisión léxica,2024.2.5,Win32,59.95203837,,,,,,,,,,,,,,,,,,,,,,,619.819,620.985,a,1,0.503,1,620.985,621.485,,,,,,423,MAS,WORD,DIS,150,queso,,la,,0.503,,621.485,621.485,-0.035185213,-0.424074102,0,0,0,,0,249,249,422,1,quigo,,,,
,,,,,,61230876ad65890ff8619511,676192165fb32c2e1fb7aee6,67d17260ebfde88d705806a2,2025-03-12_05h44.46.720,Tarea de decisión léxica,2024.2.5,Win32,59.95203837,,,,,,,,,,,,,,,,,,,,,,,621.487,622.641,a,1,0.479,1,622.641,623.137,,,,,,87,MAS,WORD,DIS,150,vaso,,la,,0.479,,623.137,623.138,-0.035185213,-0.424074102,0,0,0,,0,250,250,86,1,damo,,,,
,,,,,,61230876ad65890ff8619511,676192165fb32c2e1fb7aee6,67d17260ebfde88d705806a2,2025-03-12_05h44.46.720,Tarea de decisión léxica,2024.2.5,Win32,59.95203837,,,,,,,,,,,,,,,,,,,,,,,623.139,624.519,l,1,0.685,1,624.519,625.022,,,,,,182,FEM,NOWORD,AGR,150,teda,,la,,0.685,,625.023,625.024,-0.035185213,-0.424074102,0,0,0,,0,251,251,181,1,seda,,,,
,,,,,,61230876ad65890ff8619511,676192165fb32c2e1fb7aee6,67d17260ebfde88d705806a2,2025-03-12_05h44.46.720,Tarea de decisión léxica,2024.2.5,Win32,59.95203837,,,,,,,,,,,,,,,,,,,,,,,625.026,626.235,l,1,0.532,1,626.236,626.735,,,,,,380,MAS,NOWORD,DIS,150,tunso,,la,,0.532,,626.735,626.735,-0.035185213,-0.424074102,0,0,0,,0,252,252,379,1,turno,,,,
,,,,,,61230876ad65890ff8619511,676192165fb32c2e1fb7aee6,67d17260ebfde88d705806a2,2025-03-12_05h44.46.720,Tarea de decisión léxica,2024.2.5,Win32,59.95203837,,,,,,,,,,,,,,,,,,,,,,,626.737,628.085,l,1,0.671,1,628.086,628.585,,,,,,20,MAS,NOWORD,DIS,150,himo,,la,,0.671,,628.585,628.585,-0.035185213,-0.424074102,0,0,0,,0,253,253,19,1,niño,,,,
,,,,,,61230876ad65890ff8619511,676192165fb32c2e1fb7aee6,67d17260ebfde88d705806a2,2025-03-12_05h44.46.720,Tarea de decisión léxica,2024.2.5,Win32,59.95203837,,,,,,,,,,,,,,,,,,,,,,,628.587,629.818,a,1,0.56,1,629.819,630.318,,,,,,287,FEM,WORD,DIS,150,lista,,el,,0.56,,630.319,630.319,-0.035185213,-0.424074102,0,0,0,,0,254,254,286,1,fosta,,,,
,,,,,,61230876ad65890ff8619511,676192165fb32c2e1fb7aee6,67d17260ebfde88d705806a2,2025-03-12_05h44.46.720,Tarea de decisión léxica,2024.2.5,Win32,59.95203837,,,,,,,,,,,,,,,,,,,,,,,630.319,631.652,a,1,0.651,1,631.652,632.151,,,,,,413,FEM,WORD,AGR,150,rueda,,la,,0.651,,632.151,632.151,-0.035185213,-0.424074102,0,0,0,,0,255,255,412,1,bieda,,,,
,,,,,,61230876ad65890ff8619511,676192165fb32c2e1fb7aee6,67d17260ebfde88d705806a2,2025-03-12_05h44.46.720,Tarea de decisión léxica,2024.2.5,Win32,59.95203837,,,,,,,,,,,,,,,,,,,,,,,632.152,633.483,a,1,0.662,1,633.483,633.976,,,,,,149,MAS,WORD,AGR,150,cabo,,el,,0.662,,633.978,633.979,-0.035185213,-0.424074102,0,0,0,,0,256,256,148,1,pafo,,,,
,,,,,,61230876ad65890ff8619511,676192165fb32c2e1fb7aee6,67d17260ebfde88d705806a2,2025-03-12_05h44.46.720,Tarea de decisión léxica,2024.2.5,Win32,59.95203837,,,,,,,,,,,,,,,,,,,,,,,633.981,635.056,a,1,0.4,1,635.057,635.546,,,,,,345,FEM,WORD,AGR,150,arena,,la,,0.4,,635.546,635.546,-0.035185213,-0.424074102,0,0,0,,0,257,257,344,1,anera,,,,
,,,,,,61230876ad65890ff8619511,676192165fb32c2e1fb7aee6,67d17260ebfde88d705806a2,2025-03-12_05h44.46.720,Tarea de decisión léxica,2024.2.5,Win32,59.95203837,,,,,,,,,,,,,,,,,,,,,,,635.549,636.712,a,1,0.489,1,636.712,637.212,,,,,,281,MAS,WORD,AGR,150,cielo,,el,,0.489,,637.212,637.212,-0.035185213,-0.424074102,0,0,0,,0,258,258,280,1,cauro,,,,
,,,,,,61230876ad65890ff8619511,676192165fb32c2e1fb7aee6,67d17260ebfde88d705806a2,2025-03-12_05h44.46.720,Tarea de decisión léxica,2024.2.5,Win32,59.95203837,,,,,,,,,,,,,,,,,,,,,,,637.214,638.487,l,1,0.601,1,638.489,638.991,,,,,,198,MAS,NOWORD,AGR,150,dade,,el,,0.601,,638.991,638.991,-0.035185213,-0.424074102,0,0,0,,0,259,259,197,1,bate,,,,
,,,,,,61230876ad65890ff8619511,676192165fb32c2e1fb7aee6,67d17260ebfde88d705806a2,2025-03-12_05h44.46.720,Tarea de decisión léxica,2024.2.5,Win32,59.95203837,,,,,,,,,,,,,,,,,,,,,,,638.995,640.343,l,1,0.67,1,640.344,640.844,,,,,,376,FEM,NOWORD,DIS,150,sasna,,el,,0.67,,640.844,640.844,-0.035185213,-0.424074102,0,0,0,,0,260,260,375,1,salsa,,,,
,,,,,,61230876ad65890ff8619511,676192165fb32c2e1fb7aee6,67d17260ebfde88d705806a2,2025-03-12_05h44.46.720,Tarea de decisión léxica,2024.2.5,Win32,59.95203837,,,,,,,,,,,,,,,,,,,,,,,640.845,641.991,a,1,0.468,1,641.991,642.486,,,,,,461,FEM,WORD,AGR,150,tabla,,la,,0.468,,642.488,642.49,-0.035185213,-0.424074102,0,0,0,,0,261,261,460,1,pagra,,,,
,,,,,,61230876ad65890ff8619511,676192165fb32c2e1fb7aee6,67d17260ebfde88d705806a2,2025-03-12_05h44.46.720,Tarea de decisión léxica,2024.2.5,Win32,59.95203837,,,,,,,,,,,,,,,,,,,,,,,642.492,643.52,a,1,0.356,1,643.52,644.019,,,,,,427,FEM,WORD,DIS,150,oreja,,el,,0.356,,644.02,644.02,-0.035185213,-0.424074102,0,0,0,,0,262,262,426,1,oseva,,,,
,,,,,,61230876ad65890ff8619511,676192165fb32c2e1fb7aee6,67d17260ebfde88d705806a2,2025-03-12_05h44.46.720,Tarea de decisión léxica,2024.2.5,Win32,59.95203837,,,,,,,,,,,,,,,,,,,,,,,644.021,645.153,l,1,0.45,1,645.153,645.652,,,,,,186,MAS,NOWORD,AGR,150,raol,,el,,0.45,,645.652,645.653,-0.035185213,-0.424074102,0,0,0,,0,263,263,185,1,baúl,,,,
,,,,,,61230876ad65890ff8619511,676192165fb32c2e1fb7aee6,67d17260ebfde88d705806a2,2025-03-12_05h44.46.720,Tarea de decisión léxica,2024.2.5,Win32,59.95203837,,,,,,,,,,,,,,,,,,,,,,,645.654,646.755,l,1,0.427,1,646.755,647.254,,,,,,38,MAS,NOWORD,AGR,150,gaco,,el,,0.427,,647.254,647.254,-0.035185213,-0.424074102,0,0,0,,0,264,264,37,1,rato,,,,
,,,,,,61230876ad65890ff8619511,676192165fb32c2e1fb7aee6,67d17260ebfde88d705806a2,2025-03-12_05h44.46.720,Tarea de decisión léxica,2024.2.5,Win32,59.95203837,,,,,,,,,,,,,,,,,,,,,,,647.255,648.287,l,1,0.366,1,648.287,648.776,,,,,,74,MAS,NOWORD,AGR,150,omio,,el,,0.366,,648.776,648.776,-0.035185213,-0.424074102,0,0,0,,0,265,265,73,1,odio,,,,
,,,,,,61230876ad65890ff8619511,676192165fb32c2e1fb7aee6,67d17260ebfde88d705806a2,2025-03-12_05h44.46.720,Tarea de decisión léxica,2024.2.5,Win32,59.95203837,,,,,,,,,,,,,,,,,,,,,,,648.777,649.787,a,1,0.32,1,649.787,650.287,,,,,,291,FEM,WORD,DIS,150,pista,,el,,0.32,,650.288,650.29,-0.035185213,-0.424074102,0,0,0,,0,266,266,290,1,mesta,,,,
,,,,,,61230876ad65890ff8619511,676192165fb32c2e1fb7aee6,67d17260ebfde88d705806a2,2025-03-12_05h44.46.720,Tarea de decisión léxica,2024.2.5,Win32,59.95203837,,,,,,,,,,,,,,,,,,,,,,,650.291,651.436,l,1,0.478,1,651.436,651.941,,,,,,356,FEM,NOWORD,DIS,150,bepla,,el,,0.478,,651.941,651.941,-0.035185213,-0.424074102,0,0,0,,0,267,267,355,1,regla,,,,
,,,,,,61230876ad65890ff8619511,676192165fb32c2e1fb7aee6,67d17260ebfde88d705806a2,2025-03-12_05h44.46.720,Tarea de decisión léxica,2024.2.5,Win32,59.95203837,,,,,,,,,,,,,,,,,,,,,,,651.944,653.325,l,1,0.698,1,653.325,653.819,,,,,,154,MAS,NOWORD,AGR,150,tado,,el,,0.698,,653.819,653.82,-0.035185213,-0.424074102,0,0,0,,0,268,268,153,1,pato,,,,
,,,,,,61230876ad65890ff8619511,676192165fb32c2e1fb7aee6,67d17260ebfde88d705806a2,2025-03-12_05h44.46.720,Tarea de decisión léxica,2024.2.5,Win32,59.95203837,,,,,,,,,,,,,,,,,,,,,,,653.822,655.039,l,1,0.54,1,655.04,655.538,,,,,,404,FEM,NOWORD,DIS,150,grisa,,el,,0.54,,655.538,655.538,-0.035185213,-0.424074102,0,0,0,,0,269,269,403,1,prima,,,,
