counterbalancing_condition,consent_prescreening.block_1/declare_consent,consent_prescreening.block_1/age_years,consent_prescreening.block_1/gender,consent_prescreening.block_1/language_disorder,consent_prescreening.block_1/first_language,PROLIFIC_PID,STUDY_ID,SESSION_ID,date,expName,psychopyVersion,OS,frameRate,check_prescreening_answers.started,check_prescreening_answers.stopped,Instructions.started,Instructions.stopped,instr_done_keyboard.keys,instr_done_keyboard.rt,instr_done_keyboard.duration,instr_done_touch.x,instr_done_touch.y,instr_done_touch.leftButton,instr_done_touch.midButton,instr_done_touch.rightButton,instruction_pages.thisRepN,instruction_pages.thisTrialN,instruction_pages.thisN,instruction_pages.thisIndex,instruction_pages.ran,pageN,phase,instruct_text,has_image,instruct_image,presentTrial.started,presentTrial.stopped,response.keys,response.corr,rt,corr,feedback.started,feedback.stopped,practice_trials.thisRepN,practice_trials.thisTrialN,practice_trials.thisN,practice_trials.thisIndex,practice_trials.ran,TrialID,Gender,StimulusType,Condition,PrimeDuration,Prime,len,Flanker,corrAns,response.rt,response.duration,Break.started,Break.stopped,break_done_touch.x,break_done_touch.y,break_done_touch.leftButton,break_done_touch.midButton,break_done_touch.rightButton,break_done_keyboard.keys,experiment_trials.thisRepN,experiment_trials.thisTrialN,experiment_trials.thisN,experiment_trials.thisIndex,experiment_trials.ran,PairedWith,break_done_keyboard.rt,break_done_keyboard.duration,End.started,End.stopped
2,"[""over_18"",""comfortable"",""read_info"",""consent_given""]",31,M,"[""none""]","[""spanish""]",613688d0acdf68a9e2853fb5,676192165fb32c2e1fb7aee6,67d15f1afccd867805e81940,2025-03-12_07h17.37.060,Tarea de decisión léxica,2024.2.5,Win32,60.24096386,,,,,,,,,,,,,,,,,,,,,,,,,,,,,,,,,,,,,,,,,,,,,,,,,,,,,,,,,,,,,,,,
,,,,,,613688d0acdf68a9e2853fb5,676192165fb32c2e1fb7aee6,67d15f1afccd867805e81940,2025-03-12_07h17.37.060,Tarea de decisión léxica,2024.2.5,Win32,60.24096386,43.2437,43.244,,,,,,,,,,,,,,,,,,,,,,,,,,,,,,,,,,,,,,,,,,,,,,,,,,,,,,,,,,,,,,
,,,,,,613688d0acdf68a9e2853fb5,676192165fb32c2e1fb7aee6,67d15f1afccd867805e81940,2025-03-12_07h17.37.060,Tarea de decisión léxica,2024.2.5,Win32,60.24096386,,,43.2604,60.5521,space,17.2383,,0.00390625,-0.2109375,0,0,0,0,0,0,0,1,1,instructions,"INSTRUCCIONES
Va a realizar una prueba de decisión léxica. Desde el comienzo de la prueba mire siempre al centro de la pantalla. Se presentará una serie de cadenas de letras, una a la vez, en la pantalla. Su tarea consiste en determinar si cada cadena de letras constituye una palabra real en español o una no-palabra (una secuencia de letras que no constituye una palabra real). 

Pulse la tecla ESPACIO para continuar.",0,keyboardresponseNW.png,,,,,,,,,,,,,,,,,,,,,,,,,,,,,,,,,,,,,,,,,,
,,,,,,613688d0acdf68a9e2853fb5,676192165fb32c2e1fb7aee6,67d15f1afccd867805e81940,2025-03-12_07h17.37.060,Tarea de decisión léxica,2024.2.5,Win32,60.24096386,,,60.5548,73.6719,space,13.0909,,0.00390625,-0.2109375,0,0,0,0,1,1,1,1,2,instructions,"El procedimiento es el siguiente: Aparecerán dos barras verticales posicionadas en el centro de la pantalla, separadas por un pequeño espacio.Por favor, enfoque su atención en el espacio entre las barras. Esto preparará sus ojos para la siguiente cadena de letras, que aparecerá entre las dos barras durante un instante.

Pulse la tecla ESPACIO para continuar.",0,keyboardresponseNW.png,,,,,,,,,,,,,,,,,,,,,,,,,,,,,,,,,,,,,,,,,,
,,,,,,613688d0acdf68a9e2853fb5,676192165fb32c2e1fb7aee6,67d15f1afccd867805e81940,2025-03-12_07h17.37.060,Tarea de decisión léxica,2024.2.5,Win32,60.24096386,,,73.6741,91.2212,space,17.4655,,0.00390625,-0.2109375,0,0,0,0,2,2,2,1,3,instructions,"En el teclado de su dispositivo, pulse la tecla ""L"" si la cadena de letras es una palabra real en español (por ejemplo: ""mano"") y la tecla ""A"" si la cadena de letras es una no-palabra (por ejemplo: ""minu"").
Pulse la tecla ESPACIO para continuar.",1,keyboardresponseNW.png,,,,,,,,,,,,,,,,,,,,,,,,,,,,,,,,,,,,,,,,,,
,,,,,,613688d0acdf68a9e2853fb5,676192165fb32c2e1fb7aee6,67d15f1afccd867805e81940,2025-03-12_07h17.37.060,Tarea de decisión léxica,2024.2.5,Win32,60.24096386,,,91.224,104.1203,space,12.8758,,0.00390625,-0.2109375,0,0,0,0,3,3,3,1,4,instructions,"Es muy importante que responda con la mayor rapidez y precisión posibles. Si no responde dentro de 2 segundos, aparecerá el mensaje ""Muy lento"" y el experimento pasará a la siguiente palabra. Inmediatamente después de su respuesta se indicará si fue correcta o no. Los primeros 15 intentos serán de práctica y habrá dos descansos durante la prueba.

Pulse la tecla ESPACIO  para iniciar la parte de práctica.",0,keyboardresponseNW.png,,,,,,,,,,,,,,,,,,,,,,,,,,,,,,,,,,,,,,,,,,
,,,,,,613688d0acdf68a9e2853fb5,676192165fb32c2e1fb7aee6,67d15f1afccd867805e81940,2025-03-12_07h17.37.060,Tarea de decisión léxica,2024.2.5,Win32,60.24096386,,,,,,,,,,,,,,,,,,,,,,,104.1341,106.787,,0,,-1,106.7873,107.2867,0,0,0,1,1,1002,FEM,NOWORD,DIS,150,mabo,4,el,a,,,,,,,,,,,,,,,,,,,,
,,,,,,613688d0acdf68a9e2853fb5,676192165fb32c2e1fb7aee6,67d15f1afccd867805e81940,2025-03-12_07h17.37.060,Tarea de decisión léxica,2024.2.5,Win32,60.24096386,,,,,,,,,,,,,,,,,,,,,,,107.2886,109.536,a,0,1.5779,0,109.557,110.0363,0,1,1,5,1,1006,FEM,WORD,AGR,150,cara,4,la,l,1.5779,,,,,,,,,,,,,,,,,,,
,,,,,,613688d0acdf68a9e2853fb5,676192165fb32c2e1fb7aee6,67d15f1afccd867805e81940,2025-03-12_07h17.37.060,Tarea de decisión léxica,2024.2.5,Win32,60.24096386,,,,,,,,,,,,,,,,,,,,,,,110.0379,111.3862,a,1,0.667,1,111.3877,111.886,0,2,2,4,1,1005,MAS,NOWORD,DIS,150,nobad,5,la,a,0.667,,,,,,,,,,,,,,,,,,,
,,,,,,613688d0acdf68a9e2853fb5,676192165fb32c2e1fb7aee6,67d15f1afccd867805e81940,2025-03-12_07h17.37.060,Tarea de decisión léxica,2024.2.5,Win32,60.24096386,,,,,,,,,,,,,,,,,,,,,,,111.8878,113.1691,l,1,0.6131,1,113.1692,113.6696,0,3,3,9,1,1010,MAS,WORD,DIS,150,video,5,la,l,0.6131,,,,,,,,,,,,,,,,,,,
,,,,,,613688d0acdf68a9e2853fb5,676192165fb32c2e1fb7aee6,67d15f1afccd867805e81940,2025-03-12_07h17.37.060,Tarea de decisión léxica,2024.2.5,Win32,60.24096386,,,,,,,,,,,,,,,,,,,,,,,113.6709,114.986,a,1,0.6349,1,114.9861,115.4859,0,4,4,0,1,1001,FEM,NOWORD,AGR,150,croz,4,la,a,0.6349,,,,,,,,,,,,,,,,,,,
,,,,,,613688d0acdf68a9e2853fb5,676192165fb32c2e1fb7aee6,67d15f1afccd867805e81940,2025-03-12_07h17.37.060,Tarea de decisión léxica,2024.2.5,Win32,60.24096386,,,,,,,,,,,,,,,,,,,,,,,115.4875,116.7198,l,1,0.5647,1,116.7198,117.2192,0,5,5,8,1,1009,FEM,WORD,AGR,150,viejo,5,la,l,0.5647,,,,,,,,,,,,,,,,,,,
,,,,,,613688d0acdf68a9e2853fb5,676192165fb32c2e1fb7aee6,67d15f1afccd867805e81940,2025-03-12_07h17.37.060,Tarea de decisión léxica,2024.2.5,Win32,60.24096386,,,,,,,,,,,,,,,,,,,,,,,117.2207,118.4355,l,1,0.5439,1,118.4356,118.9354,0,6,6,7,1,1008,MAS,WORD,DIS,150,frío,4,la,l,0.5439,,,,,,,,,,,,,,,,,,,
,,,,,,613688d0acdf68a9e2853fb5,676192165fb32c2e1fb7aee6,67d15f1afccd867805e81940,2025-03-12_07h17.37.060,Tarea de decisión léxica,2024.2.5,Win32,60.24096386,,,,,,,,,,,,,,,,,,,,,,,118.9368,120.2853,a,1,0.6799,1,120.2854,120.7854,0,7,7,2,1,1003,FEM,NOWORD,DIS,150,muvor,5,el,a,0.6799,,,,,,,,,,,,,,,,,,,
,,,,,,613688d0acdf68a9e2853fb5,676192165fb32c2e1fb7aee6,67d15f1afccd867805e81940,2025-03-12_07h17.37.060,Tarea de decisión léxica,2024.2.5,Win32,60.24096386,,,,,,,,,,,,,,,,,,,,,,,120.7867,122.5688,a,1,1.1023,1,122.569,123.0689,0,8,8,3,1,1004,FEM,NOWORD,AGR,150,bireo,5,la,a,1.1023,,,,,,,,,,,,,,,,,,,
,,,,,,613688d0acdf68a9e2853fb5,676192165fb32c2e1fb7aee6,67d15f1afccd867805e81940,2025-03-12_07h17.37.060,Tarea de decisión léxica,2024.2.5,Win32,60.24096386,,,,,,,,,,,,,,,,,,,,,,,123.0708,124.3355,l,1,0.5847,1,124.3357,124.8355,0,9,9,6,1,1007,MAS,WORD,DIS,150,masa,4,la,l,0.5847,,,,,,,,,,,,,,,,,,,
,,,,,,613688d0acdf68a9e2853fb5,676192165fb32c2e1fb7aee6,67d15f1afccd867805e81940,2025-03-12_07h17.37.060,Tarea de decisión léxica,2024.2.5,Win32,60.24096386,,,131.9871,139.818,space,7.8088,,0.00390625,-0.2109375,0,0,0,,,,,,,,,,,139.8616,141.2507,l,1,0.7215,1,141.2508,141.7507,,,,,,211,FEM,WORD,AGR,150,joya,,la,,0.7215,,141.7512,141.7552,0.00390625,-0.2109375,0,0,0,,0,0,0,210,1,joad,,,,
,,,,,,613688d0acdf68a9e2853fb5,676192165fb32c2e1fb7aee6,67d15f1afccd867805e81940,2025-03-12_07h17.37.060,Tarea de decisión léxica,2024.2.5,Win32,60.24096386,,,,,,,,,,,,,,,,,,,,,,,141.756,142.9202,l,1,0.5002,1,142.9203,143.4177,,,,,,111,MAS,WORD,AGR,150,muro,,el,,0.5002,,143.4179,143.418,0.00390625,-0.2109375,0,0,0,,0,1,1,110,1,siro,,,,
,,,,,,613688d0acdf68a9e2853fb5,676192165fb32c2e1fb7aee6,67d15f1afccd867805e81940,2025-03-12_07h17.37.060,Tarea de decisión léxica,2024.2.5,Win32,60.24096386,,,,,,,,,,,,,,,,,,,,,,,143.4194,144.9177,a,1,0.824,1,144.9177,145.4178,,,,,,12,MAS,NOWORD,AGR,150,bapo,,el,,0.824,,145.4191,145.4196,0.00390625,-0.2109375,0,0,0,,0,2,2,11,1,lado,,,,
,,,,,,613688d0acdf68a9e2853fb5,676192165fb32c2e1fb7aee6,67d15f1afccd867805e81940,2025-03-12_07h17.37.060,Tarea de decisión léxica,2024.2.5,Win32,60.24096386,,,,,,,,,,,,,,,,,,,,,,,145.4202,146.6837,l,1,0.5955,1,146.6838,147.184,,,,,,81,FEM,WORD,DIS,150,dama,,el,,0.5955,,147.1841,147.1842,0.00390625,-0.2109375,0,0,0,,0,3,3,80,1,vasa,,,,
,,,,,,613688d0acdf68a9e2853fb5,676192165fb32c2e1fb7aee6,67d15f1afccd867805e81940,2025-03-12_07h17.37.060,Tarea de decisión léxica,2024.2.5,Win32,60.24096386,,,,,,,,,,,,,,,,,,,,,,,147.1855,148.3168,a,1,0.4633,1,148.3169,148.8174,,,,,,260,MAS,NOWORD,AGR,150,jaumo,,el,,0.4633,,148.8175,148.8176,0.00390625,-0.2109375,0,0,0,,0,4,4,259,1,juego,,,,
,,,,,,613688d0acdf68a9e2853fb5,676192165fb32c2e1fb7aee6,67d15f1afccd867805e81940,2025-03-12_07h17.37.060,Tarea de decisión léxica,2024.2.5,Win32,60.24096386,,,,,,,,,,,,,,,,,,,,,,,148.8187,150.1172,a,1,0.6176,1,150.1173,150.6171,,,,,,472,FEM,NOWORD,AGR,150,prana,,la,,0.6176,,150.6171,150.6173,0.00390625,-0.2109375,0,0,0,,0,5,5,471,1,grasa,,,,
,,,,,,613688d0acdf68a9e2853fb5,676192165fb32c2e1fb7aee6,67d15f1afccd867805e81940,2025-03-12_07h17.37.060,Tarea de decisión léxica,2024.2.5,Win32,60.24096386,,,,,,,,,,,,,,,,,,,,,,,150.6183,151.6501,a,0,0.362,0,151.6507,152.1501,,,,,,47,MAS,WORD,AGR,150,club,,el,,0.362,,152.1503,152.1505,0.00390625,-0.2109375,0,0,0,,0,6,6,46,1,chub,,,,
,,,,,,613688d0acdf68a9e2853fb5,676192165fb32c2e1fb7aee6,67d15f1afccd867805e81940,2025-03-12_07h17.37.060,Tarea de decisión léxica,2024.2.5,Win32,60.24096386,,,,,,,,,,,,,,,,,,,,,,,152.152,153.336,a,0,0.5169,0,153.3361,153.8339,,,,,,393,FEM,WORD,DIS,150,aldea,,el,,0.5169,,153.8359,153.8365,0.00390625,-0.2109375,0,0,0,,0,7,7,392,1,ashea,,,,
,,,,,,613688d0acdf68a9e2853fb5,676192165fb32c2e1fb7aee6,67d15f1afccd867805e81940,2025-03-12_07h17.37.060,Tarea de decisión léxica,2024.2.5,Win32,60.24096386,,,,,,,,,,,,,,,,,,,,,,,153.8372,155.0859,a,1,0.5831,1,155.0866,155.5837,,,,,,412,MAS,NOWORD,AGR,150,mobro,,el,,0.5831,,155.5838,155.584,0.00390625,-0.2109375,0,0,0,,0,8,8,411,1,pollo,,,,
,,,,,,613688d0acdf68a9e2853fb5,676192165fb32c2e1fb7aee6,67d15f1afccd867805e81940,2025-03-12_07h17.37.060,Tarea de decisión léxica,2024.2.5,Win32,60.24096386,,,,,,,,,,,,,,,,,,,,,,,155.5852,156.7165,l,1,0.4593,1,156.7167,157.2165,,,,,,87,MAS,WORD,AGR,150,vaso,,el,,0.4593,,157.2166,157.2167,0.00390625,-0.2109375,0,0,0,,0,9,9,86,1,damo,,,,
,,,,,,613688d0acdf68a9e2853fb5,676192165fb32c2e1fb7aee6,67d15f1afccd867805e81940,2025-03-12_07h17.37.060,Tarea de decisión léxica,2024.2.5,Win32,60.24096386,,,,,,,,,,,,,,,,,,,,,,,157.218,158.4502,a,1,0.5559,1,158.4503,158.9502,,,,,,42,FEM,NOWORD,DIS,150,haje,,el,,0.5559,,158.9502,158.9505,0.00390625,-0.2109375,0,0,0,,0,10,10,41,1,nave,,,,
,,,,,,613688d0acdf68a9e2853fb5,676192165fb32c2e1fb7aee6,67d15f1afccd867805e81940,2025-03-12_07h17.37.060,Tarea de decisión léxica,2024.2.5,Win32,60.24096386,,,,,,,,,,,,,,,,,,,,,,,158.9513,160.1337,l,1,0.5086,1,160.1339,160.6336,,,,,,401,MAS,WORD,DIS,150,polvo,,la,,0.5086,,160.6351,160.6355,0.00390625,-0.2109375,0,0,0,,0,11,11,400,1,pirvo,,,,
,,,,,,613688d0acdf68a9e2853fb5,676192165fb32c2e1fb7aee6,67d15f1afccd867805e81940,2025-03-12_07h17.37.060,Tarea de decisión léxica,2024.2.5,Win32,60.24096386,,,,,,,,,,,,,,,,,,,,,,,160.6361,161.8998,a,1,0.5844,1,161.8998,162.3999,,,,,,388,FEM,NOWORD,AGR,150,bresa,,la,,0.5844,,162.4,162.4001,0.00390625,-0.2109375,0,0,0,,0,12,12,387,1,crema,,,,
,,,,,,613688d0acdf68a9e2853fb5,676192165fb32c2e1fb7aee6,67d15f1afccd867805e81940,2025-03-12_07h17.37.060,Tarea de decisión léxica,2024.2.5,Win32,60.24096386,,,,,,,,,,,,,,,,,,,,,,,162.4012,163.5993,l,1,0.5277,1,163.5994,164.0996,,,,,,3,FEM,WORD,AGR,150,vida,,la,,0.5277,,164.0996,164.0998,0.00390625,-0.2109375,0,0,0,,0,13,13,2,1,dica,,,,
,,,,,,613688d0acdf68a9e2853fb5,676192165fb32c2e1fb7aee6,67d15f1afccd867805e81940,2025-03-12_07h17.37.060,Tarea de decisión léxica,2024.2.5,Win32,60.24096386,,,,,,,,,,,,,,,,,,,,,,,164.1015,165.3331,a,1,0.5506,1,165.3333,165.8331,,,,,,292,FEM,NOWORD,AGR,150,mesta,,la,,0.5506,,165.8331,165.8333,0.00390625,-0.2109375,0,0,0,,0,14,14,291,1,pista,,,,
,,,,,,613688d0acdf68a9e2853fb5,676192165fb32c2e1fb7aee6,67d15f1afccd867805e81940,2025-03-12_07h17.37.060,Tarea de decisión léxica,2024.2.5,Win32,60.24096386,,,,,,,,,,,,,,,,,,,,,,,165.8342,167.1831,l,1,0.6709,1,167.1833,167.683,,,,,,389,MAS,WORD,DIS,150,cerdo,,la,,0.6709,,167.6831,167.6832,0.00390625,-0.2109375,0,0,0,,0,15,15,388,1,cenco,,,,
,,,,,,613688d0acdf68a9e2853fb5,676192165fb32c2e1fb7aee6,67d15f1afccd867805e81940,2025-03-12_07h17.37.060,Tarea de decisión léxica,2024.2.5,Win32,60.24096386,,,,,,,,,,,,,,,,,,,,,,,167.6843,168.8829,a,1,0.5208,1,168.883,169.3828,,,,,,256,MAS,NOWORD,AGR,150,mauco,,el,,0.5208,,169.3842,169.3847,0.00390625,-0.2109375,0,0,0,,0,16,16,255,1,miedo,,,,
,,,,,,613688d0acdf68a9e2853fb5,676192165fb32c2e1fb7aee6,67d15f1afccd867805e81940,2025-03-12_07h17.37.060,Tarea de decisión léxica,2024.2.5,Win32,60.24096386,,,,,,,,,,,,,,,,,,,,,,,169.3855,170.6659,a,1,0.6026,1,170.666,171.1658,,,,,,462,FEM,NOWORD,DIS,150,pagra,,el,,0.6026,,171.166,171.1661,0.00390625,-0.2109375,0,0,0,,0,17,17,461,1,tabla,,,,
,,,,,,613688d0acdf68a9e2853fb5,676192165fb32c2e1fb7aee6,67d15f1afccd867805e81940,2025-03-12_07h17.37.060,Tarea de decisión léxica,2024.2.5,Win32,60.24096386,,,,,,,,,,,,,,,,,,,,,,,171.1671,172.2492,l,1,0.4025,1,172.2493,172.7488,,,,,,245,FEM,WORD,DIS,150,madre,,el,,0.4025,,172.7488,172.7489,0.00390625,-0.2109375,0,0,0,,0,18,18,244,1,pafle,,,,
,,,,,,613688d0acdf68a9e2853fb5,676192165fb32c2e1fb7aee6,67d15f1afccd867805e81940,2025-03-12_07h17.37.060,Tarea de decisión léxica,2024.2.5,Win32,60.24096386,,,,,,,,,,,,,,,,,,,,,,,172.7498,174.2326,l,1,0.803,1,174.2327,174.7321,,,,,,23,FEM,WORD,AGR,150,hija,,la,,0.803,,174.7321,174.7322,0.00390625,-0.2109375,0,0,0,,0,19,19,22,1,giva,,,,
,,,,,,613688d0acdf68a9e2853fb5,676192165fb32c2e1fb7aee6,67d15f1afccd867805e81940,2025-03-12_07h17.37.060,Tarea de decisión léxica,2024.2.5,Win32,60.24096386,,,,,,,,,,,,,,,,,,,,,,,174.7337,175.7819,l,1,0.38,1,175.7819,176.2824,,,,,,17,FEM,WORD,DIS,150,mamá,,el,,0.38,,176.2825,176.2826,0.00390625,-0.2109375,0,0,0,,0,20,20,16,1,paba,,,,
,,,,,,613688d0acdf68a9e2853fb5,676192165fb32c2e1fb7aee6,67d15f1afccd867805e81940,2025-03-12_07h17.37.060,Tarea de decisión léxica,2024.2.5,Win32,60.24096386,,,,,,,,,,,,,,,,,,,,,,,176.2834,177.449,a,1,0.4916,1,177.4491,177.9502,,,,,,280,FEM,NOWORD,AGR,150,grina,,la,,0.4916,,177.9514,177.952,0.00390625,-0.2109375,0,0,0,,0,21,21,279,1,prisa,,,,
,,,,,,613688d0acdf68a9e2853fb5,676192165fb32c2e1fb7aee6,67d15f1afccd867805e81940,2025-03-12_07h17.37.060,Tarea de decisión léxica,2024.2.5,Win32,60.24096386,,,,,,,,,,,,,,,,,,,,,,,177.9525,179.2173,a,1,0.6001,1,179.2174,179.7151,,,,,,2,FEM,NOWORD,DIS,150,mada,,el,,0.6001,,179.7151,179.7153,0.00390625,-0.2109375,0,0,0,,0,22,22,1,1,casa,,,,
,,,,,,613688d0acdf68a9e2853fb5,676192165fb32c2e1fb7aee6,67d15f1afccd867805e81940,2025-03-12_07h17.37.060,Tarea de decisión léxica,2024.2.5,Win32,60.24096386,,,,,,,,,,,,,,,,,,,,,,,179.7166,180.9817,l,0,0.5968,0,180.9824,181.4822,,,,,,328,MAS,NOWORD,AGR,150,lendo,,el,,0.5968,,181.4823,181.4824,0.00390625,-0.2109375,0,0,0,,0,23,23,327,1,fondo,,,,
,,,,,,613688d0acdf68a9e2853fb5,676192165fb32c2e1fb7aee6,67d15f1afccd867805e81940,2025-03-12_07h17.37.060,Tarea de decisión léxica,2024.2.5,Win32,60.24096386,,,,,,,,,,,,,,,,,,,,,,,181.4836,182.7818,l,1,0.6198,1,182.783,183.282,,,,,,257,FEM,WORD,DIS,150,amiga,,el,,0.6198,,183.2821,183.2822,0.00390625,-0.2109375,0,0,0,,0,24,24,256,1,asama,,,,
,,,,,,613688d0acdf68a9e2853fb5,676192165fb32c2e1fb7aee6,67d15f1afccd867805e81940,2025-03-12_07h17.37.060,Tarea de decisión léxica,2024.2.5,Win32,60.24096386,,,,,,,,,,,,,,,,,,,,,,,183.2834,184.4985,l,1,0.5483,1,184.4989,184.9979,,,,,,261,MAS,WORD,DIS,150,sitio,,la,,0.5483,,184.998,184.998,0.00390625,-0.2109375,0,0,0,,0,25,25,260,1,titio,,,,
,,,,,,613688d0acdf68a9e2853fb5,676192165fb32c2e1fb7aee6,67d15f1afccd867805e81940,2025-03-12_07h17.37.060,Tarea de decisión léxica,2024.2.5,Win32,60.24096386,,,,,,,,,,,,,,,,,,,,,,,184.9996,186.1979,l,1,0.5171,1,186.1979,186.6981,,,,,,331,MAS,WORD,AGR,150,éxito,,el,,0.5171,,186.6997,186.7002,0.00390625,-0.2109375,0,0,0,,0,26,26,330,1,erato,,,,
,,,,,,613688d0acdf68a9e2853fb5,676192165fb32c2e1fb7aee6,67d15f1afccd867805e81940,2025-03-12_07h17.37.060,Tarea de decisión léxica,2024.2.5,Win32,60.24096386,,,,,,,,,,,,,,,,,,,,,,,186.7008,187.9477,a,1,0.5784,1,187.9478,188.4477,,,,,,282,MAS,NOWORD,DIS,150,cauro,,la,,0.5784,,188.4478,188.4479,0.00390625,-0.2109375,0,0,0,,0,27,27,281,1,cielo,,,,
,,,,,,613688d0acdf68a9e2853fb5,676192165fb32c2e1fb7aee6,67d15f1afccd867805e81940,2025-03-12_07h17.37.060,Tarea de decisión léxica,2024.2.5,Win32,60.24096386,,,,,,,,,,,,,,,,,,,,,,,188.449,189.5811,a,1,0.4626,1,189.5812,190.081,,,,,,276,MAS,NOWORD,AGR,150,musto,,el,,0.4626,,190.081,190.0812,0.00390625,-0.2109375,0,0,0,,0,28,28,275,1,punto,,,,
,,,,,,613688d0acdf68a9e2853fb5,676192165fb32c2e1fb7aee6,67d15f1afccd867805e81940,2025-03-12_07h17.37.060,Tarea de decisión léxica,2024.2.5,Win32,60.24096386,,,,,,,,,,,,,,,,,,,,,,,190.0819,191.2978,l,1,0.539,1,191.2978,191.7976,,,,,,83,FEM,WORD,AGR,150,bala,,la,,0.539,,191.7977,191.7978,0.00390625,-0.2109375,0,0,0,,0,29,29,82,1,taga,,,,
,,,,,,613688d0acdf68a9e2853fb5,676192165fb32c2e1fb7aee6,67d15f1afccd867805e81940,2025-03-12_07h17.37.060,Tarea de decisión léxica,2024.2.5,Win32,60.24096386,,,,,,,,,,,,,,,,,,,,,,,191.7988,193.3307,a,1,0.863,1,193.3309,193.8311,,,,,,450,FEM,NOWORD,DIS,150,crusa,,el,,0.863,,193.8312,193.8313,0.00390625,-0.2109375,0,0,0,,0,30,30,449,1,pluma,,,,
,,,,,,613688d0acdf68a9e2853fb5,676192165fb32c2e1fb7aee6,67d15f1afccd867805e81940,2025-03-12_07h17.37.060,Tarea de decisión léxica,2024.2.5,Win32,60.24096386,,,,,,,,,,,,,,,,,,,,,,,193.8323,194.9839,l,1,0.4838,1,194.9839,195.4812,,,,,,105,FEM,WORD,DIS,150,sopa,,el,,0.4838,,195.4827,195.4832,0.00390625,-0.2109375,0,0,0,,0,31,31,104,1,vina,,,,
,,,,,,613688d0acdf68a9e2853fb5,676192165fb32c2e1fb7aee6,67d15f1afccd867805e81940,2025-03-12_07h17.37.060,Tarea de decisión léxica,2024.2.5,Win32,60.24096386,,,,,,,,,,,,,,,,,,,,,,,195.4837,196.6478,l,1,0.4834,1,196.6479,197.1477,,,,,,341,MAS,WORD,DIS,150,valor,,la,,0.4834,,197.1478,197.1479,0.00390625,-0.2109375,0,0,0,,0,32,32,340,1,daror,,,,
,,,,,,613688d0acdf68a9e2853fb5,676192165fb32c2e1fb7aee6,67d15f1afccd867805e81940,2025-03-12_07h17.37.060,Tarea de decisión léxica,2024.2.5,Win32,60.24096386,,,,,,,,,,,,,,,,,,,,,,,197.1492,198.2641,a,1,0.4336,1,198.2642,198.764,,,,,,142,FEM,NOWORD,DIS,150,sina,,el,,0.4336,,198.7641,198.7642,0.00390625,-0.2109375,0,0,0,,0,33,33,141,1,cruz,,,,
,,,,,,613688d0acdf68a9e2853fb5,676192165fb32c2e1fb7aee6,67d15f1afccd867805e81940,2025-03-12_07h17.37.060,Tarea de decisión léxica,2024.2.5,Win32,60.24096386,,,,,,,,,,,,,,,,,,,,,,,198.7656,199.9849,l,1,0.5518,1,199.985,200.4808,,,,,,263,FEM,WORD,AGR,150,vista,,la,,0.5518,,200.4809,200.4811,0.00390625,-0.2109375,0,0,0,,0,34,34,262,1,dosta,,,,
,,,,,,613688d0acdf68a9e2853fb5,676192165fb32c2e1fb7aee6,67d15f1afccd867805e81940,2025-03-12_07h17.37.060,Tarea de decisión léxica,2024.2.5,Win32,60.24096386,,,,,,,,,,,,,,,,,,,,,,,200.4821,201.8138,a,1,0.6736,1,201.814,202.3141,,,,,,46,FEM,NOWORD,DIS,150,pema,,el,,0.6736,,202.3162,202.3166,0.00390625,-0.2109375,0,0,0,,0,35,35,45,1,mesa,,,,
,,,,,,613688d0acdf68a9e2853fb5,676192165fb32c2e1fb7aee6,67d15f1afccd867805e81940,2025-03-12_07h17.37.060,Tarea de decisión léxica,2024.2.5,Win32,60.24096386,,,,,,,,,,,,,,,,,,,,,,,202.3172,203.4801,l,1,0.4806,1,203.4803,203.9805,,,,,,127,MAS,WORD,AGR,150,pico,,el,,0.4806,,203.9806,203.9808,0.00390625,-0.2109375,0,0,0,,0,36,36,126,1,itio,,,,
,,,,,,613688d0acdf68a9e2853fb5,676192165fb32c2e1fb7aee6,67d15f1afccd867805e81940,2025-03-12_07h17.37.060,Tarea de decisión léxica,2024.2.5,Win32,60.24096386,,,,,,,,,,,,,,,,,,,,,,,203.9824,205.1303,l,1,0.4694,1,205.1305,205.6305,,,,,,189,MAS,WORD,DIS,150,puño,,la,,0.4694,,205.6306,205.6306,0.00390625,-0.2109375,0,0,0,,0,37,37,188,1,muvo,,,,
,,,,,,613688d0acdf68a9e2853fb5,676192165fb32c2e1fb7aee6,67d15f1afccd867805e81940,2025-03-12_07h17.37.060,Tarea de decisión léxica,2024.2.5,Win32,60.24096386,,,,,,,,,,,,,,,,,,,,,,,205.632,206.7139,a,1,0.404,1,206.714,207.2133,,,,,,414,FEM,NOWORD,DIS,150,bieda,,el,,0.404,,207.2134,207.2135,0.00390625,-0.2109375,0,0,0,,0,38,38,413,1,rueda,,,,
,,,,,,613688d0acdf68a9e2853fb5,676192165fb32c2e1fb7aee6,67d15f1afccd867805e81940,2025-03-12_07h17.37.060,Tarea de decisión léxica,2024.2.5,Win32,60.24096386,,,,,,,,,,,,,,,,,,,,,,,207.2147,208.4634,a,1,0.5808,1,208.4635,208.9637,,,,,,158,MAS,NOWORD,DIS,150,hico,,la,,0.5808,,208.9638,208.9639,0.00390625,-0.2109375,0,0,0,,0,39,39,157,1,nido,,,,
,,,,,,613688d0acdf68a9e2853fb5,676192165fb32c2e1fb7aee6,67d15f1afccd867805e81940,2025-03-12_07h17.37.060,Tarea de decisión léxica,2024.2.5,Win32,60.24096386,,,,,,,,,,,,,,,,,,,,,,,208.9657,210.097,a,1,0.4553,1,210.0971,210.5967,,,,,,262,MAS,NOWORD,DIS,150,titio,,la,,0.4553,,210.5982,210.5987,0.00390625,-0.2109375,0,0,0,,0,40,40,261,1,sitio,,,,
,,,,,,613688d0acdf68a9e2853fb5,676192165fb32c2e1fb7aee6,67d15f1afccd867805e81940,2025-03-12_07h17.37.060,Tarea de decisión léxica,2024.2.5,Win32,60.24096386,,,,,,,,,,,,,,,,,,,,,,,210.5994,211.7797,a,1,0.5119,1,211.7798,212.2795,,,,,,234,FEM,NOWORD,DIS,150,fasa,,el,,0.5119,,212.2796,212.2797,0.00390625,-0.2109375,0,0,0,,0,41,41,233,1,lana,,,,
,,,,,,613688d0acdf68a9e2853fb5,676192165fb32c2e1fb7aee6,67d15f1afccd867805e81940,2025-03-12_07h17.37.060,Tarea de decisión léxica,2024.2.5,Win32,60.24096386,,,,,,,,,,,,,,,,,,,,,,,212.2805,213.3629,a,1,0.4306,1,213.363,213.8634,,,,,,126,MAS,NOWORD,DIS,150,vudo,,la,,0.4306,,213.8635,213.8636,0.00390625,-0.2109375,0,0,0,,0,42,42,125,1,lujo,,,,
,,,,,,613688d0acdf68a9e2853fb5,676192165fb32c2e1fb7aee6,67d15f1afccd867805e81940,2025-03-12_07h17.37.060,Tarea de decisión léxica,2024.2.5,Win32,60.24096386,,,,,,,,,,,,,,,,,,,,,,,213.8648,215.0467,l,1,0.5021,1,215.0468,215.5461,,,,,,173,FEM,WORD,DIS,150,rosa,,el,,0.5021,,215.5462,215.5463,0.00390625,-0.2109375,0,0,0,,0,43,43,172,1,boma,,,,
,,,,,,613688d0acdf68a9e2853fb5,676192165fb32c2e1fb7aee6,67d15f1afccd867805e81940,2025-03-12_07h17.37.060,Tarea de decisión léxica,2024.2.5,Win32,60.24096386,,,,,,,,,,,,,,,,,,,,,,,215.5474,216.7297,a,1,0.5017,1,216.7299,217.2295,,,,,,130,MAS,NOWORD,DIS,150,pima,,la,,0.5017,,217.2295,217.2298,0.00390625,-0.2109375,0,0,0,,0,44,44,129,1,oído,,,,
,,,,,,613688d0acdf68a9e2853fb5,676192165fb32c2e1fb7aee6,67d15f1afccd867805e81940,2025-03-12_07h17.37.060,Tarea de decisión léxica,2024.2.5,Win32,60.24096386,,,,,,,,,,,,,,,,,,,,,,,217.2313,218.396,a,1,0.4882,1,218.396,218.8965,,,,,,470,MAS,NOWORD,DIS,150,matia,,la,,0.4882,,218.8977,218.8985,0.00390625,-0.2109375,0,0,0,,0,45,45,469,1,patio,,,,
,,,,,,613688d0acdf68a9e2853fb5,676192165fb32c2e1fb7aee6,67d15f1afccd867805e81940,2025-03-12_07h17.37.060,Tarea de decisión léxica,2024.2.5,Win32,60.24096386,,,,,,,,,,,,,,,,,,,,,,,218.899,220.0125,a,1,0.4345,1,220.0127,220.5124,,,,,,350,MAS,NOWORD,DIS,150,cosir,,la,,0.4345,,220.5125,220.5125,0.00390625,-0.2109375,0,0,0,,0,46,46,349,1,color,,,,
,,,,,,613688d0acdf68a9e2853fb5,676192165fb32c2e1fb7aee6,67d15f1afccd867805e81940,2025-03-12_07h17.37.060,Tarea de decisión léxica,2024.2.5,Win32,60.24096386,,,,,,,,,,,,,,,,,,,,,,,220.5139,221.6962,l,1,0.5044,1,221.6964,222.1957,,,,,,215,FEM,WORD,AGR,150,raíz,,la,,0.5044,,222.1957,222.1959,0.00390625,-0.2109375,0,0,0,,0,47,47,214,1,raua,,,,
,,,,,,613688d0acdf68a9e2853fb5,676192165fb32c2e1fb7aee6,67d15f1afccd867805e81940,2025-03-12_07h17.37.060,Tarea de decisión léxica,2024.2.5,Win32,60.24096386,,,,,,,,,,,,,,,,,,,,,,,222.1971,223.496,l,1,0.619,1,223.4962,223.9961,,,,,,463,FEM,WORD,AGR,150,cabra,,la,,0.619,,223.9963,223.9965,0.00390625,-0.2109375,0,0,0,,0,48,48,462,1,matla,,,,
,,,,,,613688d0acdf68a9e2853fb5,676192165fb32c2e1fb7aee6,67d15f1afccd867805e81940,2025-03-12_07h17.37.060,Tarea de decisión léxica,2024.2.5,Win32,60.24096386,,,,,,,,,,,,,,,,,,,,,,,223.9978,225.9459,l,1,1.2713,1,225.9459,226.4457,,,,,,357,FEM,WORD,DIS,150,bruja,,el,,1.2713,,226.4458,226.4459,0.00390625,-0.2109375,0,0,0,,0,49,49,356,1,gruba,,,,
,,,,,,613688d0acdf68a9e2853fb5,676192165fb32c2e1fb7aee6,67d15f1afccd867805e81940,2025-03-12_07h17.37.060,Tarea de decisión léxica,2024.2.5,Win32,60.24096386,,,,,,,,,,,,,,,,,,,,,,,226.447,227.496,a,1,0.3686,1,227.4961,227.9958,,,,,,50,FEM,NOWORD,DIS,150,ecat,,el,,0.3686,,227.997,227.9976,0.00390625,-0.2109375,0,0,0,,0,50,50,49,1,edad,,,,
,,,,,,613688d0acdf68a9e2853fb5,676192165fb32c2e1fb7aee6,67d15f1afccd867805e81940,2025-03-12_07h17.37.060,Tarea de decisión léxica,2024.2.5,Win32,60.24096386,,,,,,,,,,,,,,,,,,,,,,,227.9982,229.0459,l,1,0.3737,1,229.0461,229.5459,,,,,,267,MAS,WORD,AGR,150,libro,,el,,0.3737,,229.546,229.5461,0.00390625,-0.2109375,0,0,0,,0,51,51,266,1,figro,,,,
,,,,,,613688d0acdf68a9e2853fb5,676192165fb32c2e1fb7aee6,67d15f1afccd867805e81940,2025-03-12_07h17.37.060,Tarea de decisión léxica,2024.2.5,Win32,60.24096386,,,,,,,,,,,,,,,,,,,,,,,229.5469,230.6954,l,1,0.4753,1,230.6955,231.1953,,,,,,33,FEM,WORD,DIS,150,boca,,el,,0.4753,,231.1954,231.1954,0.00390625,-0.2109375,0,0,0,,0,52,52,32,1,loda,,,,
,,,,,,613688d0acdf68a9e2853fb5,676192165fb32c2e1fb7aee6,67d15f1afccd867805e81940,2025-03-12_07h17.37.060,Tarea de decisión léxica,2024.2.5,Win32,60.24096386,,,,,,,,,,,,,,,,,,,,,,,231.1966,232.312,a,1,0.4364,1,232.3122,232.8118,,,,,,448,MAS,NOWORD,AGR,150,buaso,,el,,0.4364,,232.8118,232.8118,0.00390625,-0.2109375,0,0,0,,0,53,53,447,1,bolso,,,,
,,,,,,613688d0acdf68a9e2853fb5,676192165fb32c2e1fb7aee6,67d15f1afccd867805e81940,2025-03-12_07h17.37.060,Tarea de decisión léxica,2024.2.5,Win32,60.24096386,,,,,,,,,,,,,,,,,,,,,,,232.8127,233.9789,l,1,0.4938,1,233.9789,234.4785,,,,,,21,MAS,WORD,DIS,150,plan,,la,,0.4938,,234.4786,234.4786,0.00390625,-0.2109375,0,0,0,,0,54,54,20,1,blan,,,,
,,,,,,613688d0acdf68a9e2853fb5,676192165fb32c2e1fb7aee6,67d15f1afccd867805e81940,2025-03-12_07h17.37.060,Tarea de decisión léxica,2024.2.5,Win32,60.24096386,,,,,,,,,,,,,,,,,,,,,,,234.4797,235.7115,l,1,0.5638,1,235.7115,236.212,,,,,,135,MAS,WORD,AGR,150,tubo,,el,,0.5638,,236.2134,236.2142,0.00390625,-0.2109375,0,0,0,,0,55,55,134,1,geso,,,,
,,,,,,613688d0acdf68a9e2853fb5,676192165fb32c2e1fb7aee6,67d15f1afccd867805e81940,2025-03-12_07h17.37.060,Tarea de decisión léxica,2024.2.5,Win32,60.24096386,,,,,,,,,,,,,,,,,,,,,,,236.215,237.3287,a,1,0.4338,1,237.3289,237.8286,,,,,,38,MAS,NOWORD,DIS,150,gaco,,la,,0.4338,,237.8288,237.8289,0.00390625,-0.2109375,0,0,0,,0,56,56,37,1,rato,,,,
,,,,,,613688d0acdf68a9e2853fb5,676192165fb32c2e1fb7aee6,67d15f1afccd867805e81940,2025-03-12_07h17.37.060,Tarea de decisión léxica,2024.2.5,Win32,60.24096386,,,,,,,,,,,,,,,,,,,,,,,237.8301,239.1786,a,1,0.6701,1,239.1786,239.6783,,,,,,48,MAS,NOWORD,AGR,150,chub,,el,,0.6701,,239.6784,239.6785,0.00390625,-0.2109375,0,0,0,,0,57,57,47,1,club,,,,
,,,,,,613688d0acdf68a9e2853fb5,676192165fb32c2e1fb7aee6,67d15f1afccd867805e81940,2025-03-12_07h17.37.060,Tarea de decisión léxica,2024.2.5,Win32,60.24096386,,,,,,,,,,,,,,,,,,,,,,,239.6798,240.9612,a,1,0.6125,1,240.9612,241.4616,,,,,,106,FEM,NOWORD,DIS,150,vina,,el,,0.6125,,241.4617,241.4617,0.00390625,-0.2109375,0,0,0,,0,58,58,105,1,sopa,,,,
,,,,,,613688d0acdf68a9e2853fb5,676192165fb32c2e1fb7aee6,67d15f1afccd867805e81940,2025-03-12_07h17.37.060,Tarea de decisión léxica,2024.2.5,Win32,60.24096386,,,,,,,,,,,,,,,,,,,,,,,241.4629,242.5615,l,1,0.4174,1,242.5615,243.0614,,,,,,477,MAS,WORD,DIS,150,botón,,la,,0.4174,,243.0626,243.0632,0.00390625,-0.2109375,0,0,0,,0,59,59,476,1,hocon,,,,
,,,,,,613688d0acdf68a9e2853fb5,676192165fb32c2e1fb7aee6,67d15f1afccd867805e81940,2025-03-12_07h17.37.060,Tarea de decisión léxica,2024.2.5,Win32,60.24096386,,,,,,,,,,,,,,,,,,,,,,,243.0637,244.4282,l,1,0.6978,1,244.4282,244.9282,,,,,,73,MAS,WORD,DIS,150,odio,,la,,0.6978,,244.9283,244.9285,0.00390625,-0.2109375,0,0,0,,0,60,60,72,1,omio,,,,
,,,,,,613688d0acdf68a9e2853fb5,676192165fb32c2e1fb7aee6,67d15f1afccd867805e81940,2025-03-12_07h17.37.060,Tarea de decisión léxica,2024.2.5,Win32,60.24096386,,,,,,,,,,,,,,,,,,,,,,,244.9296,246.0441,l,1,0.4454,1,246.0442,246.5446,,,,,,79,FEM,WORD,AGR,150,piel,,la,,0.4454,,246.5446,246.5448,0.00390625,-0.2109375,0,0,0,,0,61,61,78,1,ciel,,,,
,,,,,,613688d0acdf68a9e2853fb5,676192165fb32c2e1fb7aee6,67d15f1afccd867805e81940,2025-03-12_07h17.37.060,Tarea de decisión léxica,2024.2.5,Win32,60.24096386,,,,,,,,,,,,,,,,,,,,,,,246.546,247.728,a,1,0.5092,1,247.7281,248.2275,,,,,,90,MAS,NOWORD,DIS,150,guso,,la,,0.5092,,248.2275,248.2275,0.00390625,-0.2109375,0,0,0,,0,62,62,89,1,humo,,,,
,,,,,,613688d0acdf68a9e2853fb5,676192165fb32c2e1fb7aee6,67d15f1afccd867805e81940,2025-03-12_07h17.37.060,Tarea de decisión léxica,2024.2.5,Win32,60.24096386,,,,,,,,,,,,,,,,,,,,,,,248.2291,249.6441,l,1,0.7344,1,249.6441,250.1444,,,,,,391,MAS,WORD,AGR,150,dueño,,el,,0.7344,,250.1445,250.1446,0.00390625,-0.2109375,0,0,0,,0,63,63,390,1,dievo,,,,
,,,,,,613688d0acdf68a9e2853fb5,676192165fb32c2e1fb7aee6,67d15f1afccd867805e81940,2025-03-12_07h17.37.060,Tarea de decisión léxica,2024.2.5,Win32,60.24096386,,,,,,,,,,,,,,,,,,,,,,,250.1457,251.2794,a,1,0.4657,1,251.2795,251.7774,,,,,,150,MAS,NOWORD,DIS,150,pafo,,la,,0.4657,,251.7783,251.779,0.00390625,-0.2109375,0,0,0,,0,64,64,149,1,cabo,,,,
,,,,,,613688d0acdf68a9e2853fb5,676192165fb32c2e1fb7aee6,67d15f1afccd867805e81940,2025-03-12_07h17.37.060,Tarea de decisión léxica,2024.2.5,Win32,60.24096386,,,,,,,,,,,,,,,,,,,,,,,251.7796,252.9446,l,1,0.4933,1,252.9447,253.4443,,,,,,175,FEM,WORD,AGR,150,goma,,la,,0.4933,,253.4444,253.4445,0.00390625,-0.2109375,0,0,0,,0,65,65,174,1,hosa,,,,
,,,,,,613688d0acdf68a9e2853fb5,676192165fb32c2e1fb7aee6,67d15f1afccd867805e81940,2025-03-12_07h17.37.060,Tarea de decisión léxica,2024.2.5,Win32,60.24096386,,,,,,,,,,,,,,,,,,,,,,,253.4454,254.5607,a,1,0.4467,1,254.5607,255.0604,,,,,,354,FEM,NOWORD,DIS,150,cezca,,el,,0.4467,,255.0604,255.0604,0.00390625,-0.2109375,0,0,0,,0,66,66,353,1,celda,,,,
,,,,,,613688d0acdf68a9e2853fb5,676192165fb32c2e1fb7aee6,67d15f1afccd867805e81940,2025-03-12_07h17.37.060,Tarea de decisión léxica,2024.2.5,Win32,60.24096386,,,,,,,,,,,,,,,,,,,,,,,255.0619,256.2107,l,1,0.4765,1,256.2108,256.7107,,,,,,421,MAS,WORD,DIS,150,primo,,la,,0.4765,,256.7109,256.711,0.00390625,-0.2109375,0,0,0,,0,67,67,420,1,griso,,,,
,,,,,,613688d0acdf68a9e2853fb5,676192165fb32c2e1fb7aee6,67d15f1afccd867805e81940,2025-03-12_07h17.37.060,Tarea de decisión léxica,2024.2.5,Win32,60.24096386,,,,,,,,,,,,,,,,,,,,,,,256.7121,257.9272,l,1,0.5343,1,257.9272,258.4286,,,,,,395,FEM,WORD,AGR,150,caída,,la,,0.5343,,258.4286,258.4287,0.00390625,-0.2109375,0,0,0,,0,68,68,394,1,paeda,,,,
,,,,,,613688d0acdf68a9e2853fb5,676192165fb32c2e1fb7aee6,67d15f1afccd867805e81940,2025-03-12_07h17.37.060,Tarea de decisión léxica,2024.2.5,Win32,60.24096386,,,,,,,,,,,,,,,,,,,,,,,258.4296,259.4934,a,1,0.3965,1,259.4934,259.994,,,,,,406,FEM,NOWORD,DIS,150,rarra,,el,,0.3965,,259.9957,259.9963,0.00390625,-0.2109375,0,0,0,,0,69,69,405,1,barra,,,,
,,,,,,613688d0acdf68a9e2853fb5,676192165fb32c2e1fb7aee6,67d15f1afccd867805e81940,2025-03-12_07h17.37.060,Tarea de decisión léxica,2024.2.5,Win32,60.24096386,,,,,,,,,,,,,,,,,,,,,,,259.9971,261.2932,l,1,0.629,1,261.2933,261.7932,,,,,,163,FEM,WORD,AGR,150,fama,,la,,0.629,,261.7934,261.7934,0.00390625,-0.2109375,0,0,0,,0,70,70,162,1,laga,,,,
,,,,,,613688d0acdf68a9e2853fb5,676192165fb32c2e1fb7aee6,67d15f1afccd867805e81940,2025-03-12_07h17.37.060,Tarea de decisión léxica,2024.2.5,Win32,60.24096386,,,,,,,,,,,,,,,,,,,,,,,261.7946,262.9269,l,1,0.4502,1,262.927,263.4266,,,,,,95,FEM,WORD,AGR,151,moda,,la,,0.4502,,263.4266,263.4268,0.00390625,-0.2109375,0,0,0,,0,71,71,94,1,neda,,,,
,,,,,,613688d0acdf68a9e2853fb5,676192165fb32c2e1fb7aee6,67d15f1afccd867805e81940,2025-03-12_07h17.37.060,Tarea de decisión léxica,2024.2.5,Win32,60.24096386,,,,,,,,,,,,,,,,,,,,,,,263.4282,264.6958,l,1,0.5996,1,264.6959,265.1932,,,,,,107,MAS,WORD,AGR,150,saco,,el,,0.5996,,265.1932,265.1934,0.00390625,-0.2109375,0,0,0,,0,72,72,106,1,raot,,,,
,,,,,,613688d0acdf68a9e2853fb5,676192165fb32c2e1fb7aee6,67d15f1afccd867805e81940,2025-03-12_07h17.37.060,Tarea de decisión léxica,2024.2.5,Win32,60.24096386,,,,,,,,,,,,,,,,,,,,,,,265.1945,266.2791,l,1,0.4163,1,266.2791,266.7768,,,,,,461,FEM,WORD,DIS,150,tabla,,el,,0.4163,,266.7769,266.777,0.00390625,-0.2109375,0,0,0,,0,73,73,460,1,pagra,,,,
,,,,,,613688d0acdf68a9e2853fb5,676192165fb32c2e1fb7aee6,67d15f1afccd867805e81940,2025-03-12_07h17.37.060,Tarea de decisión léxica,2024.2.5,Win32,60.24096386,,,,,,,,,,,,,,,,,,,,,,,266.7779,268.0431,l,1,0.5845,1,268.0432,268.5433,,,,,,293,MAS,WORD,DIS,150,campo,,la,,0.5845,,268.5442,268.545,0.00390625,-0.2109375,0,0,0,,0,74,74,292,1,cacso,,,,
,,,,,,613688d0acdf68a9e2853fb5,676192165fb32c2e1fb7aee6,67d15f1afccd867805e81940,2025-03-12_07h17.37.060,Tarea de decisión léxica,2024.2.5,Win32,60.24096386,,,,,,,,,,,,,,,,,,,,,,,268.5456,269.5766,l,1,0.3593,1,269.5768,270.0766,,,,,,441,FEM,WORD,DIS,150,selva,,el,,0.3593,,270.0767,270.0768,0.00390625,-0.2109375,0,0,0,,0,75,75,440,1,telza,,,,
,,,,,,613688d0acdf68a9e2853fb5,676192165fb32c2e1fb7aee6,67d15f1afccd867805e81940,2025-03-12_07h17.37.060,Tarea de decisión léxica,2024.2.5,Win32,60.24096386,,,,,,,,,,,,,,,,,,,,,,,270.078,271.3094,a,1,0.5505,1,271.3094,271.8095,,,,,,166,FEM,NOWORD,DIS,150,dera,,el,,0.5505,,271.8096,271.8096,0.00390625,-0.2109375,0,0,0,,0,76,76,165,1,vela,,,,
,,,,,,613688d0acdf68a9e2853fb5,676192165fb32c2e1fb7aee6,67d15f1afccd867805e81940,2025-03-12_07h17.37.060,Tarea de decisión léxica,2024.2.5,Win32,60.24096386,,,,,,,,,,,,,,,,,,,,,,,271.8109,272.9427,a,1,0.4505,1,272.9429,273.4428,,,,,,110,MAS,NOWORD,DIS,150,suno,,la,,0.4505,,273.4428,273.4431,0.00390625,-0.2109375,0,0,0,,0,77,77,109,1,rayo,,,,
,,,,,,613688d0acdf68a9e2853fb5,676192165fb32c2e1fb7aee6,67d15f1afccd867805e81940,2025-03-12_07h17.37.060,Tarea de decisión léxica,2024.2.5,Win32,60.24096386,,,,,,,,,,,,,,,,,,,,,,,273.4443,274.5257,a,1,0.411,1,274.5258,275.0262,,,,,,468,MAS,NOWORD,AGR,150,peiso,,el,,0.411,,275.0263,275.0264,0.00390625,-0.2109375,0,0,0,,0,78,78,467,1,piano,,,,
,,,,,,613688d0acdf68a9e2853fb5,676192165fb32c2e1fb7aee6,67d15f1afccd867805e81940,2025-03-12_07h17.37.060,Tarea de decisión léxica,2024.2.5,Win32,60.24096386,,,,,,,,,,,,,,,,,,,,,,,275.0274,276.145,a,1,0.4506,1,276.1451,276.6425,,,,,,138,MAS,NOWORD,DIS,150,pamo,,la,,0.4506,,276.6439,276.6445,0.00390625,-0.2109375,0,0,0,,0,79,79,137,1,nene,,,,
,,,,,,613688d0acdf68a9e2853fb5,676192165fb32c2e1fb7aee6,67d15f1afccd867805e81940,2025-03-12_07h17.37.060,Tarea de decisión léxica,2024.2.5,Win32,60.24096386,,,,,,,,,,,,,,,,,,,,,,,276.6451,277.6928,a,1,0.3812,1,277.6929,278.1946,,,,,,228,MAS,NOWORD,AGR,150,laro,,el,,0.3812,,278.1947,278.1949,0.00390625,-0.2109375,0,0,0,,0,80,80,227,1,faro,,,,
,,,,,,613688d0acdf68a9e2853fb5,676192165fb32c2e1fb7aee6,67d15f1afccd867805e81940,2025-03-12_07h17.37.060,Tarea de decisión léxica,2024.2.5,Win32,60.24096386,,,,,,,,,,,,,,,,,,,,,,,278.1959,279.2097,l,1,0.3421,1,279.2099,279.7093,,,,,,427,FEM,WORD,AGR,150,oreja,,la,,0.3421,,279.7094,279.7094,0.00390625,-0.2109375,0,0,0,,0,81,81,426,1,oseva,,,,
,,,,,,613688d0acdf68a9e2853fb5,676192165fb32c2e1fb7aee6,67d15f1afccd867805e81940,2025-03-12_07h17.37.060,Tarea de decisión léxica,2024.2.5,Win32,60.24096386,,,,,,,,,,,,,,,,,,,,,,,279.7108,280.7922,l,1,0.4034,1,280.7922,281.2922,,,,,,299,FEM,WORD,AGR,150,bolsa,,la,,0.4034,,281.2922,281.2923,0.00390625,-0.2109375,0,0,0,,0,82,82,298,1,bosga,,,,
,,,,,,613688d0acdf68a9e2853fb5,676192165fb32c2e1fb7aee6,67d15f1afccd867805e81940,2025-03-12_07h17.37.060,Tarea de decisión léxica,2024.2.5,Win32,60.24096386,,,,,,,,,,,,,,,,,,,,,,,281.2934,282.359,l,1,0.3931,1,282.3591,282.8591,,,,,,431,MAS,WORD,AGR,150,motor,,el,,0.3931,,282.8603,282.8608,0.00390625,-0.2109375,0,0,0,,0,83,83,430,1,tetor,,,,
,,,,,,613688d0acdf68a9e2853fb5,676192165fb32c2e1fb7aee6,67d15f1afccd867805e81940,2025-03-12_07h17.37.060,Tarea de decisión léxica,2024.2.5,Win32,60.24096386,,,,,,,,,,,,,,,,,,,,,,,282.8614,283.9918,a,1,0.4569,1,283.9919,284.4922,,,,,,344,FEM,NOWORD,AGR,150,trada,,la,,0.4569,,284.4923,284.4924,0.00390625,-0.2109375,0,0,0,,0,84,84,343,1,plata,,,,
,,,,,,613688d0acdf68a9e2853fb5,676192165fb32c2e1fb7aee6,67d15f1afccd867805e81940,2025-03-12_07h17.37.060,Tarea de decisión léxica,2024.2.5,Win32,60.24096386,,,,,,,,,,,,,,,,,,,,,,,284.4938,285.8613,l,1,0.7008,1,285.8613,286.3586,,,,,,221,FEM,WORD,DIS,150,mula,,el,,0.7008,,286.3587,286.3588,0.00390625,-0.2109375,0,0,0,,0,85,85,220,1,puca,,,,
,,,,,,613688d0acdf68a9e2853fb5,676192165fb32c2e1fb7aee6,67d15f1afccd867805e81940,2025-03-12_07h17.37.060,Tarea de decisión léxica,2024.2.5,Win32,60.24096386,,,,,,,,,,,,,,,,,,,,,,,286.3601,287.6088,l,1,0.5677,1,287.609,288.1084,,,,,,29,MAS,WORD,DIS,150,modo,,la,,0.5677,,288.1085,288.1086,0.00390625,-0.2109375,0,0,0,,0,86,86,28,1,pono,,,,
,,,,,,613688d0acdf68a9e2853fb5,676192165fb32c2e1fb7aee6,67d15f1afccd867805e81940,2025-03-12_07h17.37.060,Tarea de decisión léxica,2024.2.5,Win32,60.24096386,,,,,,,,,,,,,,,,,,,,,,,288.1095,289.2421,l,1,0.46,1,289.2422,289.742,,,,,,91,FEM,WORD,AGR,150,taza,,la,,0.46,,289.742,289.7422,0.00390625,-0.2109375,0,0,0,,0,87,87,90,1,sava,,,,
,,,,,,613688d0acdf68a9e2853fb5,676192165fb32c2e1fb7aee6,67d15f1afccd867805e81940,2025-03-12_07h17.37.060,Tarea de decisión léxica,2024.2.5,Win32,60.24096386,,,,,,,,,,,,,,,,,,,,,,,289.7432,290.8916,l,1,0.4694,1,290.8916,291.3918,,,,,,205,FEM,WORD,DIS,150,rana,,el,,0.4694,,291.3929,291.3935,0.00390625,-0.2109375,0,0,0,,0,88,88,204,1,bara,,,,
,,,,,,613688d0acdf68a9e2853fb5,676192165fb32c2e1fb7aee6,67d15f1afccd867805e81940,2025-03-12_07h17.37.060,Tarea de decisión léxica,2024.2.5,Win32,60.24096386,,,,,,,,,,,,,,,,,,,,,,,291.394,292.5081,l,1,0.4464,1,292.5081,293.0085,,,,,,285,MAS,WORD,DIS,150,error,,la,,0.4464,,293.0086,293.0087,0.00390625,-0.2109375,0,0,0,,0,89,89,284,1,echor,,,,
,,,,,,613688d0acdf68a9e2853fb5,676192165fb32c2e1fb7aee6,67d15f1afccd867805e81940,2025-03-12_07h17.37.060,Tarea de decisión léxica,2024.2.5,Win32,60.24096386,,,,,,,,,,,,,,,,,,,,,,,293.0103,294.0751,l,1,0.3932,1,294.0752,294.5749,,,,,,321,MAS,WORD,DIS,150,banco,,la,,0.3932,,294.5749,294.5751,0.00390625,-0.2109375,0,0,0,,0,90,90,320,1,rarco,,,,
,,,,,,613688d0acdf68a9e2853fb5,676192165fb32c2e1fb7aee6,67d15f1afccd867805e81940,2025-03-12_07h17.37.060,Tarea de decisión léxica,2024.2.5,Win32,60.24096386,,,,,,,,,,,,,,,,,,,,,,,294.5761,295.7085,a,1,0.4514,1,295.7086,296.2083,,,,,,390,MAS,NOWORD,DIS,150,cenco,,la,,0.4514,,296.2084,296.2086,0.00390625,-0.2109375,0,0,0,,0,91,91,389,1,cerdo,,,,
,,,,,,613688d0acdf68a9e2853fb5,676192165fb32c2e1fb7aee6,67d15f1afccd867805e81940,2025-03-12_07h17.37.060,Tarea de decisión léxica,2024.2.5,Win32,60.24096386,,,,,,,,,,,,,,,,,,,,,,,296.2098,297.5433,a,1,0.6665,1,297.5434,298.0428,,,,,,358,FEM,NOWORD,DIS,150,gruba,,el,,0.6665,,298.0429,298.043,0.00390625,-0.2109375,0,0,0,,0,92,92,357,1,bruja,,,,
,,,,,,613688d0acdf68a9e2853fb5,676192165fb32c2e1fb7aee6,67d15f1afccd867805e81940,2025-03-12_07h17.37.060,Tarea de decisión léxica,2024.2.5,Win32,60.24096386,,,,,,,,,,,,,,,,,,,,,,,298.0438,299.1576,l,1,0.4448,1,299.1577,299.6576,,,,,,49,FEM,WORD,DIS,150,edad,,el,,0.4448,,299.6587,299.6595,0.00390625,-0.2109375,0,0,0,,0,93,93,48,1,ecat,,,,
,,,,,,613688d0acdf68a9e2853fb5,676192165fb32c2e1fb7aee6,67d15f1afccd867805e81940,2025-03-12_07h17.37.060,Tarea de decisión léxica,2024.2.5,Win32,60.24096386,,,,,,,,,,,,,,,,,,,,,,,299.6601,300.9246,a,1,0.5923,1,300.9248,301.4242,,,,,,440,FEM,NOWORD,AGR,150,prema,,la,,0.5923,,301.4243,301.4244,0.00390625,-0.2109375,0,0,0,,0,94,94,439,1,presa,,,,
,,,,,,613688d0acdf68a9e2853fb5,676192165fb32c2e1fb7aee6,67d15f1afccd867805e81940,2025-03-12_07h17.37.060,Tarea de decisión léxica,2024.2.5,Win32,60.24096386,,,,,,,,,,,,,,,,,,,,,,,301.4261,302.7079,a,1,0.6076,1,302.708,303.2079,,,,,,312,MAS,NOWORD,AGR,150,nosor,,el,,0.6076,,303.208,303.2081,0.00390625,-0.2109375,0,0,0,,0,95,95,311,1,honor,,,,
,,,,,,613688d0acdf68a9e2853fb5,676192165fb32c2e1fb7aee6,67d15f1afccd867805e81940,2025-03-12_07h17.37.060,Tarea de decisión léxica,2024.2.5,Win32,60.24096386,,,,,,,,,,,,,,,,,,,,,,,303.2091,304.3578,a,1,0.4728,1,304.358,304.8573,,,,,,318,FEM,NOWORD,DIS,150,plaad,,el,,0.4728,,304.8573,304.8574,0.00390625,-0.2109375,0,0,0,,0,96,96,317,1,playa,,,,
,,,,,,613688d0acdf68a9e2853fb5,676192165fb32c2e1fb7aee6,67d15f1afccd867805e81940,2025-03-12_07h17.37.060,Tarea de decisión léxica,2024.2.5,Win32,60.24096386,,,,,,,,,,,,,,,,,,,,,,,304.8587,306.2407,a,1,0.7056,1,306.2408,306.741,,,,,,322,MAS,NOWORD,DIS,150,rarco,,la,,0.7056,,306.7411,306.7413,0.00390625,-0.2109375,0,0,0,,0,97,97,321,1,banco,,,,
,,,,,,613688d0acdf68a9e2853fb5,676192165fb32c2e1fb7aee6,67d15f1afccd867805e81940,2025-03-12_07h17.37.060,Tarea de decisión léxica,2024.2.5,Win32,60.24096386,,,,,,,,,,,,,,,,,,,,,,,306.7426,307.9242,a,1,0.5078,1,307.9244,308.4241,,,,,,250,FEM,NOWORD,DIS,150,plane,,el,,0.5078,,308.4253,308.4259,0.00390625,-0.2109375,0,0,0,,0,98,98,249,1,clase,,,,
,,,,,,613688d0acdf68a9e2853fb5,676192165fb32c2e1fb7aee6,67d15f1afccd867805e81940,2025-03-12_07h17.37.060,Tarea de decisión léxica,2024.2.5,Win32,60.24096386,,,,,,,,,,,,,,,,,,,,,,,308.4265,309.9243,a,1,0.8232,1,309.9244,310.4258,,,,,,202,FEM,NOWORD,DIS,150,cusa,,el,,0.8232,,310.4258,310.4259,0.00390625,-0.2109375,0,0,0,,0,99,99,201,1,cuna,,,,
,,,,,,613688d0acdf68a9e2853fb5,676192165fb32c2e1fb7aee6,67d15f1afccd867805e81940,2025-03-12_07h17.37.060,Tarea de decisión léxica,2024.2.5,Win32,60.24096386,,,,,,,,,,,,,,,,,,,,,,,310.4267,311.507,l,1,0.4115,1,311.5071,312.0072,,,,,,457,MAS,WORD,DIS,150,plato,,la,,0.4115,,312.0072,312.0074,0.00390625,-0.2109375,0,0,0,,0,100,100,456,1,glaco,,,,
,,,,,,613688d0acdf68a9e2853fb5,676192165fb32c2e1fb7aee6,67d15f1afccd867805e81940,2025-03-12_07h17.37.060,Tarea de decisión léxica,2024.2.5,Win32,60.24096386,,,,,,,,,,,,,,,,,,,,,,,312.0083,313.1739,a,1,0.4893,1,313.174,313.6736,,,,,,382,MAS,NOWORD,DIS,150,nusor,,la,,0.4893,,313.6736,313.6736,0.00390625,-0.2109375,0,0,0,,0,101,101,381,1,humor,,,,
,,,,,,613688d0acdf68a9e2853fb5,676192165fb32c2e1fb7aee6,67d15f1afccd867805e81940,2025-03-12_07h17.37.060,Tarea de decisión léxica,2024.2.5,Win32,60.24096386,,,,,,,,,,,,,,,,,,,,,,,313.6746,314.7738,a,1,0.4255,1,314.7739,315.2738,,,,,,394,FEM,NOWORD,DIS,150,ashea,,el,,0.4255,,315.2738,315.2739,0.00390625,-0.2109375,0,0,0,,0,102,102,393,1,aldea,,,,
,,,,,,613688d0acdf68a9e2853fb5,676192165fb32c2e1fb7aee6,67d15f1afccd867805e81940,2025-03-12_07h17.37.060,Tarea de decisión léxica,2024.2.5,Win32,60.24096386,,,,,,,,,,,,,,,,,,,,,,,315.2753,316.3922,l,1,0.4495,1,316.3923,316.8902,,,,,,103,FEM,WORD,AGR,150,ruta,,la,,0.4495,,316.8914,316.8919,0.00390625,-0.2109375,0,0,0,,0,103,103,102,1,rova,,,,
,,,,,,613688d0acdf68a9e2853fb5,676192165fb32c2e1fb7aee6,67d15f1afccd867805e81940,2025-03-12_07h17.37.060,Tarea de decisión léxica,2024.2.5,Win32,60.24096386,,,,,,,,,,,,,,,,,,,,,,,316.8926,318.3921,l,1,0.8331,1,318.3923,318.8902,,,,,,219,FEM,WORD,AGR,150,pipa,,la,,0.8331,,318.8903,318.8904,0.00390625,-0.2109375,0,0,0,,0,104,104,218,1,miva,,,,
,,,,,,613688d0acdf68a9e2853fb5,676192165fb32c2e1fb7aee6,67d15f1afccd867805e81940,2025-03-12_07h17.37.060,Tarea de decisión léxica,2024.2.5,Win32,60.24096386,,,,,,,,,,,,,,,,,,,,,,,318.8915,320.0403,a,1,0.4682,1,320.0404,320.5402,,,,,,128,MAS,NOWORD,AGR,150,itio,,el,,0.4682,,320.5403,320.5404,0.00390625,-0.2109375,0,0,0,,0,105,105,127,1,pico,,,,
,,,,,,613688d0acdf68a9e2853fb5,676192165fb32c2e1fb7aee6,67d15f1afccd867805e81940,2025-03-12_07h17.37.060,Tarea de decisión léxica,2024.2.5,Win32,60.24096386,,,,,,,,,,,,,,,,,,,,,,,320.5412,321.7567,a,1,0.535,1,321.7569,322.2568,,,,,,132,FEM,NOWORD,AGR,150,fada,,la,,0.535,,322.2568,322.257,0.00390625,-0.2109375,0,0,0,,0,106,106,131,1,mina,,,,
,,,,,,613688d0acdf68a9e2853fb5,676192165fb32c2e1fb7aee6,67d15f1afccd867805e81940,2025-03-12_07h17.37.060,Tarea de decisión léxica,2024.2.5,Win32,60.24096386,,,,,,,,,,,,,,,,,,,,,,,322.258,323.4067,l,1,0.4757,1,323.4068,323.9067,,,,,,375,FEM,WORD,AGR,150,salsa,,la,,0.4757,,323.9079,323.9087,0.00390625,-0.2109375,0,0,0,,0,107,107,374,1,sasna,,,,
,,,,,,613688d0acdf68a9e2853fb5,676192165fb32c2e1fb7aee6,67d15f1afccd867805e81940,2025-03-12_07h17.37.060,Tarea de decisión léxica,2024.2.5,Win32,60.24096386,,,,,,,,,,,,,,,,,,,,,,,323.9093,325.5741,a,1,0.9886,1,325.5742,326.073,,,,,,100,MAS,NOWORD,AGR,150,soro,,el,,0.9886,,326.0731,326.0733,0.00390625,-0.2109375,0,0,0,,0,108,108,99,1,lobo,,,,
,,,,,,613688d0acdf68a9e2853fb5,676192165fb32c2e1fb7aee6,67d15f1afccd867805e81940,2025-03-12_07h17.37.060,Tarea de decisión léxica,2024.2.5,Win32,60.24096386,,,,,,,,,,,,,,,,,,,,,,,326.0747,327.192,l,1,0.4505,1,327.1921,327.6896,,,,,,41,FEM,WORD,DIS,150,nave,,el,,0.4505,,327.6897,327.6898,0.00390625,-0.2109375,0,0,0,,0,109,109,40,1,haje,,,,
,,,,,,613688d0acdf68a9e2853fb5,676192165fb32c2e1fb7aee6,67d15f1afccd867805e81940,2025-03-12_07h17.37.060,Tarea de decisión léxica,2024.2.5,Win32,60.24096386,,,,,,,,,,,,,,,,,,,,,,,327.6917,328.7731,l,1,0.4106,1,328.7731,329.273,,,,,,243,MAS,WORD,AGR,150,amigo,,el,,0.4106,,329.273,329.2732,0.00390625,-0.2109375,0,0,0,,0,110,110,242,1,asamo,,,,
,,,,,,613688d0acdf68a9e2853fb5,676192165fb32c2e1fb7aee6,67d15f1afccd867805e81940,2025-03-12_07h17.37.060,Tarea de decisión léxica,2024.2.5,Win32,60.24096386,,,,,,,,,,,,,,,,,,,,,,,329.2741,330.3724,a,1,0.4201,1,330.3726,330.8729,,,,,,446,MAS,NOWORD,DIS,150,ascor,,la,,0.4201,,330.8729,330.873,0.00390625,-0.2109375,0,0,0,,0,111,111,445,1,actor,,,,
,,,,,,613688d0acdf68a9e2853fb5,676192165fb32c2e1fb7aee6,67d15f1afccd867805e81940,2025-03-12_07h17.37.060,Tarea de decisión léxica,2024.2.5,Win32,60.24096386,,,,,,,,,,,,,,,,,,,,,,,330.8739,332.0056,l,1,0.464,1,332.0056,332.5057,,,,,,121,MAS,WORD,DIS,150,hoyo,,la,,0.464,,332.5067,332.5074,0.00390625,-0.2109375,0,0,0,,0,112,112,120,1,bomo,,,,
,,,,,,613688d0acdf68a9e2853fb5,676192165fb32c2e1fb7aee6,67d15f1afccd867805e81940,2025-03-12_07h17.37.060,Tarea de decisión léxica,2024.2.5,Win32,60.24096386,,,,,,,,,,,,,,,,,,,,,,,332.5083,333.7053,a,1,0.5298,1,333.7054,334.2058,,,,,,114,FEM,NOWORD,DIS,150,tada,,el,,0.5298,,334.206,334.206,0.00390625,-0.2109375,0,0,0,,0,113,113,113,1,miel,,,,
,,,,,,613688d0acdf68a9e2853fb5,676192165fb32c2e1fb7aee6,67d15f1afccd867805e81940,2025-03-12_07h17.37.060,Tarea de decisión léxica,2024.2.5,Win32,60.24096386,,,,,,,,,,,,,,,,,,,,,,,334.2069,335.456,a,1,0.5719,1,335.4562,335.9559,,,,,,242,MAS,NOWORD,DIS,150,mirdo,,la,,0.5719,,335.956,335.9561,0.00390625,-0.2109375,0,0,0,,0,114,114,241,1,mundo,,,,
,,,,,,613688d0acdf68a9e2853fb5,676192165fb32c2e1fb7aee6,67d15f1afccd867805e81940,2025-03-12_07h17.37.060,Tarea de decisión léxica,2024.2.5,Win32,60.24096386,,,,,,,,,,,,,,,,,,,,,,,335.9571,337.1888,a,1,0.5545,1,337.1889,337.6885,,,,,,422,MAS,NOWORD,DIS,150,griso,,la,,0.5545,,337.6885,337.6885,0.00390625,-0.2109375,0,0,0,,0,115,115,421,1,primo,,,,
,,,,,,613688d0acdf68a9e2853fb5,676192165fb32c2e1fb7aee6,67d15f1afccd867805e81940,2025-03-12_07h17.37.060,Tarea de decisión léxica,2024.2.5,Win32,60.24096386,,,,,,,,,,,,,,,,,,,,,,,337.6898,339.1053,a,1,0.7448,1,339.1054,339.6052,,,,,,36,MAS,NOWORD,AGR,150,meno,,el,,0.7448,,339.6053,339.6053,0.00390625,-0.2109375,0,0,0,,0,116,116,35,1,pelo,,,,
,,,,,,613688d0acdf68a9e2853fb5,676192165fb32c2e1fb7aee6,67d15f1afccd867805e81940,2025-03-12_07h17.37.060,Tarea de decisión léxica,2024.2.5,Win32,60.24096386,,,,,,,,,,,,,,,,,,,,,,,339.6065,340.7217,l,1,0.4469,1,340.7218,341.2217,,,,,,11,MAS,WORD,AGR,150,lado,,el,,0.4469,,341.2231,341.2236,0.00390625,-0.2109375,0,0,0,,0,117,117,10,1,bapo,,,,
,,,,,,613688d0acdf68a9e2853fb5,676192165fb32c2e1fb7aee6,67d15f1afccd867805e81940,2025-03-12_07h17.37.060,Tarea de decisión léxica,2024.2.5,Win32,60.24096386,,,,,,,,,,,,,,,,,,,,,,,341.2241,342.355,a,1,0.4619,1,342.355,342.855,,,,,,52,FEM,NOWORD,AGR,150,mava,,la,,0.4619,,342.8551,342.8552,0.00390625,-0.2109375,0,0,0,,0,118,118,51,1,caja,,,,
,,,,,,613688d0acdf68a9e2853fb5,676192165fb32c2e1fb7aee6,67d15f1afccd867805e81940,2025-03-12_07h17.37.060,Tarea de decisión léxica,2024.2.5,Win32,60.24096386,,,,,,,,,,,,,,,,,,,,,,,342.8561,343.9889,l,1,0.4603,1,343.989,344.4884,,,,,,61,FEM,WORD,DIS,150,obra,,el,,0.4603,,344.4885,344.4887,0.00390625,-0.2109375,0,0,0,,0,119,119,60,1,efla,,,,
,,,,,,613688d0acdf68a9e2853fb5,676192165fb32c2e1fb7aee6,67d15f1afccd867805e81940,2025-03-12_07h17.37.060,Tarea de decisión léxica,2024.2.5,Win32,60.24096386,,,,,,,,,,,,,,,,,,,,,,,344.4899,345.5887,l,1,0.4246,1,345.5887,346.0885,,,,,,435,MAS,WORD,AGR,150,ritmo,,el,,0.4246,,346.0885,346.0886,0.00390625,-0.2109375,0,0,0,,0,120,120,434,1,ricno,,,,
,,,,,,613688d0acdf68a9e2853fb5,676192165fb32c2e1fb7aee6,67d15f1afccd867805e81940,2025-03-12_07h17.37.060,Tarea de decisión léxica,2024.2.5,Win32,60.24096386,,,,,,,,,,,,,,,,,,,,,,,346.0899,347.1219,l,1,0.3511,1,347.122,347.6217,,,,,,145,MAS,WORD,DIS,150,león,,la,,0.3511,,347.6217,347.6218,0.00390625,-0.2109375,0,0,0,,0,121,121,144,1,nobo,,,,
,,,,,,613688d0acdf68a9e2853fb5,676192165fb32c2e1fb7aee6,67d15f1afccd867805e81940,2025-03-12_07h17.37.060,Tarea de decisión léxica,2024.2.5,Win32,60.24096386,,,,,,,,,,,,,,,,,,,,,,,347.6228,348.7717,a,1,0.4692,1,348.7719,349.2714,,,,,,134,FEM,NOWORD,DIS,150,vesa,,el,,0.4692,,349.2723,349.273,0.00390625,-0.2109375,0,0,0,,0,122,122,133,1,vaca,,,,
,,,,,,613688d0acdf68a9e2853fb5,676192165fb32c2e1fb7aee6,67d15f1afccd867805e81940,2025-03-12_07h17.37.060,Tarea de decisión léxica,2024.2.5,Win32,60.24096386,,,,,,,,,,,,,,,,,,,,,,,349.2737,350.4381,a,1,0.4917,1,350.4383,350.938,,,,,,334,FEM,NOWORD,DIS,150,dalea,,el,,0.4917,,350.9381,350.9382,0.00390625,-0.2109375,0,0,0,,0,123,123,333,1,tarea,,,,
,,,,,,613688d0acdf68a9e2853fb5,676192165fb32c2e1fb7aee6,67d15f1afccd867805e81940,2025-03-12_07h17.37.060,Tarea de decisión léxica,2024.2.5,Win32,60.24096386,,,,,,,,,,,,,,,,,,,,,,,350.9394,352.2044,a,1,0.5938,1,352.2044,352.7047,,,,,,20,MAS,NOWORD,AGR,150,himo,,el,,0.5938,,352.7049,352.705,0.00390625,-0.2109375,0,0,0,,0,124,124,19,1,niño,,,,
,,,,,,613688d0acdf68a9e2853fb5,676192165fb32c2e1fb7aee6,67d15f1afccd867805e81940,2025-03-12_07h17.37.060,Tarea de decisión léxica,2024.2.5,Win32,60.24096386,,,,,,,,,,,,,,,,,,,,,,,352.706,353.8045,l,1,0.4177,1,353.8045,354.3045,,,,,,65,MAS,WORD,DIS,150,dios,,la,,0.4177,,354.3046,354.3048,0.00390625,-0.2109375,0,0,0,,0,125,125,64,1,nios,,,,
,,,,,,613688d0acdf68a9e2853fb5,676192165fb32c2e1fb7aee6,67d15f1afccd867805e81940,2025-03-12_07h17.37.060,Tarea de decisión léxica,2024.2.5,Win32,60.24096386,,,,,,,,,,,,,,,,,,,,,,,354.3059,355.3707,l,1,0.3967,1,355.3708,355.8708,,,,,,295,MAS,WORD,AGR,150,dolor,,el,,0.3967,,355.8709,355.871,0.00390625,-0.2109375,0,0,0,,0,126,126,294,1,goler,,,,
,,,,,,613688d0acdf68a9e2853fb5,676192165fb32c2e1fb7aee6,67d15f1afccd867805e81940,2025-03-12_07h17.37.060,Tarea de decisión léxica,2024.2.5,Win32,60.24096386,,,,,,,,,,,,,,,,,,,,,,,355.872,356.9379,l,1,0.383,1,356.938,357.4373,,,,,,281,MAS,WORD,DIS,150,cielo,,la,,0.383,,357.4387,357.4392,0.00390625,-0.2109375,0,0,0,,0,127,127,280,1,cauro,,,,
,,,,,,613688d0acdf68a9e2853fb5,676192165fb32c2e1fb7aee6,67d15f1afccd867805e81940,2025-03-12_07h17.37.060,Tarea de decisión léxica,2024.2.5,Win32,60.24096386,,,,,,,,,,,,,,,,,,,,,,,357.4399,358.5211,a,1,0.4148,1,358.5213,359.0206,,,,,,424,MAS,NOWORD,AGR,150,quigo,,el,,0.4148,,359.0207,359.0208,0.00390625,-0.2109375,0,0,0,,0,128,128,423,1,queso,,,,
,,,,,,613688d0acdf68a9e2853fb5,676192165fb32c2e1fb7aee6,67d15f1afccd867805e81940,2025-03-12_07h17.37.060,Tarea de decisión léxica,2024.2.5,Win32,60.24096386,,,,,,,,,,,,,,,,,,,,,,,359.0218,360.1207,l,1,0.4459,1,360.1207,360.6204,,,,,,289,FEM,WORD,DIS,150,bomba,,el,,0.4459,,360.6206,360.6206,0.00390625,-0.2109375,0,0,0,,0,129,129,288,1,bumpa,,,,
,,,,,,613688d0acdf68a9e2853fb5,676192165fb32c2e1fb7aee6,67d15f1afccd867805e81940,2025-03-12_07h17.37.060,Tarea de decisión léxica,2024.2.5,Win32,60.24096386,,,,,,,,,,,,,,,,,,,,,,,360.6216,361.8372,a,1,0.5345,1,361.8373,362.3373,,,,,,430,FEM,NOWORD,DIS,150,tenta,,el,,0.5345,,362.3374,362.3375,0.00390625,-0.2109375,0,0,0,,0,130,130,429,1,tarta,,,,
,,,,,,613688d0acdf68a9e2853fb5,676192165fb32c2e1fb7aee6,67d15f1afccd867805e81940,2025-03-12_07h17.37.060,Tarea de decisión léxica,2024.2.5,Win32,60.24096386,,,,,,,,,,,,,,,,,,,,,,,362.3385,363.6877,a,0,0.6724,0,363.6891,364.1872,,,,,,113,FEM,WORD,DIS,150,miel,,el,,0.6724,,364.1882,364.1889,0.00390625,-0.2109375,0,0,0,,0,131,131,112,1,tada,,,,
,,,,,,613688d0acdf68a9e2853fb5,676192165fb32c2e1fb7aee6,67d15f1afccd867805e81940,2025-03-12_07h17.37.060,Tarea de decisión léxica,2024.2.5,Win32,60.24096386,,,,,,,,,,,,,,,,,,,,,,,364.1896,365.3708,a,1,0.5011,1,365.3721,365.8706,,,,,,452,FEM,NOWORD,AGR,150,clita,,la,,0.5011,,365.8706,365.8708,0.00390625,-0.2109375,0,0,0,,0,132,132,451,1,fruta,,,,
,,,,,,613688d0acdf68a9e2853fb5,676192165fb32c2e1fb7aee6,67d15f1afccd867805e81940,2025-03-12_07h17.37.060,Tarea de decisión léxica,2024.2.5,Win32,60.24096386,,,,,,,,,,,,,,,,,,,,,,,365.872,367.004,a,1,0.4589,1,367.004,367.5039,,,,,,346,FEM,NOWORD,DIS,150,anera,,el,,0.4589,,367.504,367.5041,0.00390625,-0.2109375,0,0,0,,0,133,133,345,1,arena,,,,
,,,,,,613688d0acdf68a9e2853fb5,676192165fb32c2e1fb7aee6,67d15f1afccd867805e81940,2025-03-12_07h17.37.060,Tarea de decisión léxica,2024.2.5,Win32,60.24096386,,,,,,,,,,,,,,,,,,,,,,,367.5053,368.5869,l,0,0.4034,0,368.5878,369.0869,,,,,,478,MAS,NOWORD,DIS,150,hocon,,la,,0.4034,,369.0869,369.0871,0.00390625,-0.2109375,0,0,0,,0,134,134,477,1,botón,,,,
,,,,,,613688d0acdf68a9e2853fb5,676192165fb32c2e1fb7aee6,67d15f1afccd867805e81940,2025-03-12_07h17.37.060,Tarea de decisión léxica,2024.2.5,Win32,60.24096386,,,,,,,,,,,,,,,,,,,,,,,369.0881,370.2198,a,1,0.461,1,370.2207,370.7204,,,,,,76,MAS,NOWORD,AGR,150,ocer,,el,,0.461,,370.7204,370.7206,0.00390625,-0.2109375,0,0,0,,0,135,135,75,1,olor,,,,
,,,,,,613688d0acdf68a9e2853fb5,676192165fb32c2e1fb7aee6,67d15f1afccd867805e81940,2025-03-12_07h17.37.060,Tarea de decisión léxica,2024.2.5,Win32,60.24096386,,,,,,,,,,,,,,,,,,,,,,,370.7215,371.8037,l,1,0.4073,1,371.8039,372.3036,,,,,,297,MAS,WORD,DIS,150,grupo,,la,,0.4073,,372.305,372.3058,0.00390625,-0.2109375,0,0,0,,0,136,136,296,1,brubo,,,,
,,,,,,613688d0acdf68a9e2853fb5,676192165fb32c2e1fb7aee6,67d15f1afccd867805e81940,2025-03-12_07h17.37.060,Tarea de decisión léxica,2024.2.5,Win32,60.24096386,,,,,,,,,,,,,,,,,,,,,,,372.3064,373.5865,a,1,0.6121,1,373.5865,374.0868,,,,,,148,FEM,NOWORD,AGR,150,pama,,la,,0.6121,,374.0868,374.087,0.00390625,-0.2109375,0,0,0,,0,137,137,147,1,hoja,,,,
,,,,,,613688d0acdf68a9e2853fb5,676192165fb32c2e1fb7aee6,67d15f1afccd867805e81940,2025-03-12_07h17.37.060,Tarea de decisión léxica,2024.2.5,Win32,60.24096386,,,,,,,,,,,,,,,,,,,,,,,374.0882,375.3196,a,1,0.5524,1,375.3197,375.8199,,,,,,30,MAS,NOWORD,DIS,150,pono,,la,,0.5524,,375.8199,375.8199,0.00390625,-0.2109375,0,0,0,,0,138,138,29,1,modo,,,,
,,,,,,613688d0acdf68a9e2853fb5,676192165fb32c2e1fb7aee6,67d15f1afccd867805e81940,2025-03-12_07h17.37.060,Tarea de decisión léxica,2024.2.5,Win32,60.24096386,,,,,,,,,,,,,,,,,,,,,,,375.8208,376.9861,l,1,0.4944,1,376.9862,377.4867,,,,,,181,FEM,WORD,DIS,150,seda,,el,,0.4944,,377.4867,377.4869,0.00390625,-0.2109375,0,0,0,,0,139,139,180,1,teda,,,,
,,,,,,613688d0acdf68a9e2853fb5,676192165fb32c2e1fb7aee6,67d15f1afccd867805e81940,2025-03-12_07h17.37.060,Tarea de decisión léxica,2024.2.5,Win32,60.24096386,,,,,,,,,,,,,,,,,,,,,,,377.4879,378.57,l,1,0.4053,1,378.5701,379.0696,,,,,,469,MAS,WORD,DIS,150,patio,,la,,0.4053,,379.0697,379.0698,0.00390625,-0.2109375,0,0,0,,0,140,140,468,1,matia,,,,
,,,,,,613688d0acdf68a9e2853fb5,676192165fb32c2e1fb7aee6,67d15f1afccd867805e81940,2025-03-12_07h17.37.060,Tarea de decisión léxica,2024.2.5,Win32,60.24096386,,,,,,,,,,,,,,,,,,,,,,,379.071,380.1191,l,1,0.3802,1,380.1192,380.6194,,,,,,311,MAS,WORD,AGR,150,honor,,el,,0.3802,,380.6205,380.6211,0.00390625,-0.2109375,0,0,0,,0,141,141,310,1,nosor,,,,
,,,,,,613688d0acdf68a9e2853fb5,676192165fb32c2e1fb7aee6,67d15f1afccd867805e81940,2025-03-12_07h17.37.060,Tarea de decisión léxica,2024.2.5,Win32,60.24096386,,,,,,,,,,,,,,,,,,,,,,,380.6217,381.686,l,1,0.3944,1,381.6861,382.1858,,,,,,269,MAS,WORD,DIS,150,perro,,la,,0.3944,,382.1859,382.186,0.00390625,-0.2109375,0,0,0,,0,142,142,268,1,mello,,,,
,,,,,,613688d0acdf68a9e2853fb5,676192165fb32c2e1fb7aee6,67d15f1afccd867805e81940,2025-03-12_07h17.37.060,Tarea de decisión léxica,2024.2.5,Win32,60.24096386,,,,,,,,,,,,,,,,,,,,,,,382.1871,383.3523,l,1,0.4968,1,383.3525,383.8527,,,,,,57,MAS,WORD,DIS,150,dedo,,la,,0.4968,,383.8528,383.8529,0.00390625,-0.2109375,0,0,0,,0,143,143,56,1,heco,,,,
,,,,,,613688d0acdf68a9e2853fb5,676192165fb32c2e1fb7aee6,67d15f1afccd867805e81940,2025-03-12_07h17.37.060,Tarea de decisión léxica,2024.2.5,Win32,60.24096386,,,,,,,,,,,,,,,,,,,,,,,383.8539,384.9523,l,1,0.4282,1,384.9523,385.4526,,,,,,407,FEM,WORD,AGR,150,cueva,,la,,0.4282,,385.4526,385.4527,0.00390625,-0.2109375,0,0,0,,0,144,144,406,1,cauba,,,,
,,,,,,613688d0acdf68a9e2853fb5,676192165fb32c2e1fb7aee6,67d15f1afccd867805e81940,2025-03-12_07h17.37.060,Tarea de decisión léxica,2024.2.5,Win32,60.24096386,,,,,,,,,,,,,,,,,,,,,,,385.4538,386.7192,l,1,0.5901,1,386.7193,387.2195,,,,,,13,FEM,WORD,DIS,150,hora,,el,,0.5901,,387.2196,387.2197,0.00390625,-0.2109375,0,0,0,,0,145,145,12,1,nola,,,,
,,,,,,613688d0acdf68a9e2853fb5,676192165fb32c2e1fb7aee6,67d15f1afccd867805e81940,2025-03-12_07h17.37.060,Tarea de decisión léxica,2024.2.5,Win32,60.24096386,,,,,,,,,,,,,,,,,,,,,,,387.2207,388.3873,l,1,0.4991,1,388.3874,388.8857,,,,,,347,FEM,WORD,AGR,150,pieza,,la,,0.4991,,388.8865,388.8872,0.00390625,-0.2109375,0,0,0,,0,146,146,346,1,mueza,,,,
,,,,,,613688d0acdf68a9e2853fb5,676192165fb32c2e1fb7aee6,67d15f1afccd867805e81940,2025-03-12_07h17.37.060,Tarea de decisión léxica,2024.2.5,Win32,60.24096386,,,,,,,,,,,,,,,,,,,,,,,388.8879,390.3357,l,0,0.7761,0,390.3365,390.8357,,,,,,418,FEM,NOWORD,DIS,150,banja,,el,,0.7761,,390.8358,390.836,0.00390625,-0.2109375,0,0,0,,0,147,147,417,1,barba,,,,
,,,,,,613688d0acdf68a9e2853fb5,676192165fb32c2e1fb7aee6,67d15f1afccd867805e81940,2025-03-12_07h17.37.060,Tarea de decisión léxica,2024.2.5,Win32,60.24096386,,,,,,,,,,,,,,,,,,,,,,,390.8375,392.0379,l,1,0.5334,1,392.0386,392.5355,,,,,,115,FEM,WORD,AGR,150,pata,,la,,0.5334,,392.5356,392.5356,0.00390625,-0.2109375,0,0,0,,0,148,148,114,1,haca,,,,
,,,,,,613688d0acdf68a9e2853fb5,676192165fb32c2e1fb7aee6,67d15f1afccd867805e81940,2025-03-12_07h17.37.060,Tarea de decisión léxica,2024.2.5,Win32,60.24096386,,,,,,,,,,,,,,,,,,,,,,,392.5369,393.6187,l,1,0.4109,1,393.6189,394.1189,,,,,,351,MAS,WORD,AGR,150,vuelo,,el,,0.4109,,394.119,394.119,0.00390625,-0.2109375,0,0,0,,0,149,149,350,1,duepo,,,,
,,,,,,613688d0acdf68a9e2853fb5,676192165fb32c2e1fb7aee6,67d15f1afccd867805e81940,2025-03-12_07h17.37.060,Tarea de decisión léxica,2024.2.5,Win32,60.24096386,,,,,,,,,,,,,,,,,,,,,,,394.1203,395.1856,l,1,0.3947,1,395.1856,395.6854,,,,,,411,MAS,WORD,AGR,150,pollo,,el,,0.3947,,395.6854,395.6855,0.00390625,-0.2109375,0,0,0,,0,150,150,410,1,mobro,,,,
,,,,,,613688d0acdf68a9e2853fb5,676192165fb32c2e1fb7aee6,67d15f1afccd867805e81940,2025-03-12_07h17.37.060,Tarea de decisión léxica,2024.2.5,Win32,60.24096386,,,,,,,,,,,,,,,,,,,,,,,395.6865,396.852,a,1,0.4837,1,396.852,397.3519,,,,,,404,FEM,NOWORD,AGR,150,grisa,,la,,0.4837,,397.353,397.3537,0.00390625,-0.2109375,0,0,0,,0,151,151,403,1,prima,,,,
,,,,,,613688d0acdf68a9e2853fb5,676192165fb32c2e1fb7aee6,67d15f1afccd867805e81940,2025-03-12_07h17.37.060,Tarea de decisión léxica,2024.2.5,Win32,60.24096386,,,,,,,,,,,,,,,,,,,,,,,397.3543,398.6347,l,0,0.6131,0,398.6354,399.1352,,,,,,64,FEM,NOWORD,AGR,150,funa,,la,,0.6131,,399.1352,399.1353,0.00390625,-0.2109375,0,0,0,,0,152,152,63,1,luna,,,,
,,,,,,613688d0acdf68a9e2853fb5,676192165fb32c2e1fb7aee6,67d15f1afccd867805e81940,2025-03-12_07h17.37.060,Tarea de decisión léxica,2024.2.5,Win32,60.24096386,,,,,,,,,,,,,,,,,,,,,,,399.1364,400.4018,l,1,0.5935,1,400.4024,400.9018,,,,,,371,FEM,WORD,AGR,150,pasta,,la,,0.5935,,400.9019,400.902,0.00390625,-0.2109375,0,0,0,,0,153,153,370,1,mosta,,,,
,,,,,,613688d0acdf68a9e2853fb5,676192165fb32c2e1fb7aee6,67d15f1afccd867805e81940,2025-03-12_07h17.37.060,Tarea de decisión léxica,2024.2.5,Win32,60.24096386,,,,,,,,,,,,,,,,,,,,,,,400.9033,402.0515,a,1,0.4755,1,402.0516,402.5512,,,,,,330,MAS,NOWORD,DIS,150,nueno,,la,,0.4755,,402.5512,402.5513,0.00390625,-0.2109375,0,0,0,,0,154,154,329,1,hueso,,,,
,,,,,,613688d0acdf68a9e2853fb5,676192165fb32c2e1fb7aee6,67d15f1afccd867805e81940,2025-03-12_07h17.37.060,Tarea de decisión léxica,2024.2.5,Win32,60.24096386,,,,,,,,,,,,,,,,,,,,,,,402.5522,403.5846,a,1,0.3508,1,403.5847,404.085,,,,,,108,MAS,NOWORD,AGR,150,raot,,el,,0.3508,,404.086,404.0868,0.00390625,-0.2109375,0,0,0,,0,155,155,107,1,saco,,,,
,,,,,,613688d0acdf68a9e2853fb5,676192165fb32c2e1fb7aee6,67d15f1afccd867805e81940,2025-03-12_07h17.37.060,Tarea de decisión léxica,2024.2.5,Win32,60.24096386,,,,,,,,,,,,,,,,,,,,,,,404.0874,405.5847,a,1,0.8273,1,405.5847,406.0848,,,,,,144,MAS,NOWORD,AGR,150,pezo,,el,,0.8273,,406.085,406.085,0.00390625,-0.2109375,0,0,0,,0,156,156,143,1,pavo,,,,
,,,,,,613688d0acdf68a9e2853fb5,676192165fb32c2e1fb7aee6,67d15f1afccd867805e81940,2025-03-12_07h17.37.060,Tarea de decisión léxica,2024.2.5,Win32,60.24096386,,,,,,,,,,,,,,,,,,,,,,,406.0863,407.2176,l,1,0.4627,1,407.2176,407.7175,,,,,,7,MAS,WORD,AGR,150,hijo,,el,,0.4627,,407.7176,407.7177,0.00390625,-0.2109375,0,0,0,,0,157,157,6,1,nivo,,,,
,,,,,,613688d0acdf68a9e2853fb5,676192165fb32c2e1fb7aee6,67d15f1afccd867805e81940,2025-03-12_07h17.37.060,Tarea de decisión léxica,2024.2.5,Win32,60.24096386,,,,,,,,,,,,,,,,,,,,,,,407.7188,408.8532,a,1,0.4665,1,408.8532,409.3508,,,,,,416,FEM,NOWORD,AGR,150,juira,,la,,0.4665,,409.3508,409.351,0.00390625,-0.2109375,0,0,0,,0,158,158,415,1,jaula,,,,
,,,,,,613688d0acdf68a9e2853fb5,676192165fb32c2e1fb7aee6,67d15f1afccd867805e81940,2025-03-12_07h17.37.060,Tarea de decisión léxica,2024.2.5,Win32,60.24096386,,,,,,,,,,,,,,,,,,,,,,,409.3526,410.4345,l,1,0.4032,1,410.4347,410.9342,,,,,,329,MAS,WORD,DIS,150,hueso,,la,,0.4032,,410.9342,410.9343,0.00390625,-0.2109375,0,0,0,,0,159,159,328,1,nueno,,,,
,,,,,,613688d0acdf68a9e2853fb5,676192165fb32c2e1fb7aee6,67d15f1afccd867805e81940,2025-03-12_07h17.37.060,Tarea de decisión léxica,2024.2.5,Win32,60.24096386,,,,,,,,,,,,,,,,,,,,,,,410.9353,412.0846,l,1,0.4669,1,412.0848,412.5845,,,,,,379,MAS,WORD,AGR,150,turno,,el,,0.4669,,412.5859,430.4857,0.00390625,-0.2109375,0,0,0,space,0,160,160,378,1,tunso,17.8828,,,
,,,,,,613688d0acdf68a9e2853fb5,676192165fb32c2e1fb7aee6,67d15f1afccd867805e81940,2025-03-12_07h17.37.060,Tarea de decisión léxica,2024.2.5,Win32,60.24096386,,,,,,,,,,,,,,,,,,,,,,,430.4865,431.6497,l,1,0.4872,1,431.6498,432.1495,,,,,,467,MAS,WORD,AGR,150,piano,,el,,0.4872,,432.1496,432.1497,0.00390625,-0.2109375,0,0,0,,0,161,161,466,1,peiso,,,,
,,,,,,613688d0acdf68a9e2853fb5,676192165fb32c2e1fb7aee6,67d15f1afccd867805e81940,2025-03-12_07h17.37.060,Tarea de decisión léxica,2024.2.5,Win32,60.24096386,,,,,,,,,,,,,,,,,,,,,,,432.1511,433.2664,l,1,0.4402,1,433.2664,433.7664,,,,,,71,FEM,WORD,AGR,150,isla,,la,,0.4402,,433.7666,433.7666,0.00390625,-0.2109375,0,0,0,,0,162,162,70,1,urla,,,,
,,,,,,613688d0acdf68a9e2853fb5,676192165fb32c2e1fb7aee6,67d15f1afccd867805e81940,2025-03-12_07h17.37.060,Tarea de decisión léxica,2024.2.5,Win32,60.24096386,,,,,,,,,,,,,,,,,,,,,,,433.7675,434.9164,a,1,0.4671,1,434.9165,435.4162,,,,,,288,FEM,NOWORD,AGR,150,fosta,,la,,0.4671,,435.4162,435.4163,0.00390625,-0.2109375,0,0,0,,0,163,163,287,1,lista,,,,
,,,,,,613688d0acdf68a9e2853fb5,676192165fb32c2e1fb7aee6,67d15f1afccd867805e81940,2025-03-12_07h17.37.060,Tarea de decisión léxica,2024.2.5,Win32,60.24096386,,,,,,,,,,,,,,,,,,,,,,,435.4177,436.5327,l,1,0.4476,1,436.5327,437.0328,,,,,,433,MAS,WORD,DIS,150,disco,,la,,0.4476,,437.0328,437.033,0.00390625,-0.2109375,0,0,0,,0,164,164,432,1,durco,,,,
,,,,,,613688d0acdf68a9e2853fb5,676192165fb32c2e1fb7aee6,67d15f1afccd867805e81940,2025-03-12_07h17.37.060,Tarea de decisión léxica,2024.2.5,Win32,60.24096386,,,,,,,,,,,,,,,,,,,,,,,437.0342,438.1163,l,1,0.4052,1,438.1165,438.6161,,,,,,387,FEM,WORD,AGR,150,crema,,la,,0.4052,,438.6175,438.618,0.00390625,-0.2109375,0,0,0,,0,165,165,386,1,bresa,,,,
,,,,,,613688d0acdf68a9e2853fb5,676192165fb32c2e1fb7aee6,67d15f1afccd867805e81940,2025-03-12_07h17.37.060,Tarea de decisión léxica,2024.2.5,Win32,60.24096386,,,,,,,,,,,,,,,,,,,,,,,438.6185,439.6822,l,1,0.3845,1,439.6823,440.1825,,,,,,203,FEM,WORD,AGR,150,leña,,la,,0.3845,,440.1826,440.1827,0.00390625,-0.2109375,0,0,0,,0,166,166,202,1,beja,,,,
,,,,,,613688d0acdf68a9e2853fb5,676192165fb32c2e1fb7aee6,67d15f1afccd867805e81940,2025-03-12_07h17.37.060,Tarea de decisión léxica,2024.2.5,Win32,60.24096386,,,,,,,,,,,,,,,,,,,,,,,440.1835,441.2992,l,1,0.4412,1,441.2993,441.7999,,,,,,223,FEM,WORD,AGR,150,cera,,la,,0.4412,,441.7999,441.8001,0.00390625,-0.2109375,0,0,0,,0,167,167,222,1,cira,,,,
,,,,,,613688d0acdf68a9e2853fb5,676192165fb32c2e1fb7aee6,67d15f1afccd867805e81940,2025-03-12_07h17.37.060,Tarea de decisión léxica,2024.2.5,Win32,60.24096386,,,,,,,,,,,,,,,,,,,,,,,441.8016,442.9987,a,1,0.5273,1,442.9989,443.499,,,,,,324,FEM,NOWORD,AGR,150,certa,,la,,0.5273,,443.499,443.4992,0.00390625,-0.2109375,0,0,0,,0,168,168,323,1,cinta,,,,
,,,,,,613688d0acdf68a9e2853fb5,676192165fb32c2e1fb7aee6,67d15f1afccd867805e81940,2025-03-12_07h17.37.060,Tarea de decisión léxica,2024.2.5,Win32,60.24096386,,,,,,,,,,,,,,,,,,,,,,,443.5007,444.7153,a,1,0.5419,1,444.7153,445.2158,,,,,,340,MAS,NOWORD,AGR,150,plajo,,el,,0.5419,,445.2159,445.2161,0.00390625,-0.2109375,0,0,0,,0,169,169,339,1,brazo,,,,
,,,,,,613688d0acdf68a9e2853fb5,676192165fb32c2e1fb7aee6,67d15f1afccd867805e81940,2025-03-12_07h17.37.060,Tarea de decisión léxica,2024.2.5,Win32,60.24096386,,,,,,,,,,,,,,,,,,,,,,,445.2173,446.2821,a,1,0.3858,1,446.2822,446.7824,,,,,,374,FEM,NOWORD,DIS,150,pogza,,el,,0.3858,,446.7834,446.7839,0.00390625,-0.2109375,0,0,0,,0,170,170,373,1,pizza,,,,
,,,,,,613688d0acdf68a9e2853fb5,676192165fb32c2e1fb7aee6,67d15f1afccd867805e81940,2025-03-12_07h17.37.060,Tarea de decisión léxica,2024.2.5,Win32,60.24096386,,,,,,,,,,,,,,,,,,,,,,,446.7846,447.9487,a,1,0.4962,1,447.9488,448.4485,,,,,,434,MAS,NOWORD,DIS,150,durco,,la,,0.4962,,448.4485,448.4487,0.00390625,-0.2109375,0,0,0,,0,171,171,433,1,disco,,,,
,,,,,,613688d0acdf68a9e2853fb5,676192165fb32c2e1fb7aee6,67d15f1afccd867805e81940,2025-03-12_07h17.37.060,Tarea de decisión léxica,2024.2.5,Win32,60.24096386,,,,,,,,,,,,,,,,,,,,,,,448.4498,449.5149,a,1,0.3951,1,449.515,450.0154,,,,,,154,MAS,NOWORD,DIS,150,tado,,la,,0.3951,,450.0154,450.0155,0.00390625,-0.2109375,0,0,0,,0,172,172,153,1,pato,,,,
,,,,,,613688d0acdf68a9e2853fb5,676192165fb32c2e1fb7aee6,67d15f1afccd867805e81940,2025-03-12_07h17.37.060,Tarea de decisión léxica,2024.2.5,Win32,60.24096386,,,,,,,,,,,,,,,,,,,,,,,450.0165,451.0989,l,1,0.4093,1,451.099,451.5988,,,,,,51,FEM,WORD,AGR,150,caja,,la,,0.4093,,451.5988,451.599,0.00390625,-0.2109375,0,0,0,,0,173,173,50,1,mava,,,,
,,,,,,613688d0acdf68a9e2853fb5,676192165fb32c2e1fb7aee6,67d15f1afccd867805e81940,2025-03-12_07h17.37.060,Tarea de decisión léxica,2024.2.5,Win32,60.24096386,,,,,,,,,,,,,,,,,,,,,,,451.6003,452.7151,l,1,0.4367,1,452.7152,453.2153,,,,,,403,FEM,WORD,AGR,150,prima,,la,,0.4367,,453.2154,453.2156,0.00390625,-0.2109375,0,0,0,,0,174,174,402,1,grisa,,,,
,,,,,,613688d0acdf68a9e2853fb5,676192165fb32c2e1fb7aee6,67d15f1afccd867805e81940,2025-03-12_07h17.37.060,Tarea de decisión léxica,2024.2.5,Win32,60.24096386,,,,,,,,,,,,,,,,,,,,,,,453.2169,454.3152,a,1,0.4246,1,454.3153,454.8152,,,,,,116,FEM,NOWORD,AGR,150,haca,,la,,0.4246,,454.8161,454.8169,0.00390625,-0.2109375,0,0,0,,0,175,175,115,1,pata,,,,
,,,,,,613688d0acdf68a9e2853fb5,676192165fb32c2e1fb7aee6,67d15f1afccd867805e81940,2025-03-12_07h17.37.060,Tarea de decisión léxica,2024.2.5,Win32,60.24096386,,,,,,,,,,,,,,,,,,,,,,,454.8175,455.8984,l,1,0.4085,1,455.8984,456.3984,,,,,,319,MAS,WORD,AGR,150,suelo,,el,,0.4085,,456.3985,456.3987,0.00390625,-0.2109375,0,0,0,,0,176,176,318,1,tuero,,,,
,,,,,,613688d0acdf68a9e2853fb5,676192165fb32c2e1fb7aee6,67d15f1afccd867805e81940,2025-03-12_07h17.37.060,Tarea de decisión léxica,2024.2.5,Win32,60.24096386,,,,,,,,,,,,,,,,,,,,,,,456.4001,457.5317,a,1,0.4508,1,457.5318,458.0332,,,,,,218,MAS,NOWORD,DIS,150,budo,,la,,0.4508,,458.0332,458.0333,0.00390625,-0.2109375,0,0,0,,0,177,177,217,1,luto,,,,
,,,,,,613688d0acdf68a9e2853fb5,676192165fb32c2e1fb7aee6,67d15f1afccd867805e81940,2025-03-12_07h17.37.060,Tarea de decisión léxica,2024.2.5,Win32,60.24096386,,,,,,,,,,,,,,,,,,,,,,,458.0342,459.0815,a,1,0.37,1,459.0816,459.5815,,,,,,168,FEM,NOWORD,AGR,150,zifa,,la,,0.37,,459.5816,459.5817,0.00390625,-0.2109375,0,0,0,,0,178,178,167,1,jefa,,,,
,,,,,,613688d0acdf68a9e2853fb5,676192165fb32c2e1fb7aee6,67d15f1afccd867805e81940,2025-03-12_07h17.37.060,Tarea de decisión léxica,2024.2.5,Win32,60.24096386,,,,,,,,,,,,,,,,,,,,,,,459.5826,460.6815,l,1,0.4261,1,460.6817,461.1814,,,,,,437,FEM,WORD,DIS,150,plaza,,el,,0.4261,,461.1825,461.183,0.00390625,-0.2109375,0,0,0,,0,179,179,436,1,glava,,,,
,,,,,,613688d0acdf68a9e2853fb5,676192165fb32c2e1fb7aee6,67d15f1afccd867805e81940,2025-03-12_07h17.37.060,Tarea de decisión léxica,2024.2.5,Win32,60.24096386,,,,,,,,,,,,,,,,,,,,,,,461.1836,462.3667,l,1,0.5168,1,462.3667,462.8646,,,,,,109,MAS,WORD,DIS,150,rayo,,la,,0.5168,,462.8647,462.8648,0.00390625,-0.2109375,0,0,0,,0,180,180,108,1,suno,,,,
,,,,,,613688d0acdf68a9e2853fb5,676192165fb32c2e1fb7aee6,67d15f1afccd867805e81940,2025-03-12_07h17.37.060,Tarea de decisión léxica,2024.2.5,Win32,60.24096386,,,,,,,,,,,,,,,,,,,,,,,462.8659,463.8979,a,1,0.3581,1,463.8979,464.3977,,,,,,362,FEM,NOWORD,DIS,150,solle,,el,,0.3581,,464.3978,464.3979,0.00390625,-0.2109375,0,0,0,,0,181,181,361,1,torre,,,,
,,,,,,613688d0acdf68a9e2853fb5,676192165fb32c2e1fb7aee6,67d15f1afccd867805e81940,2025-03-12_07h17.37.060,Tarea de decisión léxica,2024.2.5,Win32,60.24096386,,,,,,,,,,,,,,,,,,,,,,,464.3992,465.4477,l,1,0.3682,1,465.4478,465.9478,,,,,,423,MAS,WORD,AGR,150,queso,,el,,0.3682,,465.9479,465.9479,0.00390625,-0.2109375,0,0,0,,0,182,182,422,1,quigo,,,,
,,,,,,613688d0acdf68a9e2853fb5,676192165fb32c2e1fb7aee6,67d15f1afccd867805e81940,2025-03-12_07h17.37.060,Tarea de decisión léxica,2024.2.5,Win32,60.24096386,,,,,,,,,,,,,,,,,,,,,,,465.949,467.0305,a,1,0.4062,1,467.0306,467.5307,,,,,,366,FEM,NOWORD,DIS,150,gulla,,el,,0.4062,,467.5308,467.5308,0.00390625,-0.2109375,0,0,0,,0,183,183,365,1,ducha,,,,
,,,,,,613688d0acdf68a9e2853fb5,676192165fb32c2e1fb7aee6,67d15f1afccd867805e81940,2025-03-12_07h17.37.060,Tarea de decisión léxica,2024.2.5,Win32,60.24096386,,,,,,,,,,,,,,,,,,,,,,,467.5319,468.564,l,1,0.3607,1,468.5641,469.0639,,,,,,35,MAS,WORD,AGR,150,pelo,,el,,0.3607,,469.0652,469.0657,0.00390625,-0.2109375,0,0,0,,0,184,184,34,1,meno,,,,
,,,,,,613688d0acdf68a9e2853fb5,676192165fb32c2e1fb7aee6,67d15f1afccd867805e81940,2025-03-12_07h17.37.060,Tarea de decisión léxica,2024.2.5,Win32,60.24096386,,,,,,,,,,,,,,,,,,,,,,,469.0663,470.3804,l,1,0.6469,1,470.3804,470.881,,,,,,187,MAS,WORD,AGR,150,mito,,el,,0.6469,,470.8811,470.8811,0.00390625,-0.2109375,0,0,0,,0,185,185,186,1,suto,,,,
,,,,,,613688d0acdf68a9e2853fb5,676192165fb32c2e1fb7aee6,67d15f1afccd867805e81940,2025-03-12_07h17.37.060,Tarea de decisión léxica,2024.2.5,Win32,60.24096386,,,,,,,,,,,,,,,,,,,,,,,470.8825,471.9139,l,1,0.3529,1,471.9139,472.4142,,,,,,99,MAS,WORD,AGR,150,lobo,,el,,0.3529,,472.4142,472.4143,0.00390625,-0.2109375,0,0,0,,0,186,186,98,1,soro,,,,
,,,,,,613688d0acdf68a9e2853fb5,676192165fb32c2e1fb7aee6,67d15f1afccd867805e81940,2025-03-12_07h17.37.060,Tarea de decisión léxica,2024.2.5,Win32,60.24096386,,,,,,,,,,,,,,,,,,,,,,,472.4156,473.4801,l,1,0.3967,1,473.4801,473.9806,,,,,,323,FEM,WORD,AGR,150,cinta,,la,,0.3967,,473.9806,473.9808,0.00390625,-0.2109375,0,0,0,,0,187,187,322,1,certa,,,,
,,,,,,613688d0acdf68a9e2853fb5,676192165fb32c2e1fb7aee6,67d15f1afccd867805e81940,2025-03-12_07h17.37.060,Tarea de decisión léxica,2024.2.5,Win32,60.24096386,,,,,,,,,,,,,,,,,,,,,,,473.9818,475.1139,l,1,0.453,1,475.1141,475.6139,,,,,,39,MAS,WORD,AGR,150,voto,,el,,0.453,,475.6139,475.6141,0.00390625,-0.2109375,0,0,0,,0,188,188,38,1,redo,,,,
,,,,,,613688d0acdf68a9e2853fb5,676192165fb32c2e1fb7aee6,67d15f1afccd867805e81940,2025-03-12_07h17.37.060,Tarea de decisión léxica,2024.2.5,Win32,60.24096386,,,,,,,,,,,,,,,,,,,,,,,475.6155,476.7301,a,1,0.4442,1,476.7303,477.2306,,,,,,286,MAS,NOWORD,DIS,150,echor,,la,,0.4442,,477.2316,477.2322,0.00390625,-0.2109375,0,0,0,,0,189,189,285,1,error,,,,
,,,,,,613688d0acdf68a9e2853fb5,676192165fb32c2e1fb7aee6,67d15f1afccd867805e81940,2025-03-12_07h17.37.060,Tarea de decisión léxica,2024.2.5,Win32,60.24096386,,,,,,,,,,,,,,,,,,,,,,,477.2329,478.2469,a,1,0.3394,1,478.247,478.747,,,,,,308,MAS,NOWORD,AGR,150,holol,,el,,0.3394,,478.7471,478.7472,0.00390625,-0.2109375,0,0,0,,0,190,190,307,1,hotel,,,,
,,,,,,613688d0acdf68a9e2853fb5,676192165fb32c2e1fb7aee6,67d15f1afccd867805e81940,2025-03-12_07h17.37.060,Tarea de decisión léxica,2024.2.5,Win32,60.24096386,,,,,,,,,,,,,,,,,,,,,,,478.7487,479.8137,l,0,0.3927,0,479.8144,480.3133,,,,,,274,FEM,NOWORD,DIS,150,frosa,,el,,0.3927,,480.3133,480.3135,0.00390625,-0.2109375,0,0,0,,0,191,191,273,1,broma,,,,
,,,,,,613688d0acdf68a9e2853fb5,676192165fb32c2e1fb7aee6,67d15f1afccd867805e81940,2025-03-12_07h17.37.060,Tarea de decisión léxica,2024.2.5,Win32,60.24096386,,,,,,,,,,,,,,,,,,,,,,,480.3147,481.6155,l,0,0.633,0,481.6156,482.1131,,,,,,156,FEM,NOWORD,AGR,150,luma,,la,,0.633,,482.1132,482.1133,0.00390625,-0.2109375,0,0,0,,0,192,192,155,1,fuga,,,,
,,,,,,613688d0acdf68a9e2853fb5,676192165fb32c2e1fb7aee6,67d15f1afccd867805e81940,2025-03-12_07h17.37.060,Tarea de decisión léxica,2024.2.5,Win32,60.24096386,,,,,,,,,,,,,,,,,,,,,,,482.1142,483.1967,a,1,0.4,1,483.1974,483.6982,,,,,,238,MAS,NOWORD,DIS,150,huco,,la,,0.4,,483.6983,483.6983,0.00390625,-0.2109375,0,0,0,,0,193,193,237,1,nudo,,,,
,,,,,,613688d0acdf68a9e2853fb5,676192165fb32c2e1fb7aee6,67d15f1afccd867805e81940,2025-03-12_07h17.37.060,Tarea de decisión léxica,2024.2.5,Win32,60.24096386,,,,,,,,,,,,,,,,,,,,,,,483.6993,484.98,l,1,0.6004,1,484.98,485.4795,,,,,,179,MAS,WORD,AGR,150,toro,,el,,0.6004,,485.4802,485.481,0.00390625,-0.2109375,0,0,0,,0,194,194,178,1,sono,,,,
,,,,,,613688d0acdf68a9e2853fb5,676192165fb32c2e1fb7aee6,67d15f1afccd867805e81940,2025-03-12_07h17.37.060,Tarea de decisión léxica,2024.2.5,Win32,60.24096386,,,,,,,,,,,,,,,,,,,,,,,485.4815,486.6126,a,1,0.4553,1,486.6127,487.1128,,,,,,384,FEM,NOWORD,AGR,150,brame,,la,,0.4553,,487.1128,487.113,0.00390625,-0.2109375,0,0,0,,0,195,195,383,1,frase,,,,
,,,,,,613688d0acdf68a9e2853fb5,676192165fb32c2e1fb7aee6,67d15f1afccd867805e81940,2025-03-12_07h17.37.060,Tarea de decisión léxica,2024.2.5,Win32,60.24096386,,,,,,,,,,,,,,,,,,,,,,,487.1138,488.1628,a,1,0.3673,1,488.1628,488.6625,,,,,,4,FEM,NOWORD,AGR,150,dica,,la,,0.3673,,488.6626,488.6626,0.00390625,-0.2109375,0,0,0,,0,196,196,3,1,vida,,,,
,,,,,,613688d0acdf68a9e2853fb5,676192165fb32c2e1fb7aee6,67d15f1afccd867805e81940,2025-03-12_07h17.37.060,Tarea de decisión léxica,2024.2.5,Win32,60.24096386,,,,,,,,,,,,,,,,,,,,,,,488.6638,489.8461,l,1,0.5047,1,489.8462,490.3462,,,,,,169,MAS,WORD,DIS,150,cubo,,la,,0.5047,,490.3463,490.3464,0.00390625,-0.2109375,0,0,0,,0,197,197,168,1,mibo,,,,
,,,,,,613688d0acdf68a9e2853fb5,676192165fb32c2e1fb7aee6,67d15f1afccd867805e81940,2025-03-12_07h17.37.060,Tarea de decisión léxica,2024.2.5,Win32,60.24096386,,,,,,,,,,,,,,,,,,,,,,,490.3475,491.5625,l,1,0.5356,1,491.5626,492.0625,,,,,,279,FEM,WORD,AGR,150,prisa,,la,,0.5356,,492.0625,492.0625,0.00390625,-0.2109375,0,0,0,,0,198,198,278,1,grina,,,,
,,,,,,613688d0acdf68a9e2853fb5,676192165fb32c2e1fb7aee6,67d15f1afccd867805e81940,2025-03-12_07h17.37.060,Tarea de decisión léxica,2024.2.5,Win32,60.24096386,,,,,,,,,,,,,,,,,,,,,,,492.0637,494.7122,,0,0.5356,-1,494.7132,495.2122,,,,,,161,MAS,WORD,DIS,150,coro,,la,,,,495.213,495.2138,0.00390625,-0.2109375,0,0,0,,0,199,199,160,1,bopo,,,,
,,,,,,613688d0acdf68a9e2853fb5,676192165fb32c2e1fb7aee6,67d15f1afccd867805e81940,2025-03-12_07h17.37.060,Tarea de decisión léxica,2024.2.5,Win32,60.24096386,,,,,,,,,,,,,,,,,,,,,,,495.2145,496.2788,l,1,0.3874,1,496.2795,496.779,,,,,,201,FEM,WORD,DIS,150,cuna,,el,,0.3874,,496.779,496.7791,0.00390625,-0.2109375,0,0,0,,0,200,200,200,1,cusa,,,,
,,,,,,613688d0acdf68a9e2853fb5,676192165fb32c2e1fb7aee6,67d15f1afccd867805e81940,2025-03-12_07h17.37.060,Tarea de decisión léxica,2024.2.5,Win32,60.24096386,,,,,,,,,,,,,,,,,,,,,,,496.78,497.8625,l,0,0.4058,0,497.8633,498.3624,,,,,,40,MAS,NOWORD,AGR,150,redo,,el,,0.4058,,498.3625,498.3626,0.00390625,-0.2109375,0,0,0,,0,201,201,39,1,voto,,,,
,,,,,,613688d0acdf68a9e2853fb5,676192165fb32c2e1fb7aee6,67d15f1afccd867805e81940,2025-03-12_07h17.37.060,Tarea de decisión léxica,2024.2.5,Win32,60.24096386,,,,,,,,,,,,,,,,,,,,,,,498.3637,499.7289,a,1,0.6929,1,499.7301,500.2289,,,,,,306,MAS,NOWORD,DIS,150,adiol,,la,,0.6929,,500.229,500.2292,0.00390625,-0.2109375,0,0,0,,0,202,202,305,1,avión,,,,
,,,,,,613688d0acdf68a9e2853fb5,676192165fb32c2e1fb7aee6,67d15f1afccd867805e81940,2025-03-12_07h17.37.060,Tarea de decisión léxica,2024.2.5,Win32,60.24096386,,,,,,,,,,,,,,,,,,,,,,,500.2303,501.3623,l,1,0.4515,1,501.3624,501.8621,,,,,,475,FEM,WORD,AGR,150,manta,,la,,0.4515,,501.8634,501.864,0.00390625,-0.2109375,0,0,0,,0,203,203,474,1,mucta,,,,
,,,,,,613688d0acdf68a9e2853fb5,676192165fb32c2e1fb7aee6,67d15f1afccd867805e81940,2025-03-12_07h17.37.060,Tarea de decisión léxica,2024.2.5,Win32,60.24096386,,,,,,,,,,,,,,,,,,,,,,,501.8646,503.1456,l,1,0.6014,1,503.1457,503.6455,,,,,,355,FEM,WORD,AGR,150,regla,,la,,0.6014,,503.6455,503.6456,0.00390625,-0.2109375,0,0,0,,0,204,204,354,1,bepla,,,,
,,,,,,613688d0acdf68a9e2853fb5,676192165fb32c2e1fb7aee6,67d15f1afccd867805e81940,2025-03-12_07h17.37.060,Tarea de decisión léxica,2024.2.5,Win32,60.24096386,,,,,,,,,,,,,,,,,,,,,,,503.6468,504.8786,a,0,0.5511,0,504.8795,505.3783,,,,,,171,MAS,WORD,AGR,150,hilo,,el,,0.5511,,505.3784,505.3786,0.00390625,-0.2109375,0,0,0,,0,205,205,170,1,niro,,,,
,,,,,,613688d0acdf68a9e2853fb5,676192165fb32c2e1fb7aee6,67d15f1afccd867805e81940,2025-03-12_07h17.37.060,Tarea de decisión léxica,2024.2.5,Win32,60.24096386,,,,,,,,,,,,,,,,,,,,,,,505.3793,506.778,a,0,0.728,0,506.7781,507.2779,,,,,,149,MAS,WORD,DIS,150,cabo,,la,,0.728,,507.278,507.2781,0.00390625,-0.2109375,0,0,0,,0,206,206,148,1,pafo,,,,
,,,,,,613688d0acdf68a9e2853fb5,676192165fb32c2e1fb7aee6,67d15f1afccd867805e81940,2025-03-12_07h17.37.060,Tarea de decisión léxica,2024.2.5,Win32,60.24096386,,,,,,,,,,,,,,,,,,,,,,,507.2794,508.7283,l,1,0.7754,1,508.7291,509.228,,,,,,191,FEM,WORD,AGR,150,pila,,la,,0.7754,,509.228,509.228,0.00390625,-0.2109375,0,0,0,,0,207,207,190,1,bila,,,,
,,,,,,613688d0acdf68a9e2853fb5,676192165fb32c2e1fb7aee6,67d15f1afccd867805e81940,2025-03-12_07h17.37.060,Tarea de decisión léxica,2024.2.5,Win32,60.24096386,,,,,,,,,,,,,,,,,,,,,,,509.2292,510.4617,a,1,0.5496,1,510.4618,510.9616,,,,,,222,FEM,NOWORD,DIS,150,puca,,el,,0.5496,,510.9628,510.9634,0.00390625,-0.2109375,0,0,0,,0,208,208,221,1,mula,,,,
,,,,,,613688d0acdf68a9e2853fb5,676192165fb32c2e1fb7aee6,67d15f1afccd867805e81940,2025-03-12_07h17.37.060,Tarea de decisión léxica,2024.2.5,Win32,60.24096386,,,,,,,,,,,,,,,,,,,,,,,510.9641,512.0444,a,1,0.405,1,512.0445,512.5448,,,,,,290,FEM,NOWORD,DIS,150,bumpa,,el,,0.405,,512.5448,512.5451,0.00390625,-0.2109375,0,0,0,,0,209,209,289,1,bomba,,,,
,,,,,,613688d0acdf68a9e2853fb5,676192165fb32c2e1fb7aee6,67d15f1afccd867805e81940,2025-03-12_07h17.37.060,Tarea de decisión léxica,2024.2.5,Win32,60.24096386,,,,,,,,,,,,,,,,,,,,,,,512.5462,513.5944,l,1,0.377,1,513.5945,514.0945,,,,,,143,MAS,WORD,AGR,150,pavo,,el,,0.377,,514.0945,514.0947,0.00390625,-0.2109375,0,0,0,,0,210,210,142,1,pezo,,,,
,,,,,,613688d0acdf68a9e2853fb5,676192165fb32c2e1fb7aee6,67d15f1afccd867805e81940,2025-03-12_07h17.37.060,Tarea de decisión léxica,2024.2.5,Win32,60.24096386,,,,,,,,,,,,,,,,,,,,,,,514.0957,515.2614,l,1,0.4846,1,515.2615,515.7609,,,,,,337,MAS,WORD,DIS,150,huevo,,la,,0.4846,,515.7609,515.761,0.00390625,-0.2109375,0,0,0,,0,211,211,336,1,nuejo,,,,
,,,,,,613688d0acdf68a9e2853fb5,676192165fb32c2e1fb7aee6,67d15f1afccd867805e81940,2025-03-12_07h17.37.060,Tarea de decisión léxica,2024.2.5,Win32,60.24096386,,,,,,,,,,,,,,,,,,,,,,,515.762,516.7783,a,1,0.3381,1,516.7784,517.2779,,,,,,266,FEM,NOWORD,DIS,150,pitat,,el,,0.3381,,517.278,517.278,0.00390625,-0.2109375,0,0,0,,0,212,212,265,1,mitad,,,,
,,,,,,613688d0acdf68a9e2853fb5,676192165fb32c2e1fb7aee6,67d15f1afccd867805e81940,2025-03-12_07h17.37.060,Tarea de decisión léxica,2024.2.5,Win32,60.24096386,,,,,,,,,,,,,,,,,,,,,,,517.279,518.3944,l,1,0.4342,1,518.3945,518.8942,,,,,,1,FEM,WORD,DIS,150,casa,,el,,0.4342,,518.8955,518.8959,0.00390625,-0.2109375,0,0,0,,0,213,213,0,1,mada,,,,
,,,,,,613688d0acdf68a9e2853fb5,676192165fb32c2e1fb7aee6,67d15f1afccd867805e81940,2025-03-12_07h17.37.060,Tarea de decisión léxica,2024.2.5,Win32,60.24096386,,,,,,,,,,,,,,,,,,,,,,,518.8964,520.111,l,1,0.5336,1,520.111,520.6106,,,,,,459,MAS,WORD,AGR,150,grado,,el,,0.5336,,520.6107,520.6109,0.00390625,-0.2109375,0,0,0,,0,214,214,458,1,fraco,,,,
,,,,,,613688d0acdf68a9e2853fb5,676192165fb32c2e1fb7aee6,67d15f1afccd867805e81940,2025-03-12_07h17.37.060,Tarea de decisión léxica,2024.2.5,Win32,60.24096386,,,,,,,,,,,,,,,,,,,,,,,520.6121,521.711,a,1,0.4167,1,521.711,522.2104,,,,,,474,FEM,NOWORD,DIS,150,felia,,el,,0.4167,,522.2105,522.2106,0.00390625,-0.2109375,0,0,0,,0,215,215,473,1,feria,,,,
,,,,,,613688d0acdf68a9e2853fb5,676192165fb32c2e1fb7aee6,67d15f1afccd867805e81940,2025-03-12_07h17.37.060,Tarea de decisión léxica,2024.2.5,Win32,60.24096386,,,,,,,,,,,,,,,,,,,,,,,522.2113,523.3276,a,1,0.4345,1,523.3277,523.8274,,,,,,304,MAS,NOWORD,AGR,150,lanco,,el,,0.4345,,523.8275,523.8277,0.00390625,-0.2109375,0,0,0,,0,216,216,303,1,barco,,,,
,,,,,,613688d0acdf68a9e2853fb5,676192165fb32c2e1fb7aee6,67d15f1afccd867805e81940,2025-03-12_07h17.37.060,Tarea de decisión léxica,2024.2.5,Win32,60.24096386,,,,,,,,,,,,,,,,,,,,,,,523.8288,525.0108,l,1,0.5018,1,525.0109,525.5107,,,,,,139,MAS,WORD,AGR,150,mago,,el,,0.5018,,525.5108,525.511,0.00390625,-0.2109375,0,0,0,,0,217,217,138,1,nila,,,,
,,,,,,613688d0acdf68a9e2853fb5,676192165fb32c2e1fb7aee6,67d15f1afccd867805e81940,2025-03-12_07h17.37.060,Tarea de decisión léxica,2024.2.5,Win32,60.24096386,,,,,,,,,,,,,,,,,,,,,,,525.5121,526.6604,a,1,0.4774,1,526.6605,527.1605,,,,,,28,MAS,NOWORD,AGR,150,ravo,,el,,0.4774,,527.1617,527.1623,0.00390625,-0.2109375,0,0,0,,0,218,218,27,1,baño,,,,
,,,,,,613688d0acdf68a9e2853fb5,676192165fb32c2e1fb7aee6,67d15f1afccd867805e81940,2025-03-12_07h17.37.060,Tarea de decisión léxica,2024.2.5,Win32,60.24096386,,,,,,,,,,,,,,,,,,,,,,,527.163,528.2441,a,1,0.4087,1,528.2442,528.7438,,,,,,94,FEM,NOWORD,DIS,150,rona,,el,,0.4087,,528.7438,528.7439,0.00390625,-0.2109375,0,0,0,,0,219,219,93,1,bola,,,,
,,,,,,613688d0acdf68a9e2853fb5,676192165fb32c2e1fb7aee6,67d15f1afccd867805e81940,2025-03-12_07h17.37.060,Tarea de decisión léxica,2024.2.5,Win32,60.24096386,,,,,,,,,,,,,,,,,,,,,,,528.7448,529.8438,a,1,0.4223,1,529.8439,530.3437,,,,,,160,MAS,NOWORD,AGR,150,bilo,,el,,0.4223,,530.3438,530.3439,0.00390625,-0.2109375,0,0,0,,0,220,220,159,1,giro,,,,
,,,,,,613688d0acdf68a9e2853fb5,676192165fb32c2e1fb7aee6,67d15f1afccd867805e81940,2025-03-12_07h17.37.060,Tarea de decisión léxica,2024.2.5,Win32,60.24096386,,,,,,,,,,,,,,,,,,,,,,,530.3451,531.5434,l,1,0.525,1,531.5435,532.0434,,,,,,449,FEM,WORD,DIS,150,pluma,,el,,0.525,,532.0435,532.0436,0.00390625,-0.2109375,0,0,0,,0,221,221,448,1,crusa,,,,
,,,,,,613688d0acdf68a9e2853fb5,676192165fb32c2e1fb7aee6,67d15f1afccd867805e81940,2025-03-12_07h17.37.060,Tarea de decisión léxica,2024.2.5,Win32,60.24096386,,,,,,,,,,,,,,,,,,,,,,,532.0445,533.0931,a,1,0.3677,1,533.0931,533.5935,,,,,,296,MAS,NOWORD,AGR,150,goler,,el,,0.3677,,533.5935,533.5937,0.00390625,-0.2109375,0,0,0,,0,222,222,295,1,dolor,,,,
,,,,,,613688d0acdf68a9e2853fb5,676192165fb32c2e1fb7aee6,67d15f1afccd867805e81940,2025-03-12_07h17.37.060,Tarea de decisión léxica,2024.2.5,Win32,60.24096386,,,,,,,,,,,,,,,,,,,,,,,533.5949,534.7931,l,1,0.5178,1,534.7932,535.2935,,,,,,55,MAS,WORD,AGR,150,gato,,el,,0.5178,,535.2945,535.2951,0.00390625,-0.2109375,0,0,0,,0,223,223,54,1,jado,,,,
,,,,,,613688d0acdf68a9e2853fb5,676192165fb32c2e1fb7aee6,67d15f1afccd867805e81940,2025-03-12_07h17.37.060,Tarea de decisión léxica,2024.2.5,Win32,60.24096386,,,,,,,,,,,,,,,,,,,,,,,535.2956,536.3935,a,1,0.428,1,536.3936,536.8936,,,,,,268,MAS,NOWORD,AGR,150,figro,,el,,0.428,,536.8937,536.8938,0.00390625,-0.2109375,0,0,0,,0,224,224,267,1,libro,,,,
,,,,,,613688d0acdf68a9e2853fb5,676192165fb32c2e1fb7aee6,67d15f1afccd867805e81940,2025-03-12_07h17.37.060,Tarea de decisión léxica,2024.2.5,Win32,60.24096386,,,,,,,,,,,,,,,,,,,,,,,536.8949,538.0263,l,0,0.4611,0,538.0271,538.5266,,,,,,92,FEM,NOWORD,AGR,150,sava,,la,,0.4611,,538.5267,538.5267,0.00390625,-0.2109375,0,0,0,,0,225,225,91,1,taza,,,,
,,,,,,613688d0acdf68a9e2853fb5,676192165fb32c2e1fb7aee6,67d15f1afccd867805e81940,2025-03-12_07h17.37.060,Tarea de decisión léxica,2024.2.5,Win32,60.24096386,,,,,,,,,,,,,,,,,,,,,,,538.5278,539.7432,a,1,0.5336,1,539.744,540.2431,,,,,,88,MAS,NOWORD,AGR,150,damo,,el,,0.5336,,540.2433,540.2433,0.00390625,-0.2109375,0,0,0,,0,226,226,87,1,vaso,,,,
,,,,,,613688d0acdf68a9e2853fb5,676192165fb32c2e1fb7aee6,67d15f1afccd867805e81940,2025-03-12_07h17.37.060,Tarea de decisión léxica,2024.2.5,Win32,60.24096386,,,,,,,,,,,,,,,,,,,,,,,540.2448,541.3428,l,1,0.4282,1,541.3428,541.8432,,,,,,249,FEM,WORD,DIS,150,clase,,el,,0.4282,,541.8441,541.8448,0.00390625,-0.2109375,0,0,0,,0,227,227,248,1,plane,,,,
,,,,,,613688d0acdf68a9e2853fb5,676192165fb32c2e1fb7aee6,67d15f1afccd867805e81940,2025-03-12_07h17.37.060,Tarea de decisión léxica,2024.2.5,Win32,60.24096386,,,,,,,,,,,,,,,,,,,,,,,541.8461,543.1259,l,1,0.5997,1,543.1261,543.6264,,,,,,119,MAS,WORD,AGR,150,pozo,,el,,0.5997,,543.6264,543.6266,0.00390625,-0.2109375,0,0,0,,0,228,228,118,1,hooy,,,,
,,,,,,613688d0acdf68a9e2853fb5,676192165fb32c2e1fb7aee6,67d15f1afccd867805e81940,2025-03-12_07h17.37.060,Tarea de decisión léxica,2024.2.5,Win32,60.24096386,,,,,,,,,,,,,,,,,,,,,,,543.6276,544.9762,l,1,0.6669,1,544.9763,545.4759,,,,,,425,FEM,WORD,DIS,150,viuda,,el,,0.6669,,545.4759,545.4759,0.00390625,-0.2109375,0,0,0,,0,229,229,424,1,virca,,,,
,,,,,,613688d0acdf68a9e2853fb5,676192165fb32c2e1fb7aee6,67d15f1afccd867805e81940,2025-03-12_07h17.37.060,Tarea de decisión léxica,2024.2.5,Win32,60.24096386,,,,,,,,,,,,,,,,,,,,,,,545.4771,546.7096,a,1,0.5508,1,546.7097,547.2093,,,,,,180,MAS,NOWORD,AGR,150,sono,,el,,0.5508,,547.2094,547.2096,0.00390625,-0.2109375,0,0,0,,0,230,230,179,1,toro,,,,
,,,,,,613688d0acdf68a9e2853fb5,676192165fb32c2e1fb7aee6,67d15f1afccd867805e81940,2025-03-12_07h17.37.060,Tarea de decisión léxica,2024.2.5,Win32,60.24096386,,,,,,,,,,,,,,,,,,,,,,,547.2107,548.2926,a,1,0.4033,1,548.2929,548.7925,,,,,,270,MAS,NOWORD,DIS,150,mello,,la,,0.4033,,548.7927,548.7927,0.00390625,-0.2109375,0,0,0,,0,231,231,269,1,perro,,,,
,,,,,,613688d0acdf68a9e2853fb5,676192165fb32c2e1fb7aee6,67d15f1afccd867805e81940,2025-03-12_07h17.37.060,Tarea de decisión léxica,2024.2.5,Win32,60.24096386,,,,,,,,,,,,,,,,,,,,,,,548.7941,549.8924,a,1,0.4267,1,549.8925,550.3922,,,,,,16,FEM,NOWORD,AGR,150,odea,,la,,0.4267,,550.3931,550.3937,0.00390625,-0.2109375,0,0,0,,0,232,232,15,1,idea,,,,
,,,,,,613688d0acdf68a9e2853fb5,676192165fb32c2e1fb7aee6,67d15f1afccd867805e81940,2025-03-12_07h17.37.060,Tarea de decisión léxica,2024.2.5,Win32,60.24096386,,,,,,,,,,,,,,,,,,,,,,,550.3943,551.4757,l,1,0.4033,1,551.4757,551.9757,,,,,,385,FEM,WORD,DIS,150,letra,,el,,0.4033,,551.9758,551.9759,0.00390625,-0.2109375,0,0,0,,0,233,233,384,1,febra,,,,
,,,,,,613688d0acdf68a9e2853fb5,676192165fb32c2e1fb7aee6,67d15f1afccd867805e81940,2025-03-12_07h17.37.060,Tarea de decisión léxica,2024.2.5,Win32,60.24096386,,,,,,,,,,,,,,,,,,,,,,,551.9771,553.342,l,1,0.6901,1,553.3421,553.8424,,,,,,353,FEM,WORD,DIS,150,celda,,el,,0.6901,,553.8425,553.8425,0.00390625,-0.2109375,0,0,0,,0,234,234,352,1,cezca,,,,
,,,,,,613688d0acdf68a9e2853fb5,676192165fb32c2e1fb7aee6,67d15f1afccd867805e81940,2025-03-12_07h17.37.060,Tarea de decisión léxica,2024.2.5,Win32,60.24096386,,,,,,,,,,,,,,,,,,,,,,,553.8433,554.875,a,1,0.3619,1,554.875,555.3754,,,,,,378,MAS,NOWORD,DIS,150,gaulo,,la,,0.3619,,555.3755,555.3757,0.00390625,-0.2109375,0,0,0,,0,235,235,377,1,hielo,,,,
,,,,,,613688d0acdf68a9e2853fb5,676192165fb32c2e1fb7aee6,67d15f1afccd867805e81940,2025-03-12_07h17.37.060,Tarea de decisión léxica,2024.2.5,Win32,60.24096386,,,,,,,,,,,,,,,,,,,,,,,555.3768,556.4584,a,1,0.4004,1,556.4586,556.9582,,,,,,182,FEM,NOWORD,DIS,150,teda,,el,,0.4004,,556.9582,556.9583,0.00390625,-0.2109375,0,0,0,,0,236,236,181,1,seda,,,,
,,,,,,613688d0acdf68a9e2853fb5,676192165fb32c2e1fb7aee6,67d15f1afccd867805e81940,2025-03-12_07h17.37.060,Tarea de decisión léxica,2024.2.5,Win32,60.24096386,,,,,,,,,,,,,,,,,,,,,,,556.9596,558.1589,l,1,0.5242,1,558.159,558.6583,,,,,,207,MAS,WORD,AGR,150,kilo,,el,,0.5242,,558.6591,558.6599,0.00390625,-0.2109375,0,0,0,,0,237,237,206,1,kedo,,,,
,,,,,,613688d0acdf68a9e2853fb5,676192165fb32c2e1fb7aee6,67d15f1afccd867805e81940,2025-03-12_07h17.37.060,Tarea de decisión léxica,2024.2.5,Win32,60.24096386,,,,,,,,,,,,,,,,,,,,,,,558.6605,559.7753,a,1,0.4397,1,559.7753,560.2748,,,,,,214,FEM,NOWORD,DIS,150,bana,,el,,0.4397,,560.2749,560.275,0.00390625,-0.2109375,0,0,0,,0,238,238,213,1,rama,,,,
,,,,,,613688d0acdf68a9e2853fb5,676192165fb32c2e1fb7aee6,67d15f1afccd867805e81940,2025-03-12_07h17.37.060,Tarea de decisión léxica,2024.2.5,Win32,60.24096386,,,,,,,,,,,,,,,,,,,,,,,560.2763,561.4254,l,1,0.4679,1,561.4256,561.9248,,,,,,325,FEM,WORD,DIS,150,magia,,el,,0.4679,,561.9249,561.9251,0.00390625,-0.2109375,0,0,0,,0,239,239,324,1,mabia,,,,
,,,,,,613688d0acdf68a9e2853fb5,676192165fb32c2e1fb7aee6,67d15f1afccd867805e81940,2025-03-12_07h17.37.060,Tarea de decisión léxica,2024.2.5,Win32,60.24096386,,,,,,,,,,,,,,,,,,,,,,,561.9262,562.9918,a,1,0.3883,1,562.9918,563.4915,,,,,,120,MAS,NOWORD,AGR,150,hooy,,el,,0.3883,,563.4915,563.4917,0.00390625,-0.2109375,0,0,0,,0,240,240,119,1,pozo,,,,
,,,,,,613688d0acdf68a9e2853fb5,676192165fb32c2e1fb7aee6,67d15f1afccd867805e81940,2025-03-12_07h17.37.060,Tarea de decisión léxica,2024.2.5,Win32,60.24096386,,,,,,,,,,,,,,,,,,,,,,,563.4924,564.6083,a,1,0.4423,1,564.6084,565.1083,,,,,,200,MAS,NOWORD,AGR,150,fano,,el,,0.4423,,565.1084,565.1085,0.00390625,-0.2109375,0,0,0,,0,241,241,199,1,lazo,,,,
,,,,,,613688d0acdf68a9e2853fb5,676192165fb32c2e1fb7aee6,67d15f1afccd867805e81940,2025-03-12_07h17.37.060,Tarea de decisión léxica,2024.2.5,Win32,60.24096386,,,,,,,,,,,,,,,,,,,,,,,565.1095,566.1083,l,1,0.3255,1,566.1084,566.608,,,,,,369,MAS,WORD,DIS,150,ruido,,la,,0.3255,,566.609,566.6095,0.00390625,-0.2109375,0,0,0,,0,242,242,368,1,rioco,,,,
,,,,,,613688d0acdf68a9e2853fb5,676192165fb32c2e1fb7aee6,67d15f1afccd867805e81940,2025-03-12_07h17.37.060,Tarea de decisión léxica,2024.2.5,Win32,60.24096386,,,,,,,,,,,,,,,,,,,,,,,566.6101,567.6742,a,1,0.3975,1,567.6743,568.1747,,,,,,466,FEM,NOWORD,DIS,150,asuba,,el,,0.3975,,568.1747,568.1748,0.00390625,-0.2109375,0,0,0,,0,243,243,465,1,aguja,,,,
,,,,,,613688d0acdf68a9e2853fb5,676192165fb32c2e1fb7aee6,67d15f1afccd867805e81940,2025-03-12_07h17.37.060,Tarea de decisión léxica,2024.2.5,Win32,60.24096386,,,,,,,,,,,,,,,,,,,,,,,568.1762,569.2911,l,1,0.4392,1,569.2911,569.7912,,,,,,317,FEM,WORD,DIS,150,playa,,el,,0.4392,,569.7912,569.7913,0.00390625,-0.2109375,0,0,0,,0,244,244,316,1,plaad,,,,
,,,,,,613688d0acdf68a9e2853fb5,676192165fb32c2e1fb7aee6,67d15f1afccd867805e81940,2025-03-12_07h17.37.060,Tarea de decisión léxica,2024.2.5,Win32,60.24096386,,,,,,,,,,,,,,,,,,,,,,,569.7922,570.9241,a,1,0.4597,1,570.9243,571.4245,,,,,,258,FEM,NOWORD,DIS,150,asama,,el,,0.4597,,571.4246,571.4247,0.00390625,-0.2109375,0,0,0,,0,245,245,257,1,amiga,,,,
,,,,,,613688d0acdf68a9e2853fb5,676192165fb32c2e1fb7aee6,67d15f1afccd867805e81940,2025-03-12_07h17.37.060,Tarea de decisión léxica,2024.2.5,Win32,60.24096386,,,,,,,,,,,,,,,,,,,,,,,571.4255,572.5079,l,1,0.4084,1,572.5079,573.0072,,,,,,15,FEM,WORD,AGR,150,idea,,la,,0.4084,,573.0073,573.0073,0.00390625,-0.2109375,0,0,0,,0,246,246,14,1,odea,,,,
,,,,,,613688d0acdf68a9e2853fb5,676192165fb32c2e1fb7aee6,67d15f1afccd867805e81940,2025-03-12_07h17.37.060,Tarea de decisión léxica,2024.2.5,Win32,60.24096386,,,,,,,,,,,,,,,,,,,,,,,573.0082,574.0075,a,1,0.3275,1,574.0076,574.5076,,,,,,456,MAS,NOWORD,AGR,150,riaso,,el,,0.3275,,574.5089,574.5103,0.00390625,-0.2109375,0,0,0,,0,247,247,455,1,reino,,,,
,,,,,,613688d0acdf68a9e2853fb5,676192165fb32c2e1fb7aee6,67d15f1afccd867805e81940,2025-03-12_07h17.37.060,Tarea de decisión léxica,2024.2.5,Win32,60.24096386,,,,,,,,,,,,,,,,,,,,,,,574.5109,575.6909,l,1,0.5013,1,575.6909,576.1909,,,,,,383,FEM,WORD,AGR,150,frase,,la,,0.5013,,576.1909,576.1911,0.00390625,-0.2109375,0,0,0,,0,248,248,382,1,brame,,,,
,,,,,,613688d0acdf68a9e2853fb5,676192165fb32c2e1fb7aee6,67d15f1afccd867805e81940,2025-03-12_07h17.37.060,Tarea de decisión léxica,2024.2.5,Win32,60.24096386,,,,,,,,,,,,,,,,,,,,,,,576.1921,577.4736,a,1,0.6117,1,577.4737,577.9741,,,,,,432,MAS,NOWORD,AGR,150,tetor,,el,,0.6117,,577.9742,577.9743,0.00390625,-0.2109375,0,0,0,,0,249,249,431,1,motor,,,,
,,,,,,613688d0acdf68a9e2853fb5,676192165fb32c2e1fb7aee6,67d15f1afccd867805e81940,2025-03-12_07h17.37.060,Tarea de decisión léxica,2024.2.5,Win32,60.24096386,,,,,,,,,,,,,,,,,,,,,,,577.9756,579.124,l,1,0.4678,1,579.1241,579.624,,,,,,443,MAS,WORD,AGR,150,salón,,el,,0.4678,,579.6241,579.6243,0.00390625,-0.2109375,0,0,0,,0,250,250,442,1,taron,,,,
,,,,,,613688d0acdf68a9e2853fb5,676192165fb32c2e1fb7aee6,67d15f1afccd867805e81940,2025-03-12_07h17.37.060,Tarea de decisión léxica,2024.2.5,Win32,60.24096386,,,,,,,,,,,,,,,,,,,,,,,579.6254,580.6405,a,0,0.34,0,580.6414,581.1405,,,,,,233,FEM,WORD,DIS,150,lana,,el,,0.34,,581.1416,581.1422,0.00390625,-0.2109375,0,0,0,,0,251,251,232,1,fasa,,,,
,,,,,,613688d0acdf68a9e2853fb5,676192165fb32c2e1fb7aee6,67d15f1afccd867805e81940,2025-03-12_07h17.37.060,Tarea de decisión léxica,2024.2.5,Win32,60.24096386,,,,,,,,,,,,,,,,,,,,,,,581.1428,582.2239,l,1,0.4069,1,582.2248,582.7239,,,,,,335,FEM,WORD,AGR,150,costa,,la,,0.4069,,582.7239,582.7241,0.00390625,-0.2109375,0,0,0,,0,252,252,334,1,pesta,,,,
,,,,,,613688d0acdf68a9e2853fb5,676192165fb32c2e1fb7aee6,67d15f1afccd867805e81940,2025-03-12_07h17.37.060,Tarea de decisión léxica,2024.2.5,Win32,60.24096386,,,,,,,,,,,,,,,,,,,,,,,582.7252,583.7398,a,0,0.346,0,583.7404,584.24,,,,,,227,MAS,WORD,AGR,150,faro,,el,,0.346,,584.2401,584.2402,0.00390625,-0.2109375,0,0,0,,0,253,253,226,1,laro,,,,
,,,,,,613688d0acdf68a9e2853fb5,676192165fb32c2e1fb7aee6,67d15f1afccd867805e81940,2025-03-12_07h17.37.060,Tarea de decisión léxica,2024.2.5,Win32,60.24096386,,,,,,,,,,,,,,,,,,,,,,,584.2414,585.2564,l,1,0.346,1,585.2572,585.757,,,,,,31,FEM,WORD,AGR,150,ropa,,la,,0.346,,585.7571,585.7572,0.00390625,-0.2109375,0,0,0,,0,254,254,30,1,bova,,,,
,,,,,,613688d0acdf68a9e2853fb5,676192165fb32c2e1fb7aee6,67d15f1afccd867805e81940,2025-03-12_07h17.37.060,Tarea de decisión léxica,2024.2.5,Win32,60.24096386,,,,,,,,,,,,,,,,,,,,,,,585.7583,586.8397,a,1,0.4131,1,586.8397,587.3398,,,,,,78,MAS,NOWORD,DIS,150,fodo,,la,,0.4131,,587.3399,587.34,0.00390625,-0.2109375,0,0,0,,0,255,255,77,1,loco,,,,
,,,,,,613688d0acdf68a9e2853fb5,676192165fb32c2e1fb7aee6,67d15f1afccd867805e81940,2025-03-12_07h17.37.060,Tarea de decisión léxica,2024.2.5,Win32,60.24096386,,,,,,,,,,,,,,,,,,,,,,,587.341,588.3731,l,1,0.3617,1,588.3731,588.8734,,,,,,129,MAS,WORD,DIS,150,oído,,la,,0.3617,,588.8747,588.8753,0.00390625,-0.2109375,0,0,0,,0,256,256,128,1,pima,,,,
,,,,,,613688d0acdf68a9e2853fb5,676192165fb32c2e1fb7aee6,67d15f1afccd867805e81940,2025-03-12_07h17.37.060,Tarea de decisión léxica,2024.2.5,Win32,60.24096386,,,,,,,,,,,,,,,,,,,,,,,588.8758,589.9567,l,1,0.4005,1,589.9568,590.4568,,,,,,287,FEM,WORD,AGR,150,lista,,la,,0.4005,,590.4568,590.457,0.00390625,-0.2109375,0,0,0,,0,257,257,286,1,fosta,,,,
,,,,,,613688d0acdf68a9e2853fb5,676192165fb32c2e1fb7aee6,67d15f1afccd867805e81940,2025-03-12_07h17.37.060,Tarea de decisión léxica,2024.2.5,Win32,60.24096386,,,,,,,,,,,,,,,,,,,,,,,590.4579,591.4734,l,1,0.3396,1,591.4735,591.9734,,,,,,251,MAS,WORD,AGR,150,señor,,el,,0.3396,,591.9734,591.9736,0.00390625,-0.2109375,0,0,0,,0,258,258,250,1,refor,,,,
,,,,,,613688d0acdf68a9e2853fb5,676192165fb32c2e1fb7aee6,67d15f1afccd867805e81940,2025-03-12_07h17.37.060,Tarea de decisión léxica,2024.2.5,Win32,60.24096386,,,,,,,,,,,,,,,,,,,,,,,591.9747,592.9559,l,1,0.312,1,592.956,593.4562,,,,,,373,FEM,WORD,DIS,150,pizza,,el,,0.312,,593.4563,593.4564,0.00390625,-0.2109375,0,0,0,,0,259,259,372,1,pogza,,,,
,,,,,,613688d0acdf68a9e2853fb5,676192165fb32c2e1fb7aee6,67d15f1afccd867805e81940,2025-03-12_07h17.37.060,Tarea de decisión léxica,2024.2.5,Win32,60.24096386,,,,,,,,,,,,,,,,,,,,,,,593.4573,594.5394,a,1,0.4013,1,594.5394,595.0394,,,,,,314,MAS,NOWORD,DIS,150,govio,,la,,0.4013,,595.0394,595.0396,0.00390625,-0.2109375,0,0,0,,0,260,260,313,1,novio,,,,
,,,,,,613688d0acdf68a9e2853fb5,676192165fb32c2e1fb7aee6,67d15f1afccd867805e81940,2025-03-12_07h17.37.060,Tarea de decisión léxica,2024.2.5,Win32,60.24096386,,,,,,,,,,,,,,,,,,,,,,,595.0409,596.1557,l,0,0.4468,0,596.1564,596.656,,,,,,188,MAS,NOWORD,AGR,150,suto,,el,,0.4468,,596.6568,596.6577,0.00390625,-0.2109375,0,0,0,,0,261,261,187,1,mito,,,,
,,,,,,613688d0acdf68a9e2853fb5,676192165fb32c2e1fb7aee6,67d15f1afccd867805e81940,2025-03-12_07h17.37.060,Tarea de decisión léxica,2024.2.5,Win32,60.24096386,,,,,,,,,,,,,,,,,,,,,,,596.6583,597.823,a,1,0.485,1,597.8241,598.3229,,,,,,284,MAS,NOWORD,AGR,150,tuevo,,el,,0.485,,598.323,598.3232,0.00390625,-0.2109375,0,0,0,,0,262,262,283,1,sueño,,,,
,,,,,,613688d0acdf68a9e2853fb5,676192165fb32c2e1fb7aee6,67d15f1afccd867805e81940,2025-03-12_07h17.37.060,Tarea de decisión léxica,2024.2.5,Win32,60.24096386,,,,,,,,,,,,,,,,,,,,,,,598.3245,599.4061,a,1,0.4003,1,599.4063,599.9057,,,,,,368,MAS,NOWORD,AGR,150,rerob,,el,,0.4003,,599.9058,599.906,0.00390625,-0.2109375,0,0,0,,0,263,263,367,1,reloj,,,,
,,,,,,613688d0acdf68a9e2853fb5,676192165fb32c2e1fb7aee6,67d15f1afccd867805e81940,2025-03-12_07h17.37.060,Tarea de decisión léxica,2024.2.5,Win32,60.24096386,,,,,,,,,,,,,,,,,,,,,,,599.9069,601.0226,l,1,0.4345,1,601.0228,601.5223,,,,,,333,FEM,WORD,DIS,150,tarea,,el,,0.4345,,601.5223,601.5224,0.00390625,-0.2109375,0,0,0,,0,264,264,332,1,dalea,,,,
,,,,,,613688d0acdf68a9e2853fb5,676192165fb32c2e1fb7aee6,67d15f1afccd867805e81940,2025-03-12_07h17.37.060,Tarea de decisión léxica,2024.2.5,Win32,60.24096386,,,,,,,,,,,,,,,,,,,,,,,601.5234,602.6395,a,1,0.4475,1,602.6396,603.1392,,,,,,122,MAS,NOWORD,DIS,150,bomo,,la,,0.4475,,603.1392,603.1394,0.00390625,-0.2109375,0,0,0,,0,265,265,121,1,hoyo,,,,
,,,,,,613688d0acdf68a9e2853fb5,676192165fb32c2e1fb7aee6,67d15f1afccd867805e81940,2025-03-12_07h17.37.060,Tarea de decisión léxica,2024.2.5,Win32,60.24096386,,,,,,,,,,,,,,,,,,,,,,,603.1404,604.1721,a,1,0.3518,1,604.1722,604.6719,,,,,,84,FEM,NOWORD,AGR,150,taga,,la,,0.3518,,604.6729,604.6737,0.00390625,-0.2109375,0,0,0,,0,266,266,83,1,bala,,,,
