counterbalancing_condition,consent_prescreening.block_1/declare_consent,consent_prescreening.block_1/age_years,consent_prescreening.block_1/gender,consent_prescreening.block_1/language_disorder,consent_prescreening.block_1/first_language,PROLIFIC_PID,STUDY_ID,SESSION_ID,date,expName,psychopyVersion,OS,frameRate,check_prescreening_answers.started,check_prescreening_answers.stopped,Instructions.started,Instructions.stopped,instr_done_keyboard.keys,instr_done_keyboard.rt,instr_done_keyboard.duration,instr_done_touch.x,instr_done_touch.y,instr_done_touch.leftButton,instr_done_touch.midButton,instr_done_touch.rightButton,instruction_pages.thisRepN,instruction_pages.thisTrialN,instruction_pages.thisN,instruction_pages.thisIndex,instruction_pages.ran,pageN,phase,instruct_text,has_image,instruct_image,presentTrial.started,presentTrial.stopped,response.keys,response.corr,rt,corr,feedback.started,feedback.stopped,practice_trials.thisRepN,practice_trials.thisTrialN,practice_trials.thisN,practice_trials.thisIndex,practice_trials.ran,TrialID,Gender,StimulusType,Condition,PrimeDuration,Prime,len,Flanker,corrAns,response.rt,response.duration,Break.started,Break.stopped,break_done_touch.x,break_done_touch.y,break_done_touch.leftButton,break_done_touch.midButton,break_done_touch.rightButton,break_done_keyboard.keys,experiment_trials.thisRepN,experiment_trials.thisTrialN,experiment_trials.thisN,experiment_trials.thisIndex,experiment_trials.ran,PairedWith,break_done_keyboard.rt,break_done_keyboard.duration,End.started,End.stopped
3,"[""over_18"",""comfortable"",""read_info"",""consent_given""]",23,M,"[""none""]","[""spanish""]",613a996383fe819b7cb48941,676192165fb32c2e1fb7aee6,67d1b537a7c7bf7383f01957,2025-03-12_09h27.52.541,Tarea de decisión léxica,2024.2.5,Win32,60.24096386,,,,,,,,,,,,,,,,,,,,,,,,,,,,,,,,,,,,,,,,,,,,,,,,,,,,,,,,,,,,,,,,
,,,,,,613a996383fe819b7cb48941,676192165fb32c2e1fb7aee6,67d1b537a7c7bf7383f01957,2025-03-12_09h27.52.541,Tarea de decisión léxica,2024.2.5,Win32,60.24096386,21.3758,21.3759,,,,,,,,,,,,,,,,,,,,,,,,,,,,,,,,,,,,,,,,,,,,,,,,,,,,,,,,,,,,,,
,,,,,,613a996383fe819b7cb48941,676192165fb32c2e1fb7aee6,67d1b537a7c7bf7383f01957,2025-03-12_09h27.52.541,Tarea de decisión léxica,2024.2.5,Win32,60.24096386,,,21.3927,34.5904,space,13.1536,,0.082905148,-0.394320204,0,0,0,0,0,0,0,1,1,instructions,"INSTRUCCIONES
Va a realizar una prueba de decisión léxica. Desde el comienzo de la prueba mire siempre al centro de la pantalla. Se presentará una serie de cadenas de letras, una a la vez, en la pantalla. Su tarea consiste en determinar si cada cadena de letras constituye una palabra real en español o una no-palabra (una secuencia de letras que no constituye una palabra real). 

Pulse la tecla ESPACIO para continuar.",0,keyboardresponseWN.png,,,,,,,,,,,,,,,,,,,,,,,,,,,,,,,,,,,,,,,,,,
,,,,,,613a996383fe819b7cb48941,676192165fb32c2e1fb7aee6,67d1b537a7c7bf7383f01957,2025-03-12_09h27.52.541,Tarea de decisión léxica,2024.2.5,Win32,60.24096386,,,34.5935,61.0902,space,26.4774,,0.000509217,-0.278595534,0,0,0,0,1,1,1,1,2,instructions,"El procedimiento es el siguiente: Aparecerán dos barras verticales posicionadas en el centro de la pantalla, separadas por un pequeño espacio.Por favor, enfoque su atención en el espacio entre las barras. Esto preparará sus ojos para la siguiente cadena de letras, que aparecerá entre las dos barras durante un instante.

Pulse la tecla ESPACIO para continuar.",0,keyboardresponseWN.png,,,,,,,,,,,,,,,,,,,,,,,,,,,,,,,,,,,,,,,,,,
,,,,,,613a996383fe819b7cb48941,676192165fb32c2e1fb7aee6,67d1b537a7c7bf7383f01957,2025-03-12_09h27.52.541,Tarea de decisión léxica,2024.2.5,Win32,60.24096386,,,61.0929,70.6178,space,9.4742,,0.0690182,-0.235083104,0,0,0,0,2,2,2,1,3,instructions,"En el teclado de su dispositivo, pulse la tecla ""A"" si la cadena de letras es una palabra real en español (por ejemplo: ""mano"") y la tecla ""L"" si la cadena de letras es una no-palabra (por ejemplo: ""minu"").
Pulse la tecla ESPACIO para continuar.",1,keyboardresponseWN.png,,,,,,,,,,,,,,,,,,,,,,,,,,,,,,,,,,,,,,,,,,
,,,,,,613a996383fe819b7cb48941,676192165fb32c2e1fb7aee6,67d1b537a7c7bf7383f01957,2025-03-12_09h27.52.541,Tarea de decisión léxica,2024.2.5,Win32,60.24096386,,,70.6206,72.5993,space,1.9487,,0.0690182,-0.235083104,0,0,0,0,3,3,3,1,4,instructions,"Es muy importante que responda con la mayor rapidez y precisión posibles. Si no responde dentro de 2 segundos, aparecerá el mensaje ""Muy lento"" y el experimento pasará a la siguiente palabra. Inmediatamente después de su respuesta se indicará si fue correcta o no. Los primeros 15 intentos serán de práctica y habrá dos descansos durante la prueba.

Pulse la tecla ESPACIO  para iniciar la parte de práctica.",0,keyboardresponseWN.png,,,,,,,,,,,,,,,,,,,,,,,,,,,,,,,,,,,,,,,,,,
,,,,,,613a996383fe819b7cb48941,676192165fb32c2e1fb7aee6,67d1b537a7c7bf7383f01957,2025-03-12_09h27.52.541,Tarea de decisión léxica,2024.2.5,Win32,60.24096386,,,,,,,,,,,,,,,,,,,,,,,72.6187,75.2651,,0,,-1,75.2655,75.7645,0,0,0,9,1,1010,MAS,WORD,DIS,150,video,5,la,l,,,,,,,,,,,,,,,,,,,,
,,,,,,613a996383fe819b7cb48941,676192165fb32c2e1fb7aee6,67d1b537a7c7bf7383f01957,2025-03-12_09h27.52.541,Tarea de decisión léxica,2024.2.5,Win32,60.24096386,,,,,,,,,,,,,,,,,,,,,,,75.7661,77.33,a,0,0.8906,0,77.3371,77.8293,0,1,1,2,1,1003,FEM,NOWORD,DIS,150,muvor,5,el,a,0.8906,,,,,,,,,,,,,,,,,,,
,,,,,,613a996383fe819b7cb48941,676192165fb32c2e1fb7aee6,67d1b537a7c7bf7383f01957,2025-03-12_09h27.52.541,Tarea de decisión léxica,2024.2.5,Win32,60.24096386,,,,,,,,,,,,,,,,,,,,,,,77.8303,78.9455,a,1,0.4435,1,78.9466,79.4452,0,2,2,6,1,1007,MAS,WORD,DIS,150,masa,4,la,l,0.4435,,,,,,,,,,,,,,,,,,,
,,,,,,613a996383fe819b7cb48941,676192165fb32c2e1fb7aee6,67d1b537a7c7bf7383f01957,2025-03-12_09h27.52.541,Tarea de decisión léxica,2024.2.5,Win32,60.24096386,,,,,,,,,,,,,,,,,,,,,,,79.4464,80.6446,l,1,0.5182,1,80.6448,81.144,0,3,3,4,1,1005,MAS,NOWORD,DIS,150,nobad,5,la,a,0.5182,,,,,,,,,,,,,,,,,,,
,,,,,,613a996383fe819b7cb48941,676192165fb32c2e1fb7aee6,67d1b537a7c7bf7383f01957,2025-03-12_09h27.52.541,Tarea de decisión léxica,2024.2.5,Win32,60.24096386,,,,,,,,,,,,,,,,,,,,,,,81.1448,82.3935,l,1,0.5745,1,82.3937,82.8932,0,4,4,3,1,1004,FEM,NOWORD,AGR,150,bireo,5,la,a,0.5745,,,,,,,,,,,,,,,,,,,
,,,,,,613a996383fe819b7cb48941,676192165fb32c2e1fb7aee6,67d1b537a7c7bf7383f01957,2025-03-12_09h27.52.541,Tarea de decisión léxica,2024.2.5,Win32,60.24096386,,,,,,,,,,,,,,,,,,,,,,,82.8943,84.076,a,1,0.5007,1,84.0761,84.5757,0,5,5,8,1,1009,FEM,WORD,AGR,150,viejo,5,la,l,0.5007,,,,,,,,,,,,,,,,,,,
,,,,,,613a996383fe819b7cb48941,676192165fb32c2e1fb7aee6,67d1b537a7c7bf7383f01957,2025-03-12_09h27.52.541,Tarea de decisión léxica,2024.2.5,Win32,60.24096386,,,,,,,,,,,,,,,,,,,,,,,84.577,85.625,a,1,0.3669,1,85.6251,86.1248,0,6,6,7,1,1008,MAS,WORD,DIS,150,frío,4,la,l,0.3669,,,,,,,,,,,,,,,,,,,
,,,,,,613a996383fe819b7cb48941,676192165fb32c2e1fb7aee6,67d1b537a7c7bf7383f01957,2025-03-12_09h27.52.541,Tarea de decisión léxica,2024.2.5,Win32,60.24096386,,,,,,,,,,,,,,,,,,,,,,,86.1258,87.2239,l,0,0.4267,0,87.2246,87.7232,0,7,7,5,1,1006,FEM,WORD,AGR,150,cara,4,la,l,0.4267,,,,,,,,,,,,,,,,,,,
,,,,,,613a996383fe819b7cb48941,676192165fb32c2e1fb7aee6,67d1b537a7c7bf7383f01957,2025-03-12_09h27.52.541,Tarea de decisión léxica,2024.2.5,Win32,60.24096386,,,,,,,,,,,,,,,,,,,,,,,87.724,88.9226,l,1,0.5182,1,88.9234,89.4223,0,8,8,1,1,1002,FEM,NOWORD,DIS,150,mabo,4,el,a,0.5182,,,,,,,,,,,,,,,,,,,
,,,,,,613a996383fe819b7cb48941,676192165fb32c2e1fb7aee6,67d1b537a7c7bf7383f01957,2025-03-12_09h27.52.541,Tarea de decisión léxica,2024.2.5,Win32,60.24096386,,,,,,,,,,,,,,,,,,,,,,,89.4237,90.6549,l,1,0.552,1,90.655,91.1546,0,9,9,0,1,1001,FEM,NOWORD,AGR,150,croz,4,la,a,0.552,,,,,,,,,,,,,,,,,,,
,,,,,,613a996383fe819b7cb48941,676192165fb32c2e1fb7aee6,67d1b537a7c7bf7383f01957,2025-03-12_09h27.52.541,Tarea de decisión léxica,2024.2.5,Win32,60.24096386,,,92.3734,93.2369,space,0.8534,,0.0690182,-0.235083104,0,0,0,,,,,,,,,,,93.2689,94.7857,a,1,0.853,1,94.7858,95.2854,,,,,,417,FEM,WORD,AGR,150,barba,,la,,0.853,,95.2858,95.2881,0.0690182,-0.235083104,0,0,0,,0,0,0,416,1,banja,,,,
,,,,,,613a996383fe819b7cb48941,676192165fb32c2e1fb7aee6,67d1b537a7c7bf7383f01957,2025-03-12_09h27.52.541,Tarea de decisión léxica,2024.2.5,Win32,60.24096386,,,,,,,,,,,,,,,,,,,,,,,95.2891,96.5513,l,1,0.5919,1,96.5515,97.051,,,,,,134,FEM,NOWORD,AGR,150,vesa,,la,,0.5919,,97.0511,97.0512,0.0690182,-0.235083104,0,0,0,,0,1,1,133,1,vaca,,,,
,,,,,,613a996383fe819b7cb48941,676192165fb32c2e1fb7aee6,67d1b537a7c7bf7383f01957,2025-03-12_09h27.52.541,Tarea de decisión léxica,2024.2.5,Win32,60.24096386,,,,,,,,,,,,,,,,,,,,,,,97.0525,98.2838,l,1,0.5596,1,98.2838,98.7833,,,,,,114,FEM,NOWORD,AGR,150,tada,,la,,0.5596,,98.7844,98.785,0.0690182,-0.235083104,0,0,0,,0,2,2,113,1,miel,,,,
,,,,,,613a996383fe819b7cb48941,676192165fb32c2e1fb7aee6,67d1b537a7c7bf7383f01957,2025-03-12_09h27.52.541,Tarea de decisión léxica,2024.2.5,Win32,60.24096386,,,,,,,,,,,,,,,,,,,,,,,98.7857,100.0325,a,1,0.5672,1,100.0326,100.5321,,,,,,425,FEM,WORD,AGR,150,viuda,,la,,0.5672,,100.5322,100.5323,0.0690182,-0.235083104,0,0,0,,0,3,3,424,1,virca,,,,
,,,,,,613a996383fe819b7cb48941,676192165fb32c2e1fb7aee6,67d1b537a7c7bf7383f01957,2025-03-12_09h27.52.541,Tarea de decisión léxica,2024.2.5,Win32,60.24096386,,,,,,,,,,,,,,,,,,,,,,,100.5333,101.6149,a,1,0.4058,1,101.615,102.1145,,,,,,23,FEM,WORD,DIS,150,hija,,el,,0.4058,,102.1146,102.1146,0.0690182,-0.235083104,0,0,0,,0,4,4,22,1,giva,,,,
,,,,,,613a996383fe819b7cb48941,676192165fb32c2e1fb7aee6,67d1b537a7c7bf7383f01957,2025-03-12_09h27.52.541,Tarea de decisión léxica,2024.2.5,Win32,60.24096386,,,,,,,,,,,,,,,,,,,,,,,102.1156,103.1638,a,1,0.374,1,103.164,103.6636,,,,,,5,FEM,WORD,AGR,150,cosa,,la,,0.374,,103.6637,103.6638,0.0690182,-0.235083104,0,0,0,,0,5,5,4,1,poga,,,,
,,,,,,613a996383fe819b7cb48941,676192165fb32c2e1fb7aee6,67d1b537a7c7bf7383f01957,2025-03-12_09h27.52.541,Tarea de decisión léxica,2024.2.5,Win32,60.24096386,,,,,,,,,,,,,,,,,,,,,,,103.6648,104.7962,l,1,0.455,1,104.7963,105.2959,,,,,,82,FEM,NOWORD,AGR,150,vasa,,la,,0.455,,105.296,105.2961,0.0690182,-0.235083104,0,0,0,,0,6,6,81,1,dama,,,,
,,,,,,613a996383fe819b7cb48941,676192165fb32c2e1fb7aee6,67d1b537a7c7bf7383f01957,2025-03-12_09h27.52.541,Tarea de decisión léxica,2024.2.5,Win32,60.24096386,,,,,,,,,,,,,,,,,,,,,,,105.2979,106.4285,l,1,0.4575,1,106.4288,106.9283,,,,,,30,MAS,NOWORD,AGR,150,pono,,el,,0.4575,,106.9295,106.9305,0.0690182,-0.235083104,0,0,0,,0,7,7,29,1,modo,,,,
,,,,,,613a996383fe819b7cb48941,676192165fb32c2e1fb7aee6,67d1b537a7c7bf7383f01957,2025-03-12_09h27.52.541,Tarea de decisión léxica,2024.2.5,Win32,60.24096386,,,,,,,,,,,,,,,,,,,,,,,106.9319,108.1774,a,1,0.5694,1,108.1774,108.6773,,,,,,235,FEM,WORD,DIS,150,grúa,,el,,0.5694,,108.6774,108.6774,0.0690182,-0.235083104,0,0,0,,0,8,8,234,1,tria,,,,
,,,,,,613a996383fe819b7cb48941,676192165fb32c2e1fb7aee6,67d1b537a7c7bf7383f01957,2025-03-12_09h27.52.541,Tarea de decisión léxica,2024.2.5,Win32,60.24096386,,,,,,,,,,,,,,,,,,,,,,,108.6782,109.9931,a,0,0.6341,0,109.9939,110.4927,,,,,,80,FEM,NOWORD,DIS,150,ciel,,el,,0.6341,,110.4927,110.4929,0.0690182,-0.235083104,0,0,0,,0,9,9,79,1,piel,,,,
,,,,,,613a996383fe819b7cb48941,676192165fb32c2e1fb7aee6,67d1b537a7c7bf7383f01957,2025-03-12_09h27.52.541,Tarea de decisión léxica,2024.2.5,Win32,60.24096386,,,,,,,,,,,,,,,,,,,,,,,110.494,111.6752,a,1,0.5011,1,111.6757,112.1751,,,,,,203,FEM,WORD,DIS,150,leña,,el,,0.5011,,112.1751,112.1753,0.0690182,-0.235083104,0,0,0,,0,10,10,202,1,beja,,,,
,,,,,,613a996383fe819b7cb48941,676192165fb32c2e1fb7aee6,67d1b537a7c7bf7383f01957,2025-03-12_09h27.52.541,Tarea de decisión léxica,2024.2.5,Win32,60.24096386,,,,,,,,,,,,,,,,,,,,,,,112.1764,113.4743,a,1,0.6171,1,113.4744,113.974,,,,,,211,FEM,WORD,DIS,150,joya,,el,,0.6171,,113.9752,113.9758,0.0690182,-0.235083104,0,0,0,,0,11,11,210,1,joad,,,,
,,,,,,613a996383fe819b7cb48941,676192165fb32c2e1fb7aee6,67d1b537a7c7bf7383f01957,2025-03-12_09h27.52.541,Tarea de decisión léxica,2024.2.5,Win32,60.24096386,,,,,,,,,,,,,,,,,,,,,,,113.9766,115.0398,l,1,0.3905,1,115.0399,115.5396,,,,,,414,FEM,NOWORD,AGR,150,bieda,,la,,0.3905,,115.5396,115.5397,0.0690182,-0.235083104,0,0,0,,0,12,12,413,1,rueda,,,,
,,,,,,613a996383fe819b7cb48941,676192165fb32c2e1fb7aee6,67d1b537a7c7bf7383f01957,2025-03-12_09h27.52.541,Tarea de decisión léxica,2024.2.5,Win32,60.24096386,,,,,,,,,,,,,,,,,,,,,,,115.5406,116.672,l,1,0.4613,1,116.6721,117.1719,,,,,,40,MAS,NOWORD,DIS,150,redo,,la,,0.4613,,117.172,117.172,0.0690182,-0.235083104,0,0,0,,0,13,13,39,1,voto,,,,
,,,,,,613a996383fe819b7cb48941,676192165fb32c2e1fb7aee6,67d1b537a7c7bf7383f01957,2025-03-12_09h27.52.541,Tarea de decisión léxica,2024.2.5,Win32,60.24096386,,,,,,,,,,,,,,,,,,,,,,,117.1729,118.4711,l,1,0.6171,1,118.4712,118.9709,,,,,,4,FEM,NOWORD,DIS,150,dica,,el,,0.6171,,118.9709,118.9711,0.0690182,-0.235083104,0,0,0,,0,14,14,3,1,vida,,,,
,,,,,,613a996383fe819b7cb48941,676192165fb32c2e1fb7aee6,67d1b537a7c7bf7383f01957,2025-03-12_09h27.52.541,Tarea de decisión léxica,2024.2.5,Win32,60.24096386,,,,,,,,,,,,,,,,,,,,,,,118.9719,120.1531,a,1,0.5113,1,120.1532,120.6529,,,,,,439,FEM,WORD,DIS,150,presa,,el,,0.5113,,120.653,120.653,0.0690182,-0.235083104,0,0,0,,0,15,15,438,1,prema,,,,
,,,,,,613a996383fe819b7cb48941,676192165fb32c2e1fb7aee6,67d1b537a7c7bf7383f01957,2025-03-12_09h27.52.541,Tarea de decisión léxica,2024.2.5,Win32,60.24096386,,,,,,,,,,,,,,,,,,,,,,,120.654,121.7358,l,1,0.4121,1,121.7359,122.2355,,,,,,22,MAS,NOWORD,AGR,150,blan,,el,,0.4121,,122.2368,122.2373,0.0690182,-0.235083104,0,0,0,,0,16,16,21,1,plan,,,,
,,,,,,613a996383fe819b7cb48941,676192165fb32c2e1fb7aee6,67d1b537a7c7bf7383f01957,2025-03-12_09h27.52.541,Tarea de decisión léxica,2024.2.5,Win32,60.24096386,,,,,,,,,,,,,,,,,,,,,,,122.2381,123.4847,l,1,0.57,1,123.4848,123.9845,,,,,,18,FEM,NOWORD,AGR,150,paba,,la,,0.57,,123.9845,123.9846,0.0690182,-0.235083104,0,0,0,,0,17,17,17,1,mamá,,,,
,,,,,,613a996383fe819b7cb48941,676192165fb32c2e1fb7aee6,67d1b537a7c7bf7383f01957,2025-03-12_09h27.52.541,Tarea de decisión léxica,2024.2.5,Win32,60.24096386,,,,,,,,,,,,,,,,,,,,,,,123.9854,125.0171,a,1,0.362,1,125.0171,125.5167,,,,,,223,FEM,WORD,DIS,150,cera,,el,,0.362,,125.5167,125.5168,0.0690182,-0.235083104,0,0,0,,0,18,18,222,1,cira,,,,
,,,,,,613a996383fe819b7cb48941,676192165fb32c2e1fb7aee6,67d1b537a7c7bf7383f01957,2025-03-12_09h27.52.541,Tarea de decisión léxica,2024.2.5,Win32,60.24096386,,,,,,,,,,,,,,,,,,,,,,,125.5177,126.5826,l,0,0.3939,0,126.5832,127.0825,,,,,,149,MAS,WORD,AGR,150,cabo,,el,,0.3939,,127.0825,127.0825,0.0690182,-0.235083104,0,0,0,,0,19,19,148,1,pafo,,,,
,,,,,,613a996383fe819b7cb48941,676192165fb32c2e1fb7aee6,67d1b537a7c7bf7383f01957,2025-03-12_09h27.52.541,Tarea de decisión léxica,2024.2.5,Win32,60.24096386,,,,,,,,,,,,,,,,,,,,,,,127.0835,128.0984,l,0,0.334,0,128.0985,128.5983,,,,,,301,FEM,WORD,AGR,150,banda,,la,,0.334,,128.5984,128.5984,0.0690182,-0.235083104,0,0,0,,0,20,20,300,1,ranga,,,,
,,,,,,613a996383fe819b7cb48941,676192165fb32c2e1fb7aee6,67d1b537a7c7bf7383f01957,2025-03-12_09h27.52.541,Tarea de decisión léxica,2024.2.5,Win32,60.24096386,,,,,,,,,,,,,,,,,,,,,,,128.5993,129.714,l,1,0.4436,1,129.7147,130.2141,,,,,,418,FEM,NOWORD,AGR,150,banja,,la,,0.4436,,130.2151,130.2158,0.0690182,-0.235083104,0,0,0,,0,21,21,417,1,barba,,,,
,,,,,,613a996383fe819b7cb48941,676192165fb32c2e1fb7aee6,67d1b537a7c7bf7383f01957,2025-03-12_09h27.52.541,Tarea de decisión léxica,2024.2.5,Win32,60.24096386,,,,,,,,,,,,,,,,,,,,,,,130.2165,131.2634,a,1,0.3663,1,131.2635,131.7629,,,,,,469,MAS,WORD,AGR,150,patio,,el,,0.3663,,131.763,131.7632,0.0690182,-0.235083104,0,0,0,,0,22,22,468,1,matia,,,,
,,,,,,613a996383fe819b7cb48941,676192165fb32c2e1fb7aee6,67d1b537a7c7bf7383f01957,2025-03-12_09h27.52.541,Tarea de decisión léxica,2024.2.5,Win32,60.24096386,,,,,,,,,,,,,,,,,,,,,,,131.7641,132.7621,a,1,0.3285,1,132.7622,133.2619,,,,,,387,FEM,WORD,DIS,150,crema,,el,,0.3285,,133.2619,133.262,0.0690182,-0.235083104,0,0,0,,0,23,23,386,1,bresa,,,,
,,,,,,613a996383fe819b7cb48941,676192165fb32c2e1fb7aee6,67d1b537a7c7bf7383f01957,2025-03-12_09h27.52.541,Tarea de decisión léxica,2024.2.5,Win32,60.24096386,,,,,,,,,,,,,,,,,,,,,,,133.2629,134.4113,a,1,0.4673,1,134.4114,134.9111,,,,,,131,FEM,WORD,DIS,150,mina,,el,,0.4673,,134.9112,134.9113,0.0690182,-0.235083104,0,0,0,,0,24,24,130,1,fada,,,,
,,,,,,613a996383fe819b7cb48941,676192165fb32c2e1fb7aee6,67d1b537a7c7bf7383f01957,2025-03-12_09h27.52.541,Tarea de decisión léxica,2024.2.5,Win32,60.24096386,,,,,,,,,,,,,,,,,,,,,,,134.9121,135.9438,a,1,0.3558,1,135.9438,136.4432,,,,,,337,MAS,WORD,AGR,150,huevo,,el,,0.3558,,136.4433,136.4433,0.0690182,-0.235083104,0,0,0,,0,25,25,336,1,nuejo,,,,
,,,,,,613a996383fe819b7cb48941,676192165fb32c2e1fb7aee6,67d1b537a7c7bf7383f01957,2025-03-12_09h27.52.541,Tarea de decisión léxica,2024.2.5,Win32,60.24096386,,,,,,,,,,,,,,,,,,,,,,,136.4442,137.5094,a,1,0.3834,1,137.5094,138.009,,,,,,245,FEM,WORD,AGR,150,madre,,la,,0.3834,,138.0103,138.0111,0.0690182,-0.235083104,0,0,0,,0,26,26,244,1,pafle,,,,
,,,,,,613a996383fe819b7cb48941,676192165fb32c2e1fb7aee6,67d1b537a7c7bf7383f01957,2025-03-12_09h27.52.541,Tarea de decisión léxica,2024.2.5,Win32,60.24096386,,,,,,,,,,,,,,,,,,,,,,,138.0118,139.3583,l,1,0.6694,1,139.3583,139.8574,,,,,,88,MAS,NOWORD,DIS,150,damo,,la,,0.6694,,139.8575,139.8576,0.0690182,-0.235083104,0,0,0,,0,27,27,87,1,vaso,,,,
,,,,,,613a996383fe819b7cb48941,676192165fb32c2e1fb7aee6,67d1b537a7c7bf7383f01957,2025-03-12_09h27.52.541,Tarea de decisión léxica,2024.2.5,Win32,60.24096386,,,,,,,,,,,,,,,,,,,,,,,139.8582,141.0405,l,1,0.5001,1,141.0406,141.5402,,,,,,2,FEM,NOWORD,AGR,150,mada,,la,,0.5001,,141.5402,141.5403,0.0690182,-0.235083104,0,0,0,,0,28,28,1,1,casa,,,,
,,,,,,613a996383fe819b7cb48941,676192165fb32c2e1fb7aee6,67d1b537a7c7bf7383f01957,2025-03-12_09h27.52.541,Tarea de decisión léxica,2024.2.5,Win32,60.24096386,,,,,,,,,,,,,,,,,,,,,,,141.5411,142.6563,l,1,0.4345,1,142.6564,143.1559,,,,,,394,FEM,NOWORD,AGR,150,ashea,,la,,0.4345,,143.156,143.1561,0.0690182,-0.235083104,0,0,0,,0,29,29,393,1,aldea,,,,
,,,,,,613a996383fe819b7cb48941,676192165fb32c2e1fb7aee6,67d1b537a7c7bf7383f01957,2025-03-12_09h27.52.541,Tarea de decisión léxica,2024.2.5,Win32,60.24096386,,,,,,,,,,,,,,,,,,,,,,,143.157,144.2219,l,1,0.3925,1,144.222,144.7216,,,,,,104,FEM,NOWORD,DIS,150,rova,,el,,0.3925,,144.7216,144.7217,0.0690182,-0.235083104,0,0,0,,0,30,30,103,1,ruta,,,,
,,,,,,613a996383fe819b7cb48941,676192165fb32c2e1fb7aee6,67d1b537a7c7bf7383f01957,2025-03-12_09h27.52.541,Tarea de decisión léxica,2024.2.5,Win32,60.24096386,,,,,,,,,,,,,,,,,,,,,,,144.7226,145.8042,l,1,0.4068,1,145.8043,146.304,,,,,,454,FEM,NOWORD,AGR,150,pafia,,la,,0.4068,,146.3052,146.306,0.0690182,-0.235083104,0,0,0,,0,31,31,453,1,mafia,,,,
,,,,,,613a996383fe819b7cb48941,676192165fb32c2e1fb7aee6,67d1b537a7c7bf7383f01957,2025-03-12_09h27.52.541,Tarea de decisión léxica,2024.2.5,Win32,60.24096386,,,,,,,,,,,,,,,,,,,,,,,146.3067,147.4364,a,1,0.4612,1,147.4365,147.9363,,,,,,99,MAS,WORD,DIS,150,lobo,,la,,0.4612,,147.9363,147.9363,0.0690182,-0.235083104,0,0,0,,0,32,32,98,1,soro,,,,
,,,,,,613a996383fe819b7cb48941,676192165fb32c2e1fb7aee6,67d1b537a7c7bf7383f01957,2025-03-12_09h27.52.541,Tarea de decisión léxica,2024.2.5,Win32,60.24096386,,,,,,,,,,,,,,,,,,,,,,,147.9372,148.9856,a,1,0.3702,1,148.9856,149.4853,,,,,,463,FEM,WORD,DIS,150,cabra,,el,,0.3702,,149.4853,149.4854,0.0690182,-0.235083104,0,0,0,,0,33,33,462,1,matla,,,,
,,,,,,613a996383fe819b7cb48941,676192165fb32c2e1fb7aee6,67d1b537a7c7bf7383f01957,2025-03-12_09h27.52.541,Tarea de decisión léxica,2024.2.5,Win32,60.24096386,,,,,,,,,,,,,,,,,,,,,,,149.4862,150.6014,l,1,0.4371,1,150.6014,151.1009,,,,,,206,FEM,NOWORD,AGR,150,bara,,la,,0.4371,,151.101,151.1011,0.0690182,-0.235083104,0,0,0,,0,34,34,205,1,rana,,,,
,,,,,,613a996383fe819b7cb48941,676192165fb32c2e1fb7aee6,67d1b537a7c7bf7383f01957,2025-03-12_09h27.52.541,Tarea de decisión léxica,2024.2.5,Win32,60.24096386,,,,,,,,,,,,,,,,,,,,,,,151.102,152.1002,l,1,0.3286,1,152.1003,152.6,,,,,,118,MAS,NOWORD,AGR,150,movo,,el,,0.3286,,152.6012,152.6019,0.0690182,-0.235083104,0,0,0,,0,35,35,117,1,palo,,,,
,,,,,,613a996383fe819b7cb48941,676192165fb32c2e1fb7aee6,67d1b537a7c7bf7383f01957,2025-03-12_09h27.52.541,Tarea de decisión léxica,2024.2.5,Win32,60.24096386,,,,,,,,,,,,,,,,,,,,,,,152.6026,153.6162,a,1,0.3392,1,153.6162,154.1159,,,,,,247,FEM,WORD,DIS,150,chica,,el,,0.3392,,154.1159,154.1161,0.0690182,-0.235083104,0,0,0,,0,36,36,246,1,trida,,,,
,,,,,,613a996383fe819b7cb48941,676192165fb32c2e1fb7aee6,67d1b537a7c7bf7383f01957,2025-03-12_09h27.52.541,Tarea de decisión léxica,2024.2.5,Win32,60.24096386,,,,,,,,,,,,,,,,,,,,,,,154.1172,155.1652,a,1,0.3698,1,155.1652,155.6649,,,,,,85,MAS,WORD,AGR,150,lago,,el,,0.3698,,155.6649,155.6649,0.0690182,-0.235083104,0,0,0,,0,37,37,84,1,babo,,,,
,,,,,,613a996383fe819b7cb48941,676192165fb32c2e1fb7aee6,67d1b537a7c7bf7383f01957,2025-03-12_09h27.52.541,Tarea de decisión léxica,2024.2.5,Win32,60.24096386,,,,,,,,,,,,,,,,,,,,,,,155.6659,156.6976,a,1,0.3509,1,156.6977,157.1972,,,,,,237,MAS,WORD,AGR,150,nudo,,el,,0.3509,,157.1973,157.1973,0.0690182,-0.235083104,0,0,0,,0,38,38,236,1,huco,,,,
,,,,,,613a996383fe819b7cb48941,676192165fb32c2e1fb7aee6,67d1b537a7c7bf7383f01957,2025-03-12_09h27.52.541,Tarea de decisión léxica,2024.2.5,Win32,60.24096386,,,,,,,,,,,,,,,,,,,,,,,157.1982,158.3296,l,1,0.4614,1,158.3297,158.8296,,,,,,94,FEM,NOWORD,AGR,150,rona,,la,,0.4614,,158.8298,158.8299,0.0690182,-0.235083104,0,0,0,,0,39,39,93,1,bola,,,,
,,,,,,613a996383fe819b7cb48941,676192165fb32c2e1fb7aee6,67d1b537a7c7bf7383f01957,2025-03-12_09h27.52.541,Tarea de decisión léxica,2024.2.5,Win32,60.24096386,,,,,,,,,,,,,,,,,,,,,,,158.8306,159.8455,l,1,0.3428,1,159.8456,160.3454,,,,,,68,FEM,NOWORD,DIS,150,gesa,,el,,0.3428,,160.3466,160.3473,0.0690182,-0.235083104,0,0,0,,0,40,40,67,1,nena,,,,
,,,,,,613a996383fe819b7cb48941,676192165fb32c2e1fb7aee6,67d1b537a7c7bf7383f01957,2025-03-12_09h27.52.541,Tarea de decisión léxica,2024.2.5,Win32,60.24096386,,,,,,,,,,,,,,,,,,,,,,,160.3482,161.328,a,1,0.3008,1,161.3281,161.8276,,,,,,309,FEM,WORD,AGR,150,silla,,la,,0.3008,,161.8278,161.8278,0.0690182,-0.235083104,0,0,0,,0,41,41,308,1,tirra,,,,
,,,,,,613a996383fe819b7cb48941,676192165fb32c2e1fb7aee6,67d1b537a7c7bf7383f01957,2025-03-12_09h27.52.541,Tarea de decisión léxica,2024.2.5,Win32,60.24096386,,,,,,,,,,,,,,,,,,,,,,,161.8288,162.8437,a,1,0.3339,1,162.8437,163.3433,,,,,,431,MAS,WORD,DIS,150,motor,,la,,0.3339,,163.3435,163.3436,0.0690182,-0.235083104,0,0,0,,0,42,42,430,1,tetor,,,,
,,,,,,613a996383fe819b7cb48941,676192165fb32c2e1fb7aee6,67d1b537a7c7bf7383f01957,2025-03-12_09h27.52.541,Tarea de decisión léxica,2024.2.5,Win32,60.24096386,,,,,,,,,,,,,,,,,,,,,,,163.3443,164.4093,a,1,0.3874,1,164.4094,164.9091,,,,,,195,FEM,WORD,DIS,150,tela,,el,,0.3874,,164.9091,164.9093,0.0690182,-0.235083104,0,0,0,,0,43,43,194,1,sira,,,,
,,,,,,613a996383fe819b7cb48941,676192165fb32c2e1fb7aee6,67d1b537a7c7bf7383f01957,2025-03-12_09h27.52.541,Tarea de decisión léxica,2024.2.5,Win32,60.24096386,,,,,,,,,,,,,,,,,,,,,,,164.9101,165.9253,a,1,0.3344,1,165.9254,166.4249,,,,,,445,MAS,WORD,AGR,150,actor,,el,,0.3344,,166.425,166.4251,0.0690182,-0.235083104,0,0,0,,0,44,44,444,1,ascor,,,,
,,,,,,613a996383fe819b7cb48941,676192165fb32c2e1fb7aee6,67d1b537a7c7bf7383f01957,2025-03-12_09h27.52.541,Tarea de decisión léxica,2024.2.5,Win32,60.24096386,,,,,,,,,,,,,,,,,,,,,,,166.426,167.4575,l,1,0.3536,1,167.4576,167.9573,,,,,,270,MAS,NOWORD,AGR,150,mello,,el,,0.3536,,167.9582,167.9591,0.0690182,-0.235083104,0,0,0,,0,45,45,269,1,perro,,,,
,,,,,,613a996383fe819b7cb48941,676192165fb32c2e1fb7aee6,67d1b537a7c7bf7383f01957,2025-03-12_09h27.52.541,Tarea de decisión léxica,2024.2.5,Win32,60.24096386,,,,,,,,,,,,,,,,,,,,,,,167.9599,169.1563,l,1,0.5168,1,169.1565,169.6566,,,,,,234,FEM,NOWORD,AGR,150,fasa,,la,,0.5168,,169.6566,169.6566,0.0690182,-0.235083104,0,0,0,,0,46,46,233,1,lana,,,,
,,,,,,613a996383fe819b7cb48941,676192165fb32c2e1fb7aee6,67d1b537a7c7bf7383f01957,2025-03-12_09h27.52.541,Tarea de decisión léxica,2024.2.5,Win32,60.24096386,,,,,,,,,,,,,,,,,,,,,,,169.6574,170.6556,a,1,0.3231,1,170.6556,171.1553,,,,,,1,FEM,WORD,AGR,150,casa,,la,,0.3231,,171.1553,171.1554,0.0690182,-0.235083104,0,0,0,,0,47,47,0,1,mada,,,,
,,,,,,613a996383fe819b7cb48941,676192165fb32c2e1fb7aee6,67d1b537a7c7bf7383f01957,2025-03-12_09h27.52.541,Tarea de decisión léxica,2024.2.5,Win32,60.24096386,,,,,,,,,,,,,,,,,,,,,,,171.1563,172.4045,l,1,0.5711,1,172.4046,172.9042,,,,,,84,FEM,NOWORD,DIS,150,taga,,el,,0.5711,,172.9043,172.9044,0.0690182,-0.235083104,0,0,0,,0,48,48,83,1,bala,,,,
,,,,,,613a996383fe819b7cb48941,676192165fb32c2e1fb7aee6,67d1b537a7c7bf7383f01957,2025-03-12_09h27.52.541,Tarea de decisión léxica,2024.2.5,Win32,60.24096386,,,,,,,,,,,,,,,,,,,,,,,172.9052,174.0703,a,0,0.4894,0,174.071,174.57,,,,,,320,MAS,NOWORD,DIS,150,tuero,,la,,0.4894,,174.57,174.5701,0.0690182,-0.235083104,0,0,0,,0,49,49,319,1,suelo,,,,
,,,,,,613a996383fe819b7cb48941,676192165fb32c2e1fb7aee6,67d1b537a7c7bf7383f01957,2025-03-12_09h27.52.541,Tarea de decisión léxica,2024.2.5,Win32,60.24096386,,,,,,,,,,,,,,,,,,,,,,,174.5708,175.7524,a,1,0.5002,1,175.753,176.2521,,,,,,143,MAS,WORD,DIS,150,pavo,,la,,0.5002,,176.2531,176.2536,0.0690182,-0.235083104,0,0,0,,0,50,50,142,1,pezo,,,,
,,,,,,613a996383fe819b7cb48941,676192165fb32c2e1fb7aee6,67d1b537a7c7bf7383f01957,2025-03-12_09h27.52.541,Tarea de decisión léxica,2024.2.5,Win32,60.24096386,,,,,,,,,,,,,,,,,,,,,,,176.2543,177.6846,a,0,0.753,0,177.6854,178.1845,,,,,,64,FEM,NOWORD,DIS,150,funa,,el,,0.753,,178.1845,178.1845,0.0690182,-0.235083104,0,0,0,,0,51,51,63,1,luna,,,,
,,,,,,613a996383fe819b7cb48941,676192165fb32c2e1fb7aee6,67d1b537a7c7bf7383f01957,2025-03-12_09h27.52.541,Tarea de decisión léxica,2024.2.5,Win32,60.24096386,,,,,,,,,,,,,,,,,,,,,,,178.1853,179.2837,l,0,0.4256,0,179.2838,179.7832,,,,,,161,MAS,WORD,AGR,150,coro,,el,,0.4256,,179.7833,179.7834,0.0690182,-0.235083104,0,0,0,,0,52,52,160,1,bopo,,,,
,,,,,,613a996383fe819b7cb48941,676192165fb32c2e1fb7aee6,67d1b537a7c7bf7383f01957,2025-03-12_09h27.52.541,Tarea de decisión léxica,2024.2.5,Win32,60.24096386,,,,,,,,,,,,,,,,,,,,,,,179.7842,180.8824,a,1,0.4213,1,180.8831,181.3825,,,,,,257,FEM,WORD,AGR,150,amiga,,la,,0.4213,,181.3825,181.3827,0.0690182,-0.235083104,0,0,0,,0,53,53,256,1,asama,,,,
,,,,,,613a996383fe819b7cb48941,676192165fb32c2e1fb7aee6,67d1b537a7c7bf7383f01957,2025-03-12_09h27.52.541,Tarea de decisión léxica,2024.2.5,Win32,60.24096386,,,,,,,,,,,,,,,,,,,,,,,181.3836,182.4817,a,1,0.4177,1,182.4817,182.9814,,,,,,119,MAS,WORD,DIS,150,pozo,,la,,0.4177,,182.9814,182.9815,0.0690182,-0.235083104,0,0,0,,0,54,54,118,1,hooy,,,,
,,,,,,613a996383fe819b7cb48941,676192165fb32c2e1fb7aee6,67d1b537a7c7bf7383f01957,2025-03-12_09h27.52.541,Tarea de decisión léxica,2024.2.5,Win32,60.24096386,,,,,,,,,,,,,,,,,,,,,,,182.9824,184.164,a,0,0.5062,0,184.1646,184.6636,,,,,,436,MAS,NOWORD,DIS,150,ricno,,la,,0.5062,,184.6645,184.6651,0.0690182,-0.235083104,0,0,0,,0,55,55,435,1,ritmo,,,,
,,,,,,613a996383fe819b7cb48941,676192165fb32c2e1fb7aee6,67d1b537a7c7bf7383f01957,2025-03-12_09h27.52.541,Tarea de decisión léxica,2024.2.5,Win32,60.24096386,,,,,,,,,,,,,,,,,,,,,,,184.6658,185.7131,a,1,0.3737,1,185.7137,186.2126,,,,,,49,FEM,WORD,AGR,150,edad,,la,,0.3737,,186.2128,186.2128,0.0690182,-0.235083104,0,0,0,,0,56,56,48,1,ecat,,,,
,,,,,,613a996383fe819b7cb48941,676192165fb32c2e1fb7aee6,67d1b537a7c7bf7383f01957,2025-03-12_09h27.52.541,Tarea de decisión léxica,2024.2.5,Win32,60.24096386,,,,,,,,,,,,,,,,,,,,,,,186.2137,187.2621,l,1,0.3735,1,187.2621,187.7619,,,,,,312,MAS,NOWORD,DIS,150,nosor,,la,,0.3735,,187.762,187.762,0.0690182,-0.235083104,0,0,0,,0,57,57,311,1,honor,,,,
,,,,,,613a996383fe819b7cb48941,676192165fb32c2e1fb7aee6,67d1b537a7c7bf7383f01957,2025-03-12_09h27.52.541,Tarea de decisión léxica,2024.2.5,Win32,60.24096386,,,,,,,,,,,,,,,,,,,,,,,187.763,188.8943,l,1,0.4584,1,188.8944,189.3941,,,,,,142,FEM,NOWORD,AGR,150,sina,,la,,0.4584,,189.3941,189.3943,0.0690182,-0.235083104,0,0,0,,0,58,58,141,1,cruz,,,,
,,,,,,613a996383fe819b7cb48941,676192165fb32c2e1fb7aee6,67d1b537a7c7bf7383f01957,2025-03-12_09h27.52.541,Tarea de decisión léxica,2024.2.5,Win32,60.24096386,,,,,,,,,,,,,,,,,,,,,,,189.3951,190.4101,a,1,0.3428,1,190.4102,190.9098,,,,,,199,MAS,WORD,DIS,150,lazo,,la,,0.3428,,190.9108,190.9113,0.0690182,-0.235083104,0,0,0,,0,59,59,198,1,fano,,,,
,,,,,,613a996383fe819b7cb48941,676192165fb32c2e1fb7aee6,67d1b537a7c7bf7383f01957,2025-03-12_09h27.52.541,Tarea de decisión léxica,2024.2.5,Win32,60.24096386,,,,,,,,,,,,,,,,,,,,,,,190.912,192.0258,l,1,0.4339,1,192.0259,192.5255,,,,,,242,MAS,NOWORD,AGR,150,mirdo,,el,,0.4339,,192.5255,192.5256,0.0690182,-0.235083104,0,0,0,,0,60,60,241,1,mundo,,,,
,,,,,,613a996383fe819b7cb48941,676192165fb32c2e1fb7aee6,67d1b537a7c7bf7383f01957,2025-03-12_09h27.52.541,Tarea de decisión léxica,2024.2.5,Win32,60.24096386,,,,,,,,,,,,,,,,,,,,,,,192.5264,193.5248,l,1,0.3204,1,193.5248,194.0247,,,,,,290,FEM,NOWORD,AGR,150,bumpa,,la,,0.3204,,194.0248,194.0248,0.0690182,-0.235083104,0,0,0,,0,61,61,289,1,bomba,,,,
,,,,,,613a996383fe819b7cb48941,676192165fb32c2e1fb7aee6,67d1b537a7c7bf7383f01957,2025-03-12_09h27.52.541,Tarea de decisión léxica,2024.2.5,Win32,60.24096386,,,,,,,,,,,,,,,,,,,,,,,194.0258,195.1405,a,1,0.4409,1,195.1405,195.6399,,,,,,177,MAS,WORD,AGR,150,reto,,el,,0.4409,,195.6401,195.6401,0.0690182,-0.235083104,0,0,0,,0,62,62,176,1,bito,,,,
,,,,,,613a996383fe819b7cb48941,676192165fb32c2e1fb7aee6,67d1b537a7c7bf7383f01957,2025-03-12_09h27.52.541,Tarea de decisión léxica,2024.2.5,Win32,60.24096386,,,,,,,,,,,,,,,,,,,,,,,195.641,196.7728,l,0,0.4504,0,196.7735,197.2724,,,,,,219,FEM,WORD,DIS,150,pipa,,el,,0.4504,,197.2725,197.2725,0.0690182,-0.235083104,0,0,0,,0,63,63,218,1,miva,,,,
,,,,,,613a996383fe819b7cb48941,676192165fb32c2e1fb7aee6,67d1b537a7c7bf7383f01957,2025-03-12_09h27.52.541,Tarea de decisión léxica,2024.2.5,Win32,60.24096386,,,,,,,,,,,,,,,,,,,,,,,197.2734,198.322,a,1,0.3673,1,198.3226,198.8215,,,,,,311,MAS,WORD,DIS,150,honor,,la,,0.3673,,198.8225,198.8231,0.0690182,-0.235083104,0,0,0,,0,64,64,310,1,nosor,,,,
,,,,,,613a996383fe819b7cb48941,676192165fb32c2e1fb7aee6,67d1b537a7c7bf7383f01957,2025-03-12_09h27.52.541,Tarea de decisión léxica,2024.2.5,Win32,60.24096386,,,,,,,,,,,,,,,,,,,,,,,198.8238,199.9377,l,1,0.4428,1,199.9377,200.4375,,,,,,276,MAS,NOWORD,DIS,150,musto,,la,,0.4428,,200.4376,200.4377,0.0690182,-0.235083104,0,0,0,,0,65,65,275,1,punto,,,,
,,,,,,613a996383fe819b7cb48941,676192165fb32c2e1fb7aee6,67d1b537a7c7bf7383f01957,2025-03-12_09h27.52.541,Tarea de decisión léxica,2024.2.5,Win32,60.24096386,,,,,,,,,,,,,,,,,,,,,,,200.4386,201.5364,a,1,0.4192,1,201.5365,202.0364,,,,,,127,MAS,WORD,DIS,150,pico,,la,,0.4192,,202.0364,202.0365,0.0690182,-0.235083104,0,0,0,,0,66,66,126,1,itio,,,,
,,,,,,613a996383fe819b7cb48941,676192165fb32c2e1fb7aee6,67d1b537a7c7bf7383f01957,2025-03-12_09h27.52.541,Tarea de decisión léxica,2024.2.5,Win32,60.24096386,,,,,,,,,,,,,,,,,,,,,,,202.0373,203.2856,a,1,0.5674,1,203.2856,203.7852,,,,,,75,MAS,WORD,DIS,150,olor,,la,,0.5674,,203.7852,203.7853,0.0690182,-0.235083104,0,0,0,,0,67,67,74,1,ocer,,,,
,,,,,,613a996383fe819b7cb48941,676192165fb32c2e1fb7aee6,67d1b537a7c7bf7383f01957,2025-03-12_09h27.52.541,Tarea de decisión léxica,2024.2.5,Win32,60.24096386,,,,,,,,,,,,,,,,,,,,,,,203.7861,204.7845,a,1,0.3272,1,204.7846,205.2842,,,,,,369,MAS,WORD,AGR,150,ruido,,el,,0.3272,,205.2843,205.2844,0.0690182,-0.235083104,0,0,0,,0,68,68,368,1,rioco,,,,
,,,,,,613a996383fe819b7cb48941,676192165fb32c2e1fb7aee6,67d1b537a7c7bf7383f01957,2025-03-12_09h27.52.541,Tarea de decisión léxica,2024.2.5,Win32,60.24096386,,,,,,,,,,,,,,,,,,,,,,,205.2853,206.5002,a,1,0.5338,1,206.5003,206.9998,,,,,,289,FEM,WORD,AGR,150,bomba,,la,,0.5338,,207.0007,207.0012,0.0690182,-0.235083104,0,0,0,,0,69,69,288,1,bumpa,,,,
,,,,,,613a996383fe819b7cb48941,676192165fb32c2e1fb7aee6,67d1b537a7c7bf7383f01957,2025-03-12_09h27.52.541,Tarea de decisión léxica,2024.2.5,Win32,60.24096386,,,,,,,,,,,,,,,,,,,,,,,207.0019,208.099,l,1,0.4176,1,208.0991,208.5988,,,,,,116,FEM,NOWORD,DIS,150,haca,,el,,0.4176,,208.5989,208.5989,0.0690182,-0.235083104,0,0,0,,0,70,70,115,1,pata,,,,
,,,,,,613a996383fe819b7cb48941,676192165fb32c2e1fb7aee6,67d1b537a7c7bf7383f01957,2025-03-12_09h27.52.541,Tarea de decisión léxica,2024.2.5,Win32,60.24096386,,,,,,,,,,,,,,,,,,,,,,,208.5998,209.6982,l,1,0.4235,1,209.6983,210.1979,,,,,,356,FEM,NOWORD,DIS,150,bepla,,el,,0.4235,,210.1979,210.198,0.0690182,-0.235083104,0,0,0,,0,71,71,355,1,regla,,,,
,,,,,,613a996383fe819b7cb48941,676192165fb32c2e1fb7aee6,67d1b537a7c7bf7383f01957,2025-03-12_09h27.52.541,Tarea de decisión léxica,2024.2.5,Win32,60.24096386,,,,,,,,,,,,,,,,,,,,,,,210.1988,211.2639,a,1,0.3904,1,211.264,211.7636,,,,,,169,MAS,WORD,AGR,150,cubo,,el,,0.3904,,211.7636,211.7637,0.0690182,-0.235083104,0,0,0,,0,72,72,168,1,mibo,,,,
,,,,,,613a996383fe819b7cb48941,676192165fb32c2e1fb7aee6,67d1b537a7c7bf7383f01957,2025-03-12_09h27.52.541,Tarea de decisión léxica,2024.2.5,Win32,60.24096386,,,,,,,,,,,,,,,,,,,,,,,211.7646,213.0127,a,0,0.5722,0,213.0133,213.5125,,,,,,92,FEM,NOWORD,DIS,150,sava,,el,,0.5722,,213.5126,213.5126,0.0690182,-0.235083104,0,0,0,,0,73,73,91,1,taza,,,,
,,,,,,613a996383fe819b7cb48941,676192165fb32c2e1fb7aee6,67d1b537a7c7bf7383f01957,2025-03-12_09h27.52.541,Tarea de decisión léxica,2024.2.5,Win32,60.24096386,,,,,,,,,,,,,,,,,,,,,,,213.5135,214.5451,a,1,0.359,1,214.5458,215.0449,,,,,,347,FEM,WORD,DIS,150,pieza,,el,,0.359,,215.0457,215.0464,0.0690182,-0.235083104,0,0,0,,0,74,74,346,1,mueza,,,,
,,,,,,613a996383fe819b7cb48941,676192165fb32c2e1fb7aee6,67d1b537a7c7bf7383f01957,2025-03-12_09h27.52.541,Tarea de decisión léxica,2024.2.5,Win32,60.24096386,,,,,,,,,,,,,,,,,,,,,,,215.047,216.1775,l,1,0.4585,1,216.1776,216.6771,,,,,,26,FEM,NOWORD,AGR,150,paza,,la,,0.4585,,216.6772,216.6773,0.0690182,-0.235083104,0,0,0,,0,75,75,25,1,cama,,,,
,,,,,,613a996383fe819b7cb48941,676192165fb32c2e1fb7aee6,67d1b537a7c7bf7383f01957,2025-03-12_09h27.52.541,Tarea de decisión léxica,2024.2.5,Win32,60.24096386,,,,,,,,,,,,,,,,,,,,,,,216.6781,217.8266,l,1,0.4666,1,217.8266,218.3261,,,,,,252,MAS,NOWORD,DIS,150,refor,,la,,0.4666,,218.3261,218.3262,0.0690182,-0.235083104,0,0,0,,0,76,76,251,1,señor,,,,
,,,,,,613a996383fe819b7cb48941,676192165fb32c2e1fb7aee6,67d1b537a7c7bf7383f01957,2025-03-12_09h27.52.541,Tarea de decisión léxica,2024.2.5,Win32,60.24096386,,,,,,,,,,,,,,,,,,,,,,,218.3269,219.4088,l,1,0.4066,1,219.409,219.9086,,,,,,72,FEM,NOWORD,DIS,150,urla,,el,,0.4066,,219.9086,219.9087,0.0690182,-0.235083104,0,0,0,,0,77,77,71,1,isla,,,,
,,,,,,613a996383fe819b7cb48941,676192165fb32c2e1fb7aee6,67d1b537a7c7bf7383f01957,2025-03-12_09h27.52.541,Tarea de decisión léxica,2024.2.5,Win32,60.24096386,,,,,,,,,,,,,,,,,,,,,,,219.9096,221.0245,a,1,0.4415,1,221.0245,221.5242,,,,,,371,FEM,WORD,DIS,150,pasta,,el,,0.4415,,221.5243,221.5244,0.0690182,-0.235083104,0,0,0,,0,78,78,370,1,mosta,,,,
,,,,,,613a996383fe819b7cb48941,676192165fb32c2e1fb7aee6,67d1b537a7c7bf7383f01957,2025-03-12_09h27.52.541,Tarea de decisión léxica,2024.2.5,Win32,60.24096386,,,,,,,,,,,,,,,,,,,,,,,221.5253,222.6068,l,1,0.4061,1,222.6069,223.1065,,,,,,108,MAS,NOWORD,DIS,150,raot,,la,,0.4061,,223.1076,223.1088,0.0690182,-0.235083104,0,0,0,,0,79,79,107,1,saco,,,,
,,,,,,613a996383fe819b7cb48941,676192165fb32c2e1fb7aee6,67d1b537a7c7bf7383f01957,2025-03-12_09h27.52.541,Tarea de decisión léxica,2024.2.5,Win32,60.24096386,,,,,,,,,,,,,,,,,,,,,,,223.11,224.2058,a,0,0.425,0,224.2066,224.7055,,,,,,164,FEM,NOWORD,DIS,150,laga,,el,,0.425,,224.7055,224.7056,0.0690182,-0.235083104,0,0,0,,0,80,80,163,1,fama,,,,
,,,,,,613a996383fe819b7cb48941,676192165fb32c2e1fb7aee6,67d1b537a7c7bf7383f01957,2025-03-12_09h27.52.541,Tarea de decisión léxica,2024.2.5,Win32,60.24096386,,,,,,,,,,,,,,,,,,,,,,,224.7067,225.8549,a,0,0.4769,0,225.855,226.3544,,,,,,380,MAS,NOWORD,DIS,150,tunso,,la,,0.4769,,226.3545,226.3546,0.0690182,-0.235083104,0,0,0,,0,81,81,379,1,turno,,,,
,,,,,,613a996383fe819b7cb48941,676192165fb32c2e1fb7aee6,67d1b537a7c7bf7383f01957,2025-03-12_09h27.52.541,Tarea de decisión léxica,2024.2.5,Win32,60.24096386,,,,,,,,,,,,,,,,,,,,,,,226.3555,227.4371,l,1,0.4089,1,227.4377,227.937,,,,,,70,FEM,NOWORD,AGR,150,ñola,,la,,0.4089,,227.937,227.9371,0.0690182,-0.235083104,0,0,0,,0,82,82,69,1,zona,,,,
,,,,,,613a996383fe819b7cb48941,676192165fb32c2e1fb7aee6,67d1b537a7c7bf7383f01957,2025-03-12_09h27.52.541,Tarea de decisión léxica,2024.2.5,Win32,60.24096386,,,,,,,,,,,,,,,,,,,,,,,227.938,229.086,l,1,0.4777,1,229.0861,229.5859,,,,,,316,FEM,NOWORD,DIS,150,riosa,,el,,0.4777,,229.5869,229.5879,0.0690182,-0.235083104,0,0,0,,0,83,83,315,1,reina,,,,
,,,,,,613a996383fe819b7cb48941,676192165fb32c2e1fb7aee6,67d1b537a7c7bf7383f01957,2025-03-12_09h27.52.541,Tarea de decisión léxica,2024.2.5,Win32,60.24096386,,,,,,,,,,,,,,,,,,,,,,,229.589,230.7016,l,1,0.4443,1,230.7017,231.2018,,,,,,78,MAS,NOWORD,AGR,150,fodo,,el,,0.4443,,231.2018,231.2018,0.0690182,-0.235083104,0,0,0,,0,84,84,77,1,loco,,,,
,,,,,,613a996383fe819b7cb48941,676192165fb32c2e1fb7aee6,67d1b537a7c7bf7383f01957,2025-03-12_09h27.52.541,Tarea de decisión léxica,2024.2.5,Win32,60.24096386,,,,,,,,,,,,,,,,,,,,,,,231.2027,232.4841,a,1,0.6007,1,232.4842,232.984,,,,,,175,FEM,WORD,DIS,150,goma,,el,,0.6007,,232.984,232.9841,0.0690182,-0.235083104,0,0,0,,0,85,85,174,1,hosa,,,,
,,,,,,613a996383fe819b7cb48941,676192165fb32c2e1fb7aee6,67d1b537a7c7bf7383f01957,2025-03-12_09h27.52.541,Tarea de decisión léxica,2024.2.5,Win32,60.24096386,,,,,,,,,,,,,,,,,,,,,,,232.9849,234.1163,a,1,0.4552,1,234.1164,234.6164,,,,,,291,FEM,WORD,DIS,150,pista,,el,,0.4552,,234.6164,234.6166,0.0690182,-0.235083104,0,0,0,,0,86,86,290,1,mesta,,,,
,,,,,,613a996383fe819b7cb48941,676192165fb32c2e1fb7aee6,67d1b537a7c7bf7383f01957,2025-03-12_09h27.52.541,Tarea de decisión léxica,2024.2.5,Win32,60.24096386,,,,,,,,,,,,,,,,,,,,,,,234.6174,235.7154,a,1,0.4173,1,235.7156,236.2152,,,,,,457,MAS,WORD,AGR,150,plato,,el,,0.4173,,236.2152,236.2154,0.0690182,-0.235083104,0,0,0,,0,87,87,456,1,glaco,,,,
,,,,,,613a996383fe819b7cb48941,676192165fb32c2e1fb7aee6,67d1b537a7c7bf7383f01957,2025-03-12_09h27.52.541,Tarea de decisión léxica,2024.2.5,Win32,60.24096386,,,,,,,,,,,,,,,,,,,,,,,236.2161,237.2979,l,1,0.4013,1,237.2979,237.7974,,,,,,336,FEM,NOWORD,DIS,150,pesta,,el,,0.4013,,237.7982,237.7989,0.0690182,-0.235083104,0,0,0,,0,88,88,335,1,costa,,,,
,,,,,,613a996383fe819b7cb48941,676192165fb32c2e1fb7aee6,67d1b537a7c7bf7383f01957,2025-03-12_09h27.52.541,Tarea de decisión léxica,2024.2.5,Win32,60.24096386,,,,,,,,,,,,,,,,,,,,,,,237.7995,238.8301,l,1,0.3533,1,238.8302,239.3299,,,,,,348,FEM,NOWORD,DIS,150,mueza,,el,,0.3533,,239.3299,239.33,0.0690182,-0.235083104,0,0,0,,0,89,89,347,1,pieza,,,,
,,,,,,613a996383fe819b7cb48941,676192165fb32c2e1fb7aee6,67d1b537a7c7bf7383f01957,2025-03-12_09h27.52.541,Tarea de decisión léxica,2024.2.5,Win32,60.24096386,,,,,,,,,,,,,,,,,,,,,,,239.3309,240.3459,l,1,0.3336,1,240.346,240.8458,,,,,,398,FEM,NOWORD,AGR,150,trigi,,la,,0.3336,,240.8458,240.8459,0.0690182,-0.235083104,0,0,0,,0,90,90,397,1,tribu,,,,
,,,,,,613a996383fe819b7cb48941,676192165fb32c2e1fb7aee6,67d1b537a7c7bf7383f01957,2025-03-12_09h27.52.541,Tarea de decisión léxica,2024.2.5,Win32,60.24096386,,,,,,,,,,,,,,,,,,,,,,,240.8467,241.9616,a,1,0.4344,1,241.9616,242.4614,,,,,,39,MAS,WORD,DIS,150,voto,,la,,0.4344,,242.4614,242.4616,0.0690182,-0.235083104,0,0,0,,0,91,91,38,1,redo,,,,
,,,,,,613a996383fe819b7cb48941,676192165fb32c2e1fb7aee6,67d1b537a7c7bf7383f01957,2025-03-12_09h27.52.541,Tarea de decisión léxica,2024.2.5,Win32,60.24096386,,,,,,,,,,,,,,,,,,,,,,,242.4623,243.5107,a,1,0.3679,1,243.5108,244.0105,,,,,,35,MAS,WORD,DIS,150,pelo,,la,,0.3679,,244.0105,244.0106,0.0690182,-0.235083104,0,0,0,,0,92,92,34,1,meno,,,,
,,,,,,613a996383fe819b7cb48941,676192165fb32c2e1fb7aee6,67d1b537a7c7bf7383f01957,2025-03-12_09h27.52.541,Tarea de decisión léxica,2024.2.5,Win32,60.24096386,,,,,,,,,,,,,,,,,,,,,,,244.0115,245.1093,l,1,0.4179,1,245.1094,245.6093,,,,,,468,MAS,NOWORD,DIS,150,peiso,,la,,0.4179,,245.6103,245.6108,0.0690182,-0.235083104,0,0,0,,0,93,93,467,1,piano,,,,
,,,,,,613a996383fe819b7cb48941,676192165fb32c2e1fb7aee6,67d1b537a7c7bf7383f01957,2025-03-12_09h27.52.541,Tarea de decisión léxica,2024.2.5,Win32,60.24096386,,,,,,,,,,,,,,,,,,,,,,,245.6125,246.7251,l,1,0.4437,1,246.7251,247.225,,,,,,328,MAS,NOWORD,DIS,150,lendo,,la,,0.4437,,247.2251,247.2251,0.0690182,-0.235083104,0,0,0,,0,94,94,327,1,fondo,,,,
,,,,,,613a996383fe819b7cb48941,676192165fb32c2e1fb7aee6,67d1b537a7c7bf7383f01957,2025-03-12_09h27.52.541,Tarea de decisión léxica,2024.2.5,Win32,60.24096386,,,,,,,,,,,,,,,,,,,,,,,247.2263,248.2576,a,1,0.3587,1,248.2577,248.7572,,,,,,273,FEM,WORD,AGR,150,broma,,la,,0.3587,,248.7573,248.7574,0.0690182,-0.235083104,0,0,0,,0,95,95,272,1,frosa,,,,
,,,,,,613a996383fe819b7cb48941,676192165fb32c2e1fb7aee6,67d1b537a7c7bf7383f01957,2025-03-12_09h27.52.541,Tarea de decisión léxica,2024.2.5,Win32,60.24096386,,,,,,,,,,,,,,,,,,,,,,,248.7581,249.8567,a,1,0.4235,1,249.8568,250.3577,,,,,,389,MAS,WORD,AGR,150,cerdo,,el,,0.4235,,250.3577,250.3577,0.0690182,-0.235083104,0,0,0,,0,96,96,388,1,cenco,,,,
,,,,,,613a996383fe819b7cb48941,676192165fb32c2e1fb7aee6,67d1b537a7c7bf7383f01957,2025-03-12_09h27.52.541,Tarea de decisión léxica,2024.2.5,Win32,60.24096386,,,,,,,,,,,,,,,,,,,,,,,250.3585,251.3891,a,1,0.3602,1,251.3891,251.8888,,,,,,105,FEM,WORD,AGR,150,sopa,,la,,0.3602,,251.8888,251.8889,0.0690182,-0.235083104,0,0,0,,0,97,97,104,1,vina,,,,
,,,,,,613a996383fe819b7cb48941,676192165fb32c2e1fb7aee6,67d1b537a7c7bf7383f01957,2025-03-12_09h27.52.541,Tarea de decisión léxica,2024.2.5,Win32,60.24096386,,,,,,,,,,,,,,,,,,,,,,,251.8897,252.9049,l,1,0.343,1,252.9049,253.4045,,,,,,168,FEM,NOWORD,DIS,150,zifa,,el,,0.343,,253.4054,253.4059,0.0690182,-0.235083104,0,0,0,,0,98,98,167,1,jefa,,,,
,,,,,,613a996383fe819b7cb48941,676192165fb32c2e1fb7aee6,67d1b537a7c7bf7383f01957,2025-03-12_09h27.52.541,Tarea de decisión léxica,2024.2.5,Win32,60.24096386,,,,,,,,,,,,,,,,,,,,,,,253.4066,254.437,a,1,0.3561,1,254.437,254.937,,,,,,153,MAS,WORD,AGR,150,pato,,el,,0.3561,,254.937,254.9372,0.0690182,-0.235083104,0,0,0,,0,99,99,152,1,tado,,,,
,,,,,,613a996383fe819b7cb48941,676192165fb32c2e1fb7aee6,67d1b537a7c7bf7383f01957,2025-03-12_09h27.52.541,Tarea de decisión léxica,2024.2.5,Win32,60.24096386,,,,,,,,,,,,,,,,,,,,,,,254.9379,255.9031,l,0,0.2834,0,255.9038,256.4028,,,,,,185,MAS,WORD,AGR,150,baúl,,el,,0.2834,,256.4029,256.4029,0.0690182,-0.235083104,0,0,0,,0,100,100,184,1,raol,,,,
,,,,,,613a996383fe819b7cb48941,676192165fb32c2e1fb7aee6,67d1b537a7c7bf7383f01957,2025-03-12_09h27.52.541,Tarea de decisión léxica,2024.2.5,Win32,60.24096386,,,,,,,,,,,,,,,,,,,,,,,256.4037,257.4856,a,1,0.4006,1,257.4862,257.9851,,,,,,409,MAS,WORD,AGR,150,carro,,el,,0.4006,,257.9851,257.9852,0.0690182,-0.235083104,0,0,0,,0,101,101,408,1,pafro,,,,
,,,,,,613a996383fe819b7cb48941,676192165fb32c2e1fb7aee6,67d1b537a7c7bf7383f01957,2025-03-12_09h27.52.541,Tarea de decisión léxica,2024.2.5,Win32,60.24096386,,,,,,,,,,,,,,,,,,,,,,,257.986,258.9844,a,1,0.3226,1,258.9844,259.4842,,,,,,25,FEM,WORD,AGR,150,cama,,la,,0.3226,,259.4843,259.4845,0.0690182,-0.235083104,0,0,0,,0,102,102,24,1,paza,,,,
,,,,,,613a996383fe819b7cb48941,676192165fb32c2e1fb7aee6,67d1b537a7c7bf7383f01957,2025-03-12_09h27.52.541,Tarea de decisión léxica,2024.2.5,Win32,60.24096386,,,,,,,,,,,,,,,,,,,,,,,259.4853,260.5335,a,1,0.371,1,260.5335,261.0333,,,,,,7,MAS,WORD,DIS,150,hijo,,la,,0.371,,261.0343,261.0348,0.0690182,-0.235083104,0,0,0,,0,103,103,6,1,nivo,,,,
,,,,,,613a996383fe819b7cb48941,676192165fb32c2e1fb7aee6,67d1b537a7c7bf7383f01957,2025-03-12_09h27.52.541,Tarea de decisión léxica,2024.2.5,Win32,60.24096386,,,,,,,,,,,,,,,,,,,,,,,261.0355,262.0159,a,0,0.3077,0,262.0166,262.5157,,,,,,440,FEM,NOWORD,DIS,150,prema,,el,,0.3077,,262.5157,262.5158,0.0690182,-0.235083104,0,0,0,,0,104,104,439,1,presa,,,,
,,,,,,613a996383fe819b7cb48941,676192165fb32c2e1fb7aee6,67d1b537a7c7bf7383f01957,2025-03-12_09h27.52.541,Tarea de decisión léxica,2024.2.5,Win32,60.24096386,,,,,,,,,,,,,,,,,,,,,,,262.5168,263.5981,l,1,0.4015,1,263.5988,264.0979,,,,,,256,MAS,NOWORD,DIS,150,mauco,,la,,0.4015,,264.0979,264.098,0.0690182,-0.235083104,0,0,0,,0,105,105,255,1,miedo,,,,
,,,,,,613a996383fe819b7cb48941,676192165fb32c2e1fb7aee6,67d1b537a7c7bf7383f01957,2025-03-12_09h27.52.541,Tarea de decisión léxica,2024.2.5,Win32,60.24096386,,,,,,,,,,,,,,,,,,,,,,,264.0989,265.1139,a,1,0.3415,1,265.114,265.6136,,,,,,77,MAS,WORD,AGR,150,loco,,el,,0.3415,,265.6137,265.6138,0.0690182,-0.235083104,0,0,0,,0,106,106,76,1,fodo,,,,
,,,,,,613a996383fe819b7cb48941,676192165fb32c2e1fb7aee6,67d1b537a7c7bf7383f01957,2025-03-12_09h27.52.541,Tarea de decisión léxica,2024.2.5,Win32,60.24096386,,,,,,,,,,,,,,,,,,,,,,,265.6146,266.5797,l,1,0.2919,1,266.5798,267.0796,,,,,,260,MAS,NOWORD,DIS,150,jaumo,,la,,0.2919,,267.0805,267.081,0.0690182,-0.235083104,0,0,0,,0,107,107,259,1,juego,,,,
,,,,,,613a996383fe819b7cb48941,676192165fb32c2e1fb7aee6,67d1b537a7c7bf7383f01957,2025-03-12_09h27.52.541,Tarea de decisión léxica,2024.2.5,Win32,60.24096386,,,,,,,,,,,,,,,,,,,,,,,267.0818,268.1289,l,1,0.3749,1,268.1289,268.6285,,,,,,450,FEM,NOWORD,AGR,150,crusa,,la,,0.3749,,268.6286,268.6286,0.0690182,-0.235083104,0,0,0,,0,108,108,449,1,pluma,,,,
,,,,,,613a996383fe819b7cb48941,676192165fb32c2e1fb7aee6,67d1b537a7c7bf7383f01957,2025-03-12_09h27.52.541,Tarea de decisión léxica,2024.2.5,Win32,60.24096386,,,,,,,,,,,,,,,,,,,,,,,268.6295,269.6445,a,1,0.3355,1,269.6446,270.1442,,,,,,231,FEM,WORD,DIS,150,bota,,el,,0.3355,,270.1443,270.1445,0.0690182,-0.235083104,0,0,0,,0,109,109,230,1,heta,,,,
,,,,,,613a996383fe819b7cb48941,676192165fb32c2e1fb7aee6,67d1b537a7c7bf7383f01957,2025-03-12_09h27.52.541,Tarea de decisión léxica,2024.2.5,Win32,60.24096386,,,,,,,,,,,,,,,,,,,,,,,270.1453,271.2271,a,1,0.4006,1,271.2271,271.7267,,,,,,473,FEM,WORD,AGR,150,feria,,la,,0.4006,,271.7268,271.7269,0.0690182,-0.235083104,0,0,0,,0,110,110,472,1,felia,,,,
,,,,,,613a996383fe819b7cb48941,676192165fb32c2e1fb7aee6,67d1b537a7c7bf7383f01957,2025-03-12_09h27.52.541,Tarea de decisión léxica,2024.2.5,Win32,60.24096386,,,,,,,,,,,,,,,,,,,,,,,271.7276,272.7257,l,0,0.3236,0,272.7263,273.2253,,,,,,217,MAS,WORD,AGR,150,luto,,el,,0.3236,,273.2253,273.2254,0.0690182,-0.235083104,0,0,0,,0,111,111,216,1,budo,,,,
,,,,,,613a996383fe819b7cb48941,676192165fb32c2e1fb7aee6,67d1b537a7c7bf7383f01957,2025-03-12_09h27.52.541,Tarea de decisión léxica,2024.2.5,Win32,60.24096386,,,,,,,,,,,,,,,,,,,,,,,273.226,274.2914,l,1,0.3931,1,274.292,274.7911,,,,,,216,FEM,NOWORD,DIS,150,raua,,el,,0.3931,,274.7921,274.7927,0.0690182,-0.235083104,0,0,0,,0,112,112,215,1,raíz,,,,
,,,,,,613a996383fe819b7cb48941,676192165fb32c2e1fb7aee6,67d1b537a7c7bf7383f01957,2025-03-12_09h27.52.541,Tarea de decisión léxica,2024.2.5,Win32,60.24096386,,,,,,,,,,,,,,,,,,,,,,,274.7934,275.8572,a,0,0.3921,0,275.8578,276.3571,,,,,,280,FEM,NOWORD,DIS,150,grina,,el,,0.3921,,276.3571,276.3572,0.0690182,-0.235083104,0,0,0,,0,113,113,279,1,prisa,,,,
,,,,,,613a996383fe819b7cb48941,676192165fb32c2e1fb7aee6,67d1b537a7c7bf7383f01957,2025-03-12_09h27.52.541,Tarea de decisión léxica,2024.2.5,Win32,60.24096386,,,,,,,,,,,,,,,,,,,,,,,276.358,277.3898,l,1,0.3531,1,277.3903,277.8893,,,,,,318,FEM,NOWORD,AGR,150,plaad,,la,,0.3531,,277.8893,277.8898,0.0690182,-0.235083104,0,0,0,,0,114,114,317,1,playa,,,,
,,,,,,613a996383fe819b7cb48941,676192165fb32c2e1fb7aee6,67d1b537a7c7bf7383f01957,2025-03-12_09h27.52.541,Tarea de decisión léxica,2024.2.5,Win32,60.24096386,,,,,,,,,,,,,,,,,,,,,,,277.8911,278.9388,a,1,0.3703,1,278.939,279.4385,,,,,,81,FEM,WORD,AGR,150,dama,,la,,0.3703,,279.4385,279.4385,0.0690182,-0.235083104,0,0,0,,0,115,115,80,1,vasa,,,,
,,,,,,613a996383fe819b7cb48941,676192165fb32c2e1fb7aee6,67d1b537a7c7bf7383f01957,2025-03-12_09h27.52.541,Tarea de decisión léxica,2024.2.5,Win32,60.24096386,,,,,,,,,,,,,,,,,,,,,,,279.4394,280.5545,l,0,0.4336,0,280.5551,281.0542,,,,,,323,FEM,WORD,DIS,150,cinta,,el,,0.4336,,281.0542,281.0543,0.0690182,-0.235083104,0,0,0,,0,116,116,322,1,certa,,,,
,,,,,,613a996383fe819b7cb48941,676192165fb32c2e1fb7aee6,67d1b537a7c7bf7383f01957,2025-03-12_09h27.52.541,Tarea de decisión léxica,2024.2.5,Win32,60.24096386,,,,,,,,,,,,,,,,,,,,,,,281.0551,282.27,l,1,0.5374,1,282.2707,282.7699,,,,,,360,MAS,NOWORD,DIS,150,cacer,,la,,0.5374,,282.7708,282.7712,0.0690182,-0.235083104,0,0,0,,0,117,117,359,1,calor,,,,
,,,,,,613a996383fe819b7cb48941,676192165fb32c2e1fb7aee6,67d1b537a7c7bf7383f01957,2025-03-12_09h27.52.541,Tarea de decisión léxica,2024.2.5,Win32,60.24096386,,,,,,,,,,,,,,,,,,,,,,,282.772,283.8691,l,1,0.4265,1,283.8692,284.3689,,,,,,218,MAS,NOWORD,AGR,150,budo,,el,,0.4265,,284.369,284.3691,0.0690182,-0.235083104,0,0,0,,0,118,118,217,1,luto,,,,
,,,,,,613a996383fe819b7cb48941,676192165fb32c2e1fb7aee6,67d1b537a7c7bf7383f01957,2025-03-12_09h27.52.541,Tarea de decisión léxica,2024.2.5,Win32,60.24096386,,,,,,,,,,,,,,,,,,,,,,,284.3699,285.4012,a,1,0.3612,1,285.4013,285.9012,,,,,,129,MAS,WORD,AGR,150,oído,,el,,0.3612,,285.9014,285.9015,0.0690182,-0.235083104,0,0,0,,0,119,119,128,1,pima,,,,
,,,,,,613a996383fe819b7cb48941,676192165fb32c2e1fb7aee6,67d1b537a7c7bf7383f01957,2025-03-12_09h27.52.541,Tarea de decisión léxica,2024.2.5,Win32,60.24096386,,,,,,,,,,,,,,,,,,,,,,,285.9022,287.0503,l,1,0.477,1,287.0504,287.5502,,,,,,422,MAS,NOWORD,AGR,150,griso,,el,,0.477,,287.5502,287.5503,0.0690182,-0.235083104,0,0,0,,0,120,120,421,1,primo,,,,
,,,,,,613a996383fe819b7cb48941,676192165fb32c2e1fb7aee6,67d1b537a7c7bf7383f01957,2025-03-12_09h27.52.541,Tarea de decisión léxica,2024.2.5,Win32,60.24096386,,,,,,,,,,,,,,,,,,,,,,,287.5514,288.6496,l,1,0.4289,1,288.6497,289.1493,,,,,,208,MAS,NOWORD,DIS,150,kedo,,la,,0.4289,,289.1494,289.1494,0.0690182,-0.235083104,0,0,0,,0,121,121,207,1,kilo,,,,
,,,,,,613a996383fe819b7cb48941,676192165fb32c2e1fb7aee6,67d1b537a7c7bf7383f01957,2025-03-12_09h27.52.541,Tarea de decisión léxica,2024.2.5,Win32,60.24096386,,,,,,,,,,,,,,,,,,,,,,,289.1502,290.1985,l,1,0.3716,1,290.1986,290.6982,,,,,,150,MAS,NOWORD,AGR,150,pafo,,el,,0.3716,,290.6991,290.6996,0.0690182,-0.235083104,0,0,0,,0,122,122,149,1,cabo,,,,
,,,,,,613a996383fe819b7cb48941,676192165fb32c2e1fb7aee6,67d1b537a7c7bf7383f01957,2025-03-12_09h27.52.541,Tarea de decisión léxica,2024.2.5,Win32,60.24096386,,,,,,,,,,,,,,,,,,,,,,,290.7003,291.8809,a,1,0.5006,1,291.881,292.3805,,,,,,335,FEM,WORD,DIS,150,costa,,el,,0.5006,,292.3806,292.3806,0.0690182,-0.235083104,0,0,0,,0,123,123,334,1,pesta,,,,
,,,,,,613a996383fe819b7cb48941,676192165fb32c2e1fb7aee6,67d1b537a7c7bf7383f01957,2025-03-12_09h27.52.541,Tarea de decisión léxica,2024.2.5,Win32,60.24096386,,,,,,,,,,,,,,,,,,,,,,,292.3815,293.5797,l,1,0.5225,1,293.5798,294.0795,,,,,,102,MAS,NOWORD,AGR,150,gito,,el,,0.5225,,294.0796,294.0797,0.0690182,-0.235083104,0,0,0,,0,124,124,101,1,tono,,,,
,,,,,,613a996383fe819b7cb48941,676192165fb32c2e1fb7aee6,67d1b537a7c7bf7383f01957,2025-03-12_09h27.52.541,Tarea de decisión léxica,2024.2.5,Win32,60.24096386,,,,,,,,,,,,,,,,,,,,,,,294.0805,295.1619,a,1,0.4112,1,295.162,295.6618,,,,,,399,MAS,WORD,DIS,150,techo,,la,,0.4112,,295.6618,295.6619,0.0690182,-0.235083104,0,0,0,,0,125,125,398,1,serro,,,,
,,,,,,613a996383fe819b7cb48941,676192165fb32c2e1fb7aee6,67d1b537a7c7bf7383f01957,2025-03-12_09h27.52.541,Tarea de decisión léxica,2024.2.5,Win32,60.24096386,,,,,,,,,,,,,,,,,,,,,,,295.6627,297.0111,l,1,0.6672,1,297.0112,297.5106,,,,,,446,MAS,NOWORD,AGR,150,ascor,,el,,0.6672,,297.5107,297.5109,0.0690182,-0.235083104,0,0,0,,0,126,126,445,1,actor,,,,
,,,,,,613a996383fe819b7cb48941,676192165fb32c2e1fb7aee6,67d1b537a7c7bf7383f01957,2025-03-12_09h27.52.541,Tarea de decisión léxica,2024.2.5,Win32,60.24096386,,,,,,,,,,,,,,,,,,,,,,,297.5116,298.6101,a,1,0.4236,1,298.6101,299.1097,,,,,,53,FEM,WORD,AGR,150,boda,,la,,0.4236,,299.1107,299.1114,0.0690182,-0.235083104,0,0,0,,0,127,127,52,1,rora,,,,
,,,,,,613a996383fe819b7cb48941,676192165fb32c2e1fb7aee6,67d1b537a7c7bf7383f01957,2025-03-12_09h27.52.541,Tarea de decisión léxica,2024.2.5,Win32,60.24096386,,,,,,,,,,,,,,,,,,,,,,,299.1121,300.3256,a,0,0.5359,0,300.3262,300.8254,,,,,,180,MAS,NOWORD,DIS,150,sono,,la,,0.5359,,300.8255,300.8256,0.0690182,-0.235083104,0,0,0,,0,128,128,179,1,toro,,,,
,,,,,,613a996383fe819b7cb48941,676192165fb32c2e1fb7aee6,67d1b537a7c7bf7383f01957,2025-03-12_09h27.52.541,Tarea de decisión léxica,2024.2.5,Win32,60.24096386,,,,,,,,,,,,,,,,,,,,,,,300.8263,301.9579,a,1,0.4503,1,301.9585,302.4577,,,,,,453,FEM,WORD,AGR,150,mafia,,la,,0.4503,,302.4578,302.4579,0.0690182,-0.235083104,0,0,0,,0,129,129,452,1,pafia,,,,
,,,,,,613a996383fe819b7cb48941,676192165fb32c2e1fb7aee6,67d1b537a7c7bf7383f01957,2025-03-12_09h27.52.541,Tarea de decisión léxica,2024.2.5,Win32,60.24096386,,,,,,,,,,,,,,,,,,,,,,,302.4588,303.5569,a,1,0.42,1,303.5569,304.0567,,,,,,437,FEM,WORD,AGR,150,plaza,,la,,0.42,,304.0567,304.0567,0.0690182,-0.235083104,0,0,0,,0,130,130,436,1,glava,,,,
,,,,,,613a996383fe819b7cb48941,676192165fb32c2e1fb7aee6,67d1b537a7c7bf7383f01957,2025-03-12_09h27.52.541,Tarea de decisión léxica,2024.2.5,Win32,60.24096386,,,,,,,,,,,,,,,,,,,,,,,304.0576,305.2058,l,1,0.4704,1,305.206,305.7058,,,,,,90,MAS,NOWORD,AGR,150,guso,,el,,0.4704,,305.7068,305.7072,0.0690182,-0.235083104,0,0,0,,0,131,131,89,1,humo,,,,
,,,,,,613a996383fe819b7cb48941,676192165fb32c2e1fb7aee6,67d1b537a7c7bf7383f01957,2025-03-12_09h27.52.541,Tarea de decisión léxica,2024.2.5,Win32,60.24096386,,,,,,,,,,,,,,,,,,,,,,,305.7079,306.8715,l,0,0.488,0,306.8721,307.3713,,,,,,155,FEM,WORD,DIS,150,fuga,,el,,0.488,,307.3714,307.3714,0.0690182,-0.235083104,0,0,0,,0,132,132,154,1,luma,,,,
,,,,,,613a996383fe819b7cb48941,676192165fb32c2e1fb7aee6,67d1b537a7c7bf7383f01957,2025-03-12_09h27.52.541,Tarea de decisión léxica,2024.2.5,Win32,60.24096386,,,,,,,,,,,,,,,,,,,,,,,307.3722,308.4706,a,1,0.4206,1,308.4712,308.9704,,,,,,55,MAS,WORD,DIS,150,gato,,la,,0.4206,,308.9704,308.9705,0.0690182,-0.235083104,0,0,0,,0,133,133,54,1,jado,,,,
,,,,,,613a996383fe819b7cb48941,676192165fb32c2e1fb7aee6,67d1b537a7c7bf7383f01957,2025-03-12_09h27.52.541,Tarea de decisión léxica,2024.2.5,Win32,60.24096386,,,,,,,,,,,,,,,,,,,,,,,308.9713,310.0862,l,1,0.4359,1,310.0863,310.5858,,,,,,388,FEM,NOWORD,DIS,150,bresa,,el,,0.4359,,310.586,310.5861,0.0690182,-0.235083104,0,0,0,,0,134,134,387,1,crema,,,,
,,,,,,613a996383fe819b7cb48941,676192165fb32c2e1fb7aee6,67d1b537a7c7bf7383f01957,2025-03-12_09h27.52.541,Tarea de decisión léxica,2024.2.5,Win32,60.24096386,,,,,,,,,,,,,,,,,,,,,,,310.5869,311.7187,a,0,0.4535,0,311.7192,312.2184,,,,,,222,FEM,NOWORD,AGR,150,puca,,la,,0.4535,,312.2185,312.2186,0.0690182,-0.235083104,0,0,0,,0,135,135,221,1,mula,,,,
,,,,,,613a996383fe819b7cb48941,676192165fb32c2e1fb7aee6,67d1b537a7c7bf7383f01957,2025-03-12_09h27.52.541,Tarea de decisión léxica,2024.2.5,Win32,60.24096386,,,,,,,,,,,,,,,,,,,,,,,312.2193,313.3842,a,1,0.4849,1,313.3848,313.8839,,,,,,11,MAS,WORD,DIS,150,lado,,la,,0.4849,,313.8847,313.8852,0.0690182,-0.235083104,0,0,0,,0,136,136,10,1,bapo,,,,
,,,,,,613a996383fe819b7cb48941,676192165fb32c2e1fb7aee6,67d1b537a7c7bf7383f01957,2025-03-12_09h27.52.541,Tarea de decisión léxica,2024.2.5,Win32,60.24096386,,,,,,,,,,,,,,,,,,,,,,,313.886,314.9501,l,1,0.3836,1,314.9502,315.4496,,,,,,254,MAS,NOWORD,AGR,150,trido,,el,,0.3836,,315.4496,315.4497,0.0690182,-0.235083104,0,0,0,,0,137,137,253,1,chico,,,,
,,,,,,613a996383fe819b7cb48941,676192165fb32c2e1fb7aee6,67d1b537a7c7bf7383f01957,2025-03-12_09h27.52.541,Tarea de decisión léxica,2024.2.5,Win32,60.24096386,,,,,,,,,,,,,,,,,,,,,,,315.4505,316.6156,l,1,0.4841,1,316.6158,317.1153,,,,,,230,MAS,NOWORD,AGR,150,ador,,el,,0.4841,,317.1153,317.1155,0.0690182,-0.235083104,0,0,0,,0,138,138,229,1,amor,,,,
,,,,,,613a996383fe819b7cb48941,676192165fb32c2e1fb7aee6,67d1b537a7c7bf7383f01957,2025-03-12_09h27.52.541,Tarea de decisión léxica,2024.2.5,Win32,60.24096386,,,,,,,,,,,,,,,,,,,,,,,317.1164,318.148,a,1,0.353,1,318.1481,318.6476,,,,,,293,MAS,WORD,AGR,150,campo,,el,,0.353,,318.6477,318.6478,0.0690182,-0.235083104,0,0,0,,0,139,139,292,1,cacso,,,,
,,,,,,613a996383fe819b7cb48941,676192165fb32c2e1fb7aee6,67d1b537a7c7bf7383f01957,2025-03-12_09h27.52.541,Tarea de decisión léxica,2024.2.5,Win32,60.24096386,,,,,,,,,,,,,,,,,,,,,,,318.6486,319.9635,l,1,0.6416,1,319.9636,320.4632,,,,,,322,MAS,NOWORD,AGR,150,rarco,,el,,0.6416,,320.4633,320.4634,0.0690182,-0.235083104,0,0,0,,0,140,140,321,1,banco,,,,
,,,,,,613a996383fe819b7cb48941,676192165fb32c2e1fb7aee6,67d1b537a7c7bf7383f01957,2025-03-12_09h27.52.541,Tarea de decisión léxica,2024.2.5,Win32,60.24096386,,,,,,,,,,,,,,,,,,,,,,,320.4643,321.8123,l,1,0.6669,1,321.8124,322.3118,,,,,,326,FEM,NOWORD,AGR,150,mabia,,la,,0.6669,,322.3123,322.3129,0.0690182,-0.235083104,0,0,0,,0,141,141,325,1,magia,,,,
,,,,,,613a996383fe819b7cb48941,676192165fb32c2e1fb7aee6,67d1b537a7c7bf7383f01957,2025-03-12_09h27.52.541,Tarea de decisión léxica,2024.2.5,Win32,60.24096386,,,,,,,,,,,,,,,,,,,,,,,322.3133,323.3948,a,1,0.4017,1,323.3949,323.8943,,,,,,411,MAS,WORD,DIS,150,pollo,,la,,0.4017,,323.8944,323.8945,0.0690182,-0.235083104,0,0,0,,0,142,142,410,1,mobro,,,,
,,,,,,613a996383fe819b7cb48941,676192165fb32c2e1fb7aee6,67d1b537a7c7bf7383f01957,2025-03-12_09h27.52.541,Tarea de decisión léxica,2024.2.5,Win32,60.24096386,,,,,,,,,,,,,,,,,,,,,,,323.8953,324.9767,l,1,0.4107,1,324.9769,325.4768,,,,,,250,FEM,NOWORD,AGR,150,plane,,la,,0.4107,,325.477,325.477,0.0690182,-0.235083104,0,0,0,,0,143,143,249,1,clase,,,,
,,,,,,613a996383fe819b7cb48941,676192165fb32c2e1fb7aee6,67d1b537a7c7bf7383f01957,2025-03-12_09h27.52.541,Tarea de decisión léxica,2024.2.5,Win32,60.24096386,,,,,,,,,,,,,,,,,,,,,,,325.478,326.4933,l,1,0.3417,1,326.4933,326.9925,,,,,,8,MAS,NOWORD,DIS,150,nivo,,la,,0.3417,,326.9926,326.9927,0.0690182,-0.235083104,0,0,0,,0,144,144,7,1,hijo,,,,
,,,,,,613a996383fe819b7cb48941,676192165fb32c2e1fb7aee6,67d1b537a7c7bf7383f01957,2025-03-12_09h27.52.541,Tarea de decisión léxica,2024.2.5,Win32,60.24096386,,,,,,,,,,,,,,,,,,,,,,,326.9935,328.1417,l,1,0.4769,1,328.1417,328.6415,,,,,,472,FEM,NOWORD,DIS,150,prana,,el,,0.4769,,328.6416,328.6416,0.0690182,-0.235083104,0,0,0,,0,145,145,471,1,grasa,,,,
,,,,,,613a996383fe819b7cb48941,676192165fb32c2e1fb7aee6,67d1b537a7c7bf7383f01957,2025-03-12_09h27.52.541,Tarea de decisión léxica,2024.2.5,Win32,60.24096386,,,,,,,,,,,,,,,,,,,,,,,328.6425,329.6409,l,1,0.3261,1,329.6411,330.1406,,,,,,294,MAS,NOWORD,AGR,150,cacso,,el,,0.3261,,330.1414,330.1419,0.0690182,-0.235083104,0,0,0,,0,146,146,293,1,campo,,,,
,,,,,,613a996383fe819b7cb48941,676192165fb32c2e1fb7aee6,67d1b537a7c7bf7383f01957,2025-03-12_09h27.52.541,Tarea de decisión léxica,2024.2.5,Win32,60.24096386,,,,,,,,,,,,,,,,,,,,,,,330.1426,331.1066,a,1,0.2913,1,331.1067,331.6063,,,,,,447,MAS,WORD,DIS,150,bolso,,la,,0.2913,,331.6064,331.6065,0.0690182,-0.235083104,0,0,0,,0,147,147,446,1,buaso,,,,
,,,,,,613a996383fe819b7cb48941,676192165fb32c2e1fb7aee6,67d1b537a7c7bf7383f01957,2025-03-12_09h27.52.541,Tarea de decisión léxica,2024.2.5,Win32,60.24096386,,,,,,,,,,,,,,,,,,,,,,,331.6073,332.6887,l,1,0.411,1,332.6889,333.1888,,,,,,334,FEM,NOWORD,AGR,150,dalea,,la,,0.411,,333.1888,333.1889,0.0690182,-0.235083104,0,0,0,,0,148,148,333,1,tarea,,,,
,,,,,,613a996383fe819b7cb48941,676192165fb32c2e1fb7aee6,67d1b537a7c7bf7383f01957,2025-03-12_09h27.52.541,Tarea de decisión léxica,2024.2.5,Win32,60.24096386,,,,,,,,,,,,,,,,,,,,,,,333.1897,334.2714,l,1,0.4074,1,334.2715,334.771,,,,,,284,MAS,NOWORD,DIS,150,tuevo,,la,,0.4074,,334.7711,334.7712,0.0690182,-0.235083104,0,0,0,,0,149,149,283,1,sueño,,,,
,,,,,,613a996383fe819b7cb48941,676192165fb32c2e1fb7aee6,67d1b537a7c7bf7383f01957,2025-03-12_09h27.52.541,Tarea de decisión léxica,2024.2.5,Win32,60.24096386,,,,,,,,,,,,,,,,,,,,,,,334.772,335.7871,a,1,0.3422,1,335.7871,336.2869,,,,,,367,MAS,WORD,DIS,150,reloj,,la,,0.3422,,336.2869,336.287,0.0690182,-0.235083104,0,0,0,,0,150,150,366,1,rerob,,,,
,,,,,,613a996383fe819b7cb48941,676192165fb32c2e1fb7aee6,67d1b537a7c7bf7383f01957,2025-03-12_09h27.52.541,Tarea de decisión léxica,2024.2.5,Win32,60.24096386,,,,,,,,,,,,,,,,,,,,,,,336.2879,337.3194,l,0,0.3613,0,337.3199,337.8191,,,,,,441,FEM,WORD,AGR,150,selva,,la,,0.3613,,337.8199,337.8204,0.0690182,-0.235083104,0,0,0,,0,151,151,440,1,telza,,,,
,,,,,,613a996383fe819b7cb48941,676192165fb32c2e1fb7aee6,67d1b537a7c7bf7383f01957,2025-03-12_09h27.52.541,Tarea de decisión léxica,2024.2.5,Win32,60.24096386,,,,,,,,,,,,,,,,,,,,,,,337.8211,338.7683,l,1,0.2691,1,338.7689,339.2683,,,,,,362,FEM,NOWORD,AGR,150,solle,,la,,0.2691,,339.2683,339.2684,0.0690182,-0.235083104,0,0,0,,0,152,152,361,1,torre,,,,
,,,,,,613a996383fe819b7cb48941,676192165fb32c2e1fb7aee6,67d1b537a7c7bf7383f01957,2025-03-12_09h27.52.541,Tarea de decisión léxica,2024.2.5,Win32,60.24096386,,,,,,,,,,,,,,,,,,,,,,,339.2693,340.351,a,1,0.4003,1,340.3511,340.8507,,,,,,395,FEM,WORD,DIS,150,caída,,el,,0.4003,,340.8508,340.8509,0.0690182,-0.235083104,0,0,0,,0,153,153,394,1,paeda,,,,
,,,,,,613a996383fe819b7cb48941,676192165fb32c2e1fb7aee6,67d1b537a7c7bf7383f01957,2025-03-12_09h27.52.541,Tarea de decisión léxica,2024.2.5,Win32,60.24096386,,,,,,,,,,,,,,,,,,,,,,,340.8517,341.9665,l,1,0.4337,1,341.9666,342.4662,,,,,,158,MAS,NOWORD,AGR,150,hico,,el,,0.4337,,342.4662,342.4663,0.0690182,-0.235083104,0,0,0,,0,154,154,157,1,nido,,,,
,,,,,,613a996383fe819b7cb48941,676192165fb32c2e1fb7aee6,67d1b537a7c7bf7383f01957,2025-03-12_09h27.52.541,Tarea de decisión léxica,2024.2.5,Win32,60.24096386,,,,,,,,,,,,,,,,,,,,,,,342.4671,343.6655,a,1,0.5204,1,343.6656,344.1653,,,,,,111,MAS,WORD,DIS,150,muro,,la,,0.5204,,344.1662,344.1669,0.0690182,-0.235083104,0,0,0,,0,155,155,110,1,siro,,,,
,,,,,,613a996383fe819b7cb48941,676192165fb32c2e1fb7aee6,67d1b537a7c7bf7383f01957,2025-03-12_09h27.52.541,Tarea de decisión léxica,2024.2.5,Win32,60.24096386,,,,,,,,,,,,,,,,,,,,,,,344.1676,345.1979,a,1,0.355,1,345.198,345.6977,,,,,,267,MAS,WORD,DIS,150,libro,,la,,0.355,,345.6978,345.6979,0.0690182,-0.235083104,0,0,0,,0,156,156,266,1,figro,,,,
,,,,,,613a996383fe819b7cb48941,676192165fb32c2e1fb7aee6,67d1b537a7c7bf7383f01957,2025-03-12_09h27.52.541,Tarea de decisión léxica,2024.2.5,Win32,60.24096386,,,,,,,,,,,,,,,,,,,,,,,345.6988,346.847,l,1,0.4671,1,346.8471,347.3466,,,,,,96,FEM,NOWORD,DIS,151,neda,,el,,0.4671,,347.3467,347.3468,0.0690182,-0.235083104,0,0,0,,0,157,157,95,1,moda,,,,
,,,,,,613a996383fe819b7cb48941,676192165fb32c2e1fb7aee6,67d1b537a7c7bf7383f01957,2025-03-12_09h27.52.541,Tarea de decisión léxica,2024.2.5,Win32,60.24096386,,,,,,,,,,,,,,,,,,,,,,,347.3476,348.3793,a,1,0.351,1,348.3794,348.879,,,,,,59,FEM,WORD,DIS,150,sala,,el,,0.351,,348.8791,348.8791,0.0690182,-0.235083104,0,0,0,,0,158,158,58,1,tafa,,,,
,,,,,,613a996383fe819b7cb48941,676192165fb32c2e1fb7aee6,67d1b537a7c7bf7383f01957,2025-03-12_09h27.52.541,Tarea de decisión léxica,2024.2.5,Win32,60.24096386,,,,,,,,,,,,,,,,,,,,,,,348.8799,349.8448,l,1,0.2948,1,349.8448,350.3448,,,,,,438,FEM,NOWORD,AGR,150,glava,,la,,0.2948,,350.3449,350.345,0.0690182,-0.235083104,0,0,0,,0,159,159,437,1,plaza,,,,
,,,,,,613a996383fe819b7cb48941,676192165fb32c2e1fb7aee6,67d1b537a7c7bf7383f01957,2025-03-12_09h27.52.541,Tarea de decisión léxica,2024.2.5,Win32,60.24096386,,,,,,,,,,,,,,,,,,,,,,,350.3458,351.4441,l,1,0.4174,1,351.4442,351.9437,,,,,,54,FEM,NOWORD,AGR,150,rora,,la,,0.4174,,351.9447,360.122,0.0690182,-0.235083104,0,0,0,space,0,160,160,53,1,boda,8.162,,,
,,,,,,613a996383fe819b7cb48941,676192165fb32c2e1fb7aee6,67d1b537a7c7bf7383f01957,2025-03-12_09h27.52.541,Tarea de decisión léxica,2024.2.5,Win32,60.24096386,,,,,,,,,,,,,,,,,,,,,,,360.1229,361.3547,l,1,0.5538,1,361.3547,361.8545,,,,,,458,MAS,NOWORD,AGR,150,glaco,,el,,0.5538,,361.8545,361.8546,0.0690182,-0.235083104,0,0,0,,0,161,161,457,1,plato,,,,
,,,,,,613a996383fe819b7cb48941,676192165fb32c2e1fb7aee6,67d1b537a7c7bf7383f01957,2025-03-12_09h27.52.541,Tarea de decisión léxica,2024.2.5,Win32,60.24096386,,,,,,,,,,,,,,,,,,,,,,,361.8554,363.1703,l,1,0.6335,1,363.1703,363.6699,,,,,,174,FEM,NOWORD,AGR,150,boma,,la,,0.6335,,363.6699,363.67,0.0690182,-0.235083104,0,0,0,,0,162,162,173,1,rosa,,,,
,,,,,,613a996383fe819b7cb48941,676192165fb32c2e1fb7aee6,67d1b537a7c7bf7383f01957,2025-03-12_09h27.52.541,Tarea de decisión léxica,2024.2.5,Win32,60.24096386,,,,,,,,,,,,,,,,,,,,,,,363.6709,364.6359,l,1,0.2888,1,364.636,365.1357,,,,,,12,MAS,NOWORD,DIS,150,bapo,,la,,0.2888,,365.1357,365.1358,0.0690182,-0.235083104,0,0,0,,0,163,163,11,1,lado,,,,
,,,,,,613a996383fe819b7cb48941,676192165fb32c2e1fb7aee6,67d1b537a7c7bf7383f01957,2025-03-12_09h27.52.541,Tarea de decisión léxica,2024.2.5,Win32,60.24096386,,,,,,,,,,,,,,,,,,,,,,,365.1366,366.3182,a,1,0.5011,1,366.3183,366.8179,,,,,,33,FEM,WORD,AGR,150,boca,,la,,0.5011,,366.818,366.8182,0.0690182,-0.235083104,0,0,0,,0,164,164,32,1,loda,,,,
,,,,,,613a996383fe819b7cb48941,676192165fb32c2e1fb7aee6,67d1b537a7c7bf7383f01957,2025-03-12_09h27.52.541,Tarea de decisión léxica,2024.2.5,Win32,60.24096386,,,,,,,,,,,,,,,,,,,,,,,366.819,368.1002,a,0,0.6,0,368.1007,368.6003,,,,,,38,MAS,NOWORD,AGR,150,gaco,,el,,0.6,,368.6012,368.6019,0.0690182,-0.235083104,0,0,0,,0,165,165,37,1,rato,,,,
,,,,,,613a996383fe819b7cb48941,676192165fb32c2e1fb7aee6,67d1b537a7c7bf7383f01957,2025-03-12_09h27.52.541,Tarea de decisión léxica,2024.2.5,Win32,60.24096386,,,,,,,,,,,,,,,,,,,,,,,368.6026,369.4829,l,0,0.2027,0,369.483,369.9826,,,,,,57,MAS,WORD,AGR,150,dedo,,el,,0.2027,,369.9826,369.9827,0.0690182,-0.235083104,0,0,0,,0,166,166,56,1,heco,,,,
,,,,,,613a996383fe819b7cb48941,676192165fb32c2e1fb7aee6,67d1b537a7c7bf7383f01957,2025-03-12_09h27.52.541,Tarea de decisión léxica,2024.2.5,Win32,60.24096386,,,,,,,,,,,,,,,,,,,,,,,369.9836,371.132,l,1,0.4679,1,371.1326,371.6318,,,,,,74,MAS,NOWORD,AGR,150,omio,,el,,0.4679,,371.6318,371.6319,0.0690182,-0.235083104,0,0,0,,0,167,167,73,1,odio,,,,
,,,,,,613a996383fe819b7cb48941,676192165fb32c2e1fb7aee6,67d1b537a7c7bf7383f01957,2025-03-12_09h27.52.541,Tarea de decisión léxica,2024.2.5,Win32,60.24096386,,,,,,,,,,,,,,,,,,,,,,,371.6327,372.714,a,1,0.4008,1,372.7141,373.2138,,,,,,107,MAS,WORD,DIS,150,saco,,la,,0.4008,,373.214,373.214,0.0690182,-0.235083104,0,0,0,,0,168,168,106,1,raot,,,,
,,,,,,613a996383fe819b7cb48941,676192165fb32c2e1fb7aee6,67d1b537a7c7bf7383f01957,2025-03-12_09h27.52.541,Tarea de decisión léxica,2024.2.5,Win32,60.24096386,,,,,,,,,,,,,,,,,,,,,,,373.2152,374.3298,l,1,0.4465,1,374.33,374.8296,,,,,,120,MAS,NOWORD,DIS,150,hooy,,la,,0.4465,,374.8297,374.8297,0.0690182,-0.235083104,0,0,0,,0,169,169,119,1,pozo,,,,
,,,,,,613a996383fe819b7cb48941,676192165fb32c2e1fb7aee6,67d1b537a7c7bf7383f01957,2025-03-12_09h27.52.541,Tarea de decisión léxica,2024.2.5,Win32,60.24096386,,,,,,,,,,,,,,,,,,,,,,,374.8307,375.879,l,1,0.3692,1,375.879,376.3787,,,,,,338,MAS,NOWORD,AGR,150,nuejo,,el,,0.3692,,376.3795,376.3804,0.0690182,-0.235083104,0,0,0,,0,170,170,337,1,huevo,,,,
,,,,,,613a996383fe819b7cb48941,676192165fb32c2e1fb7aee6,67d1b537a7c7bf7383f01957,2025-03-12_09h27.52.541,Tarea de decisión léxica,2024.2.5,Win32,60.24096386,,,,,,,,,,,,,,,,,,,,,,,376.3818,377.5447,l,1,0.4942,1,377.5448,378.0442,,,,,,196,FEM,NOWORD,DIS,150,sira,,el,,0.4942,,378.0444,378.0445,0.0690182,-0.235083104,0,0,0,,0,171,171,195,1,tela,,,,
,,,,,,613a996383fe819b7cb48941,676192165fb32c2e1fb7aee6,67d1b537a7c7bf7383f01957,2025-03-12_09h27.52.541,Tarea de decisión léxica,2024.2.5,Win32,60.24096386,,,,,,,,,,,,,,,,,,,,,,,378.0453,379.127,l,1,0.4059,1,379.127,379.6267,,,,,,266,FEM,NOWORD,AGR,150,pitat,,la,,0.4059,,379.6268,379.6269,0.0690182,-0.235083104,0,0,0,,0,172,172,265,1,mitad,,,,
,,,,,,613a996383fe819b7cb48941,676192165fb32c2e1fb7aee6,67d1b537a7c7bf7383f01957,2025-03-12_09h27.52.541,Tarea de decisión léxica,2024.2.5,Win32,60.24096386,,,,,,,,,,,,,,,,,,,,,,,379.6276,380.7429,l,1,0.4335,1,380.7429,381.2425,,,,,,304,MAS,NOWORD,DIS,150,lanco,,la,,0.4335,,381.2425,381.2426,0.0690182,-0.235083104,0,0,0,,0,173,173,303,1,barco,,,,
,,,,,,613a996383fe819b7cb48941,676192165fb32c2e1fb7aee6,67d1b537a7c7bf7383f01957,2025-03-12_09h27.52.541,Tarea de decisión léxica,2024.2.5,Win32,60.24096386,,,,,,,,,,,,,,,,,,,,,,,381.2434,382.2918,l,1,0.3722,1,382.2918,382.7914,,,,,,176,FEM,NOWORD,DIS,150,hosa,,el,,0.3722,,382.7914,382.7914,0.0690182,-0.235083104,0,0,0,,0,174,174,175,1,goma,,,,
,,,,,,613a996383fe819b7cb48941,676192165fb32c2e1fb7aee6,67d1b537a7c7bf7383f01957,2025-03-12_09h27.52.541,Tarea de decisión léxica,2024.2.5,Win32,60.24096386,,,,,,,,,,,,,,,,,,,,,,,382.7924,383.8574,l,1,0.3875,1,383.8575,384.357,,,,,,286,MAS,NOWORD,AGR,150,echor,,el,,0.3875,,384.3579,384.359,0.0690182,-0.235083104,0,0,0,,0,175,175,285,1,error,,,,
,,,,,,613a996383fe819b7cb48941,676192165fb32c2e1fb7aee6,67d1b537a7c7bf7383f01957,2025-03-12_09h27.52.541,Tarea de decisión léxica,2024.2.5,Win32,60.24096386,,,,,,,,,,,,,,,,,,,,,,,384.3604,385.523,a,1,0.4892,1,385.5231,386.0228,,,,,,73,MAS,WORD,AGR,150,odio,,el,,0.4892,,386.0228,386.0229,0.0690182,-0.235083104,0,0,0,,0,176,176,72,1,omio,,,,
,,,,,,613a996383fe819b7cb48941,676192165fb32c2e1fb7aee6,67d1b537a7c7bf7383f01957,2025-03-12_09h27.52.541,Tarea de decisión léxica,2024.2.5,Win32,60.24096386,,,,,,,,,,,,,,,,,,,,,,,386.0237,387.122,l,1,0.42,1,387.1221,387.6216,,,,,,194,FEM,NOWORD,AGR,150,foda,,la,,0.42,,387.6217,387.6219,0.0690182,-0.235083104,0,0,0,,0,177,177,193,1,loca,,,,
,,,,,,613a996383fe819b7cb48941,676192165fb32c2e1fb7aee6,67d1b537a7c7bf7383f01957,2025-03-12_09h27.52.541,Tarea de decisión léxica,2024.2.5,Win32,60.24096386,,,,,,,,,,,,,,,,,,,,,,,387.6226,388.7211,l,1,0.4275,1,388.7212,389.2208,,,,,,170,MAS,NOWORD,AGR,150,mibo,,el,,0.4275,,389.2209,389.2209,0.0690182,-0.235083104,0,0,0,,0,178,178,169,1,cubo,,,,
,,,,,,613a996383fe819b7cb48941,676192165fb32c2e1fb7aee6,67d1b537a7c7bf7383f01957,2025-03-12_09h27.52.541,Tarea de decisión léxica,2024.2.5,Win32,60.24096386,,,,,,,,,,,,,,,,,,,,,,,389.2218,390.3866,a,1,0.4841,1,390.3867,390.8864,,,,,,147,FEM,WORD,DIS,150,hoja,,el,,0.4841,,390.8874,390.8878,0.0690182,-0.235083104,0,0,0,,0,179,179,146,1,pama,,,,
,,,,,,613a996383fe819b7cb48941,676192165fb32c2e1fb7aee6,67d1b537a7c7bf7383f01957,2025-03-12_09h27.52.541,Tarea de decisión léxica,2024.2.5,Win32,60.24096386,,,,,,,,,,,,,,,,,,,,,,,390.8885,391.8025,l,1,0.2343,1,391.8026,392.3023,,,,,,428,FEM,NOWORD,DIS,150,oseva,,el,,0.2343,,392.3023,392.3023,0.0690182,-0.235083104,0,0,0,,0,180,180,427,1,oreja,,,,
,,,,,,613a996383fe819b7cb48941,676192165fb32c2e1fb7aee6,67d1b537a7c7bf7383f01957,2025-03-12_09h27.52.541,Tarea de decisión léxica,2024.2.5,Win32,60.24096386,,,,,,,,,,,,,,,,,,,,,,,392.3033,393.4182,a,1,0.4379,1,393.4183,393.9179,,,,,,461,FEM,WORD,AGR,150,tabla,,la,,0.4379,,393.9179,393.918,0.0690182,-0.235083104,0,0,0,,0,181,181,460,1,pagra,,,,
,,,,,,613a996383fe819b7cb48941,676192165fb32c2e1fb7aee6,67d1b537a7c7bf7383f01957,2025-03-12_09h27.52.541,Tarea de decisión léxica,2024.2.5,Win32,60.24096386,,,,,,,,,,,,,,,,,,,,,,,393.9189,394.9671,l,1,0.3719,1,394.9672,395.467,,,,,,344,FEM,NOWORD,DIS,150,trada,,el,,0.3719,,395.467,395.4671,0.0690182,-0.235083104,0,0,0,,0,182,182,343,1,plata,,,,
,,,,,,613a996383fe819b7cb48941,676192165fb32c2e1fb7aee6,67d1b537a7c7bf7383f01957,2025-03-12_09h27.52.541,Tarea de decisión léxica,2024.2.5,Win32,60.24096386,,,,,,,,,,,,,,,,,,,,,,,395.4679,396.5997,a,1,0.4514,1,396.5998,397.0994,,,,,,259,MAS,WORD,DIS,150,juego,,la,,0.4514,,397.0996,397.0996,0.0690182,-0.235083104,0,0,0,,0,183,183,258,1,jaumo,,,,
,,,,,,613a996383fe819b7cb48941,676192165fb32c2e1fb7aee6,67d1b537a7c7bf7383f01957,2025-03-12_09h27.52.541,Tarea de decisión léxica,2024.2.5,Win32,60.24096386,,,,,,,,,,,,,,,,,,,,,,,397.1006,398.1154,l,1,0.3336,1,398.1154,398.6151,,,,,,28,MAS,NOWORD,DIS,150,ravo,,la,,0.3336,,398.6161,398.6167,0.0690182,-0.235083104,0,0,0,,0,184,184,27,1,baño,,,,
,,,,,,613a996383fe819b7cb48941,676192165fb32c2e1fb7aee6,67d1b537a7c7bf7383f01957,2025-03-12_09h27.52.541,Tarea de decisión léxica,2024.2.5,Win32,60.24096386,,,,,,,,,,,,,,,,,,,,,,,398.6173,399.6812,a,0,0.3851,0,399.6818,400.1806,,,,,,354,FEM,NOWORD,AGR,150,cezca,,la,,0.3851,,400.1806,400.1808,0.0690182,-0.235083104,0,0,0,,0,185,185,353,1,celda,,,,
,,,,,,613a996383fe819b7cb48941,676192165fb32c2e1fb7aee6,67d1b537a7c7bf7383f01957,2025-03-12_09h27.52.541,Tarea de decisión léxica,2024.2.5,Win32,60.24096386,,,,,,,,,,,,,,,,,,,,,,,400.1815,401.2132,a,1,0.3617,1,401.2138,401.7132,,,,,,165,FEM,WORD,AGR,150,vela,,la,,0.3617,,401.7132,401.7133,0.0690182,-0.235083104,0,0,0,,0,186,186,164,1,dera,,,,
,,,,,,613a996383fe819b7cb48941,676192165fb32c2e1fb7aee6,67d1b537a7c7bf7383f01957,2025-03-12_09h27.52.541,Tarea de decisión léxica,2024.2.5,Win32,60.24096386,,,,,,,,,,,,,,,,,,,,,,,401.7141,402.9957,l,1,0.6003,1,402.9957,403.4953,,,,,,188,MAS,NOWORD,DIS,150,suto,,la,,0.6003,,403.4955,403.4956,0.0690182,-0.235083104,0,0,0,,0,187,187,187,1,mito,,,,
,,,,,,613a996383fe819b7cb48941,676192165fb32c2e1fb7aee6,67d1b537a7c7bf7383f01957,2025-03-12_09h27.52.541,Tarea de decisión léxica,2024.2.5,Win32,60.24096386,,,,,,,,,,,,,,,,,,,,,,,403.4964,404.9113,a,1,0.7336,1,404.9114,405.4109,,,,,,187,MAS,WORD,DIS,150,mito,,la,,0.7336,,405.4109,405.411,0.0690182,-0.235083104,0,0,0,,0,188,188,186,1,suto,,,,
,,,,,,613a996383fe819b7cb48941,676192165fb32c2e1fb7aee6,67d1b537a7c7bf7383f01957,2025-03-12_09h27.52.541,Tarea de decisión léxica,2024.2.5,Win32,60.24096386,,,,,,,,,,,,,,,,,,,,,,,405.4118,406.3601,l,0,0.2769,0,406.3609,406.8599,,,,,,397,FEM,WORD,AGR,150,tribu,,la,,0.2769,,406.8609,406.8616,0.0690182,-0.235083104,0,0,0,,0,189,189,396,1,trigi,,,,
,,,,,,613a996383fe819b7cb48941,676192165fb32c2e1fb7aee6,67d1b537a7c7bf7383f01957,2025-03-12_09h27.52.541,Tarea de decisión léxica,2024.2.5,Win32,60.24096386,,,,,,,,,,,,,,,,,,,,,,,406.8624,407.926,a,1,0.3876,1,407.9265,408.4257,,,,,,391,MAS,WORD,DIS,150,dueño,,la,,0.3876,,408.4257,408.4258,0.0690182,-0.235083104,0,0,0,,0,190,190,390,1,dievo,,,,
,,,,,,613a996383fe819b7cb48941,676192165fb32c2e1fb7aee6,67d1b537a7c7bf7383f01957,2025-03-12_09h27.52.541,Tarea de decisión léxica,2024.2.5,Win32,60.24096386,,,,,,,,,,,,,,,,,,,,,,,408.4265,409.4914,a,1,0.3938,1,409.4914,409.9912,,,,,,97,MAS,WORD,AGR,150,mono,,el,,0.3938,,409.9913,409.9914,0.0690182,-0.235083104,0,0,0,,0,191,191,96,1,fopo,,,,
,,,,,,613a996383fe819b7cb48941,676192165fb32c2e1fb7aee6,67d1b537a7c7bf7383f01957,2025-03-12_09h27.52.541,Tarea de decisión léxica,2024.2.5,Win32,60.24096386,,,,,,,,,,,,,,,,,,,,,,,409.9921,410.9741,l,1,0.3035,1,410.9741,411.4738,,,,,,144,MAS,NOWORD,DIS,150,pezo,,la,,0.3035,,411.4738,411.474,0.0690182,-0.235083104,0,0,0,,0,192,192,143,1,pavo,,,,
,,,,,,613a996383fe819b7cb48941,676192165fb32c2e1fb7aee6,67d1b537a7c7bf7383f01957,2025-03-12_09h27.52.541,Tarea de decisión léxica,2024.2.5,Win32,60.24096386,,,,,,,,,,,,,,,,,,,,,,,411.4748,412.7064,a,1,0.5545,1,412.7064,413.2061,,,,,,307,MAS,WORD,DIS,150,hotel,,la,,0.5545,,413.2062,413.2062,0.0690182,-0.235083104,0,0,0,,0,193,193,306,1,holol,,,,
,,,,,,613a996383fe819b7cb48941,676192165fb32c2e1fb7aee6,67d1b537a7c7bf7383f01957,2025-03-12_09h27.52.541,Tarea de decisión léxica,2024.2.5,Win32,60.24096386,,,,,,,,,,,,,,,,,,,,,,,413.2071,414.3053,a,1,0.417,1,414.3055,414.805,,,,,,339,MAS,WORD,DIS,150,brazo,,la,,0.417,,414.8058,414.8064,0.0690182,-0.235083104,0,0,0,,0,194,194,338,1,plajo,,,,
,,,,,,613a996383fe819b7cb48941,676192165fb32c2e1fb7aee6,67d1b537a7c7bf7383f01957,2025-03-12_09h27.52.541,Tarea de decisión léxica,2024.2.5,Win32,60.24096386,,,,,,,,,,,,,,,,,,,,,,,414.8072,415.8708,a,1,0.3941,1,415.8708,416.3707,,,,,,205,FEM,WORD,AGR,150,rana,,la,,0.3941,,416.3708,416.3709,0.0690182,-0.235083104,0,0,0,,0,195,195,204,1,bara,,,,
,,,,,,613a996383fe819b7cb48941,676192165fb32c2e1fb7aee6,67d1b537a7c7bf7383f01957,2025-03-12_09h27.52.541,Tarea de decisión léxica,2024.2.5,Win32,60.24096386,,,,,,,,,,,,,,,,,,,,,,,416.3717,417.4702,a,0,0.4179,0,417.4708,417.9698,,,,,,448,MAS,NOWORD,DIS,150,buaso,,la,,0.4179,,417.9699,417.97,0.0690182,-0.235083104,0,0,0,,0,196,196,447,1,bolso,,,,
,,,,,,613a996383fe819b7cb48941,676192165fb32c2e1fb7aee6,67d1b537a7c7bf7383f01957,2025-03-12_09h27.52.541,Tarea de decisión léxica,2024.2.5,Win32,60.24096386,,,,,,,,,,,,,,,,,,,,,,,417.9708,418.9192,a,0,0.2733,0,418.9193,419.4189,,,,,,226,MAS,NOWORD,AGR,150,boco,,el,,0.2733,,419.4189,419.4191,0.0690182,-0.235083104,0,0,0,,0,197,197,225,1,lodo,,,,
,,,,,,613a996383fe819b7cb48941,676192165fb32c2e1fb7aee6,67d1b537a7c7bf7383f01957,2025-03-12_09h27.52.541,Tarea de decisión léxica,2024.2.5,Win32,60.24096386,,,,,,,,,,,,,,,,,,,,,,,419.4199,420.4183,l,1,0.3206,1,420.419,420.9181,,,,,,430,FEM,NOWORD,AGR,150,tenta,,la,,0.3206,,420.9181,420.9182,0.0690182,-0.235083104,0,0,0,,0,198,198,429,1,tarta,,,,
,,,,,,613a996383fe819b7cb48941,676192165fb32c2e1fb7aee6,67d1b537a7c7bf7383f01957,2025-03-12_09h27.52.541,Tarea de decisión léxica,2024.2.5,Win32,60.24096386,,,,,,,,,,,,,,,,,,,,,,,420.919,421.9173,l,1,0.3196,1,421.9173,422.417,,,,,,146,MAS,NOWORD,AGR,150,nobo,,el,,0.3196,,422.4179,422.4184,0.0690182,-0.235083104,0,0,0,,0,199,199,145,1,león,,,,
,,,,,,613a996383fe819b7cb48941,676192165fb32c2e1fb7aee6,67d1b537a7c7bf7383f01957,2025-03-12_09h27.52.541,Tarea de decisión léxica,2024.2.5,Win32,60.24096386,,,,,,,,,,,,,,,,,,,,,,,422.4191,423.5329,a,1,0.4336,1,423.5329,424.0327,,,,,,31,FEM,WORD,DIS,150,ropa,,el,,0.4336,,424.0327,424.0328,0.0690182,-0.235083104,0,0,0,,0,200,200,30,1,bova,,,,
,,,,,,613a996383fe819b7cb48941,676192165fb32c2e1fb7aee6,67d1b537a7c7bf7383f01957,2025-03-12_09h27.52.541,Tarea de decisión léxica,2024.2.5,Win32,60.24096386,,,,,,,,,,,,,,,,,,,,,,,424.0337,425.0318,l,1,0.3278,1,425.0318,425.5317,,,,,,288,FEM,NOWORD,DIS,150,fosta,,el,,0.3278,,425.5317,425.5318,0.0690182,-0.235083104,0,0,0,,0,201,201,287,1,lista,,,,
,,,,,,613a996383fe819b7cb48941,676192165fb32c2e1fb7aee6,67d1b537a7c7bf7383f01957,2025-03-12_09h27.52.541,Tarea de decisión léxica,2024.2.5,Win32,60.24096386,,,,,,,,,,,,,,,,,,,,,,,425.5325,426.6144,a,1,0.4102,1,426.6145,427.114,,,,,,125,MAS,WORD,AGR,150,lujo,,el,,0.4102,,427.1141,427.1142,0.0690182,-0.235083104,0,0,0,,0,202,202,124,1,vudo,,,,
,,,,,,613a996383fe819b7cb48941,676192165fb32c2e1fb7aee6,67d1b537a7c7bf7383f01957,2025-03-12_09h27.52.541,Tarea de decisión léxica,2024.2.5,Win32,60.24096386,,,,,,,,,,,,,,,,,,,,,,,427.1151,428.1135,l,1,0.3256,1,428.1136,428.6133,,,,,,110,MAS,NOWORD,AGR,150,suno,,el,,0.3256,,428.6142,428.6147,0.0690182,-0.235083104,0,0,0,,0,203,203,109,1,rayo,,,,
,,,,,,613a996383fe819b7cb48941,676192165fb32c2e1fb7aee6,67d1b537a7c7bf7383f01957,2025-03-12_09h27.52.541,Tarea de decisión léxica,2024.2.5,Win32,60.24096386,,,,,,,,,,,,,,,,,,,,,,,428.6153,429.6293,a,1,0.3338,1,429.6293,430.1289,,,,,,43,FEM,WORD,DIS,150,pena,,el,,0.3338,,430.1289,430.1291,0.0690182,-0.235083104,0,0,0,,0,204,204,42,1,meda,,,,
,,,,,,613a996383fe819b7cb48941,676192165fb32c2e1fb7aee6,67d1b537a7c7bf7383f01957,2025-03-12_09h27.52.541,Tarea de decisión léxica,2024.2.5,Win32,60.24096386,,,,,,,,,,,,,,,,,,,,,,,430.13,431.2783,l,1,0.4667,1,431.2783,431.7778,,,,,,434,MAS,NOWORD,AGR,150,durco,,el,,0.4667,,431.7779,431.778,0.0690182,-0.235083104,0,0,0,,0,205,205,433,1,disco,,,,
,,,,,,613a996383fe819b7cb48941,676192165fb32c2e1fb7aee6,67d1b537a7c7bf7383f01957,2025-03-12_09h27.52.541,Tarea de decisión léxica,2024.2.5,Win32,60.24096386,,,,,,,,,,,,,,,,,,,,,,,431.779,432.9605,l,1,0.5031,1,432.9607,433.4603,,,,,,386,FEM,NOWORD,AGR,150,febra,,la,,0.5031,,433.4603,433.4604,0.0690182,-0.235083104,0,0,0,,0,206,206,385,1,letra,,,,
,,,,,,613a996383fe819b7cb48941,676192165fb32c2e1fb7aee6,67d1b537a7c7bf7383f01957,2025-03-12_09h27.52.541,Tarea de decisión léxica,2024.2.5,Win32,60.24096386,,,,,,,,,,,,,,,,,,,,,,,433.4612,434.5596,a,1,0.4168,1,434.5597,435.0591,,,,,,51,FEM,WORD,DIS,150,caja,,el,,0.4168,,435.0592,435.0593,0.0690182,-0.235083104,0,0,0,,0,207,207,50,1,mava,,,,
,,,,,,613a996383fe819b7cb48941,676192165fb32c2e1fb7aee6,67d1b537a7c7bf7383f01957,2025-03-12_09h27.52.541,Tarea de decisión léxica,2024.2.5,Win32,60.24096386,,,,,,,,,,,,,,,,,,,,,,,435.06,436.0584,l,0,0.3232,0,436.0589,436.5583,,,,,,37,MAS,WORD,AGR,150,rato,,el,,0.3232,,436.5592,436.5597,0.0690182,-0.235083104,0,0,0,,0,208,208,36,1,gaco,,,,
,,,,,,613a996383fe819b7cb48941,676192165fb32c2e1fb7aee6,67d1b537a7c7bf7383f01957,2025-03-12_09h27.52.541,Tarea de decisión léxica,2024.2.5,Win32,60.24096386,,,,,,,,,,,,,,,,,,,,,,,436.5604,437.4911,l,1,0.2595,1,437.4916,437.9907,,,,,,166,FEM,NOWORD,AGR,150,dera,,la,,0.2595,,437.9908,437.9908,0.0690182,-0.235083104,0,0,0,,0,209,209,165,1,vela,,,,
,,,,,,613a996383fe819b7cb48941,676192165fb32c2e1fb7aee6,67d1b537a7c7bf7383f01957,2025-03-12_09h27.52.541,Tarea de decisión léxica,2024.2.5,Win32,60.24096386,,,,,,,,,,,,,,,,,,,,,,,437.9917,439.0733,a,1,0.4001,1,439.0735,439.5732,,,,,,321,MAS,WORD,AGR,150,banco,,el,,0.4001,,439.5733,439.5733,0.0690182,-0.235083104,0,0,0,,0,210,210,320,1,rarco,,,,
,,,,,,613a996383fe819b7cb48941,676192165fb32c2e1fb7aee6,67d1b537a7c7bf7383f01957,2025-03-12_09h27.52.541,Tarea de decisión léxica,2024.2.5,Win32,60.24096386,,,,,,,,,,,,,,,,,,,,,,,439.5741,440.4392,l,1,0.1836,1,440.4392,440.9389,,,,,,314,MAS,NOWORD,AGR,150,govio,,el,,0.1836,,440.939,440.9391,0.0690182,-0.235083104,0,0,0,,0,211,211,313,1,novio,,,,
,,,,,,613a996383fe819b7cb48941,676192165fb32c2e1fb7aee6,67d1b537a7c7bf7383f01957,2025-03-12_09h27.52.541,Tarea de decisión léxica,2024.2.5,Win32,60.24096386,,,,,,,,,,,,,,,,,,,,,,,440.9399,441.8884,l,1,0.2672,1,441.8884,442.3881,,,,,,376,FEM,NOWORD,DIS,150,sasna,,el,,0.2672,,442.3881,442.3882,0.0690182,-0.235083104,0,0,0,,0,212,212,375,1,salsa,,,,
,,,,,,613a996383fe819b7cb48941,676192165fb32c2e1fb7aee6,67d1b537a7c7bf7383f01957,2025-03-12_09h27.52.541,Tarea de decisión léxica,2024.2.5,Win32,60.24096386,,,,,,,,,,,,,,,,,,,,,,,442.389,443.3374,l,1,0.2745,1,443.3374,443.837,,,,,,442,FEM,NOWORD,AGR,150,telza,,la,,0.2745,,443.838,443.8385,0.0690182,-0.235083104,0,0,0,,0,213,213,441,1,selva,,,,
,,,,,,613a996383fe819b7cb48941,676192165fb32c2e1fb7aee6,67d1b537a7c7bf7383f01957,2025-03-12_09h27.52.541,Tarea de decisión léxica,2024.2.5,Win32,60.24096386,,,,,,,,,,,,,,,,,,,,,,,443.8391,444.8199,a,1,0.3018,1,444.82,445.3196,,,,,,95,FEM,WORD,DIS,151,moda,,el,,0.3018,,445.3196,445.3197,0.0690182,-0.235083104,0,0,0,,0,214,214,94,1,neda,,,,
,,,,,,613a996383fe819b7cb48941,676192165fb32c2e1fb7aee6,67d1b537a7c7bf7383f01957,2025-03-12_09h27.52.541,Tarea de decisión léxica,2024.2.5,Win32,60.24096386,,,,,,,,,,,,,,,,,,,,,,,445.3206,446.3024,a,0,0.3077,0,446.3029,446.8018,,,,,,470,MAS,NOWORD,AGR,150,matia,,el,,0.3077,,446.8019,446.802,0.0690182,-0.235083104,0,0,0,,0,215,215,469,1,patio,,,,
,,,,,,613a996383fe819b7cb48941,676192165fb32c2e1fb7aee6,67d1b537a7c7bf7383f01957,2025-03-12_09h27.52.541,Tarea de decisión léxica,2024.2.5,Win32,60.24096386,,,,,,,,,,,,,,,,,,,,,,,446.8028,447.9013,l,1,0.4269,1,447.9019,448.401,,,,,,246,FEM,NOWORD,AGR,150,pafle,,la,,0.4269,,448.4011,448.4012,0.0690182,-0.235083104,0,0,0,,0,216,216,245,1,madre,,,,
,,,,,,613a996383fe819b7cb48941,676192165fb32c2e1fb7aee6,67d1b537a7c7bf7383f01957,2025-03-12_09h27.52.541,Tarea de decisión léxica,2024.2.5,Win32,60.24096386,,,,,,,,,,,,,,,,,,,,,,,448.402,449.4836,a,1,0.4031,1,449.4837,449.9834,,,,,,93,FEM,WORD,AGR,150,bola,,la,,0.4031,,449.9834,449.9835,0.0690182,-0.235083104,0,0,0,,0,217,217,92,1,rona,,,,
,,,,,,613a996383fe819b7cb48941,676192165fb32c2e1fb7aee6,67d1b537a7c7bf7383f01957,2025-03-12_09h27.52.541,Tarea de decisión léxica,2024.2.5,Win32,60.24096386,,,,,,,,,,,,,,,,,,,,,,,449.9843,451.0658,a,1,0.4007,1,451.0659,451.5658,,,,,,341,MAS,WORD,AGR,150,valor,,el,,0.4007,,451.5667,451.5673,0.0690182,-0.235083104,0,0,0,,0,218,218,340,1,daror,,,,
,,,,,,613a996383fe819b7cb48941,676192165fb32c2e1fb7aee6,67d1b537a7c7bf7383f01957,2025-03-12_09h27.52.541,Tarea de decisión léxica,2024.2.5,Win32,60.24096386,,,,,,,,,,,,,,,,,,,,,,,451.5679,452.5483,l,1,0.3109,1,452.5483,453.0481,,,,,,264,FEM,NOWORD,DIS,150,dosta,,el,,0.3109,,453.0482,453.0483,0.0690182,-0.235083104,0,0,0,,0,219,219,263,1,vista,,,,
,,,,,,613a996383fe819b7cb48941,676192165fb32c2e1fb7aee6,67d1b537a7c7bf7383f01957,2025-03-12_09h27.52.541,Tarea de decisión léxica,2024.2.5,Win32,60.24096386,,,,,,,,,,,,,,,,,,,,,,,453.049,454.1475,l,1,0.4202,1,454.1476,454.6472,,,,,,452,FEM,NOWORD,DIS,150,clita,,el,,0.4202,,454.6473,454.6473,0.0690182,-0.235083104,0,0,0,,0,220,220,451,1,fruta,,,,
,,,,,,613a996383fe819b7cb48941,676192165fb32c2e1fb7aee6,67d1b537a7c7bf7383f01957,2025-03-12_09h27.52.541,Tarea de decisión léxica,2024.2.5,Win32,60.24096386,,,,,,,,,,,,,,,,,,,,,,,454.6482,455.6965,l,0,0.3661,0,455.6972,456.1963,,,,,,9,MAS,WORD,AGR,150,tipo,,el,,0.3661,,456.1964,456.1964,0.0690182,-0.235083104,0,0,0,,0,221,221,8,1,sibo,,,,
,,,,,,613a996383fe819b7cb48941,676192165fb32c2e1fb7aee6,67d1b537a7c7bf7383f01957,2025-03-12_09h27.52.541,Tarea de decisión léxica,2024.2.5,Win32,60.24096386,,,,,,,,,,,,,,,,,,,,,,,456.1973,457.1788,l,0,0.3003,0,457.1789,457.6786,,,,,,239,MAS,WORD,DIS,150,mozo,,la,,0.3003,,457.6786,457.6787,0.0690182,-0.235083104,0,0,0,,0,222,222,238,1,poño,,,,
,,,,,,613a996383fe819b7cb48941,676192165fb32c2e1fb7aee6,67d1b537a7c7bf7383f01957,2025-03-12_09h27.52.541,Tarea de decisión léxica,2024.2.5,Win32,60.24096386,,,,,,,,,,,,,,,,,,,,,,,457.6796,458.8944,l,1,0.5398,1,458.895,459.3942,,,,,,466,FEM,NOWORD,AGR,150,asuba,,la,,0.5398,,459.395,459.3956,0.0690182,-0.235083104,0,0,0,,0,223,223,465,1,aguja,,,,
,,,,,,613a996383fe819b7cb48941,676192165fb32c2e1fb7aee6,67d1b537a7c7bf7383f01957,2025-03-12_09h27.52.541,Tarea de decisión léxica,2024.2.5,Win32,60.24096386,,,,,,,,,,,,,,,,,,,,,,,459.3964,460.4103,l,1,0.337,1,460.4103,460.9099,,,,,,162,MAS,NOWORD,AGR,150,bopo,,el,,0.337,,460.9099,460.9101,0.0690182,-0.235083104,0,0,0,,0,224,224,161,1,coro,,,,
,,,,,,613a996383fe819b7cb48941,676192165fb32c2e1fb7aee6,67d1b537a7c7bf7383f01957,2025-03-12_09h27.52.541,Tarea de decisión léxica,2024.2.5,Win32,60.24096386,,,,,,,,,,,,,,,,,,,,,,,460.9109,462.0093,a,1,0.4174,1,462.0094,462.5089,,,,,,303,MAS,WORD,DIS,150,barco,,la,,0.4174,,462.509,462.509,0.0690182,-0.235083104,0,0,0,,0,225,225,302,1,lanco,,,,
,,,,,,613a996383fe819b7cb48941,676192165fb32c2e1fb7aee6,67d1b537a7c7bf7383f01957,2025-03-12_09h27.52.541,Tarea de decisión léxica,2024.2.5,Win32,60.24096386,,,,,,,,,,,,,,,,,,,,,,,462.5098,463.5415,l,1,0.3579,1,463.5415,464.0413,,,,,,372,FEM,NOWORD,DIS,150,mosta,,el,,0.3579,,464.0414,464.0415,0.0690182,-0.235083104,0,0,0,,0,226,226,371,1,pasta,,,,
,,,,,,613a996383fe819b7cb48941,676192165fb32c2e1fb7aee6,67d1b537a7c7bf7383f01957,2025-03-12_09h27.52.541,Tarea de decisión léxica,2024.2.5,Win32,60.24096386,,,,,,,,,,,,,,,,,,,,,,,464.0423,465.174,a,1,0.45,1,465.1741,465.6737,,,,,,103,FEM,WORD,DIS,150,ruta,,el,,0.45,,465.6746,465.6753,0.0690182,-0.235083104,0,0,0,,0,227,227,102,1,rova,,,,
,,,,,,613a996383fe819b7cb48941,676192165fb32c2e1fb7aee6,67d1b537a7c7bf7383f01957,2025-03-12_09h27.52.541,Tarea de decisión léxica,2024.2.5,Win32,60.24096386,,,,,,,,,,,,,,,,,,,,,,,465.676,466.6229,l,1,0.2746,1,466.6231,467.1228,,,,,,62,FEM,NOWORD,AGR,150,efla,,la,,0.2746,,467.1229,467.123,0.0690182,-0.235083104,0,0,0,,0,228,228,61,1,obra,,,,
,,,,,,613a996383fe819b7cb48941,676192165fb32c2e1fb7aee6,67d1b537a7c7bf7383f01957,2025-03-12_09h27.52.541,Tarea de decisión léxica,2024.2.5,Win32,60.24096386,,,,,,,,,,,,,,,,,,,,,,,467.1239,468.2388,a,1,0.4339,1,468.2389,468.7383,,,,,,65,MAS,WORD,AGR,150,dios,,el,,0.4339,,468.7385,468.7385,0.0690182,-0.235083104,0,0,0,,0,229,229,64,1,nios,,,,
,,,,,,613a996383fe819b7cb48941,676192165fb32c2e1fb7aee6,67d1b537a7c7bf7383f01957,2025-03-12_09h27.52.541,Tarea de decisión léxica,2024.2.5,Win32,60.24096386,,,,,,,,,,,,,,,,,,,,,,,468.7393,469.7045,l,0,0.291,0,469.7051,470.2039,,,,,,189,MAS,WORD,AGR,150,puño,,el,,0.291,,470.2039,470.204,0.0690182,-0.235083104,0,0,0,,0,230,230,188,1,muvo,,,,
,,,,,,613a996383fe819b7cb48941,676192165fb32c2e1fb7aee6,67d1b537a7c7bf7383f01957,2025-03-12_09h27.52.541,Tarea de decisión léxica,2024.2.5,Win32,60.24096386,,,,,,,,,,,,,,,,,,,,,,,470.2048,471.237,l,0,0.3511,0,471.2371,471.7367,,,,,,393,FEM,WORD,AGR,150,aldea,,la,,0.3511,,471.7367,471.7368,0.0690182,-0.235083104,0,0,0,,0,231,231,392,1,ashea,,,,
,,,,,,613a996383fe819b7cb48941,676192165fb32c2e1fb7aee6,67d1b537a7c7bf7383f01957,2025-03-12_09h27.52.541,Tarea de decisión léxica,2024.2.5,Win32,60.24096386,,,,,,,,,,,,,,,,,,,,,,,471.7375,472.8355,a,0,0.4213,0,472.8355,473.3356,,,,,,384,FEM,NOWORD,DIS,150,brame,,el,,0.4213,,473.3364,473.3369,0.0690182,-0.235083104,0,0,0,,0,232,232,383,1,frase,,,,
,,,,,,613a996383fe819b7cb48941,676192165fb32c2e1fb7aee6,67d1b537a7c7bf7383f01957,2025-03-12_09h27.52.541,Tarea de decisión léxica,2024.2.5,Win32,60.24096386,,,,,,,,,,,,,,,,,,,,,,,473.3378,475.3677,l,0,1.3503,0,475.3678,475.8673,,,,,,319,MAS,WORD,DIS,150,suelo,,la,,1.3503,,475.8674,475.8675,0.0690182,-0.235083104,0,0,0,,0,233,233,318,1,tuero,,,,
,,,,,,613a996383fe819b7cb48941,676192165fb32c2e1fb7aee6,67d1b537a7c7bf7383f01957,2025-03-12_09h27.52.541,Tarea de decisión léxica,2024.2.5,Win32,60.24096386,,,,,,,,,,,,,,,,,,,,,,,475.8683,478.5157,,0,1.3503,-1,478.5164,479.0152,,,,,,201,FEM,WORD,AGR,150,cuna,,la,,,,479.0153,479.0154,0.0690182,-0.235083104,0,0,0,,0,234,234,200,1,cusa,,,,
,,,,,,613a996383fe819b7cb48941,676192165fb32c2e1fb7aee6,67d1b537a7c7bf7383f01957,2025-03-12_09h27.52.541,Tarea de decisión léxica,2024.2.5,Win32,60.24096386,,,,,,,,,,,,,,,,,,,,,,,479.0163,480.1315,a,1,0.4417,1,480.132,480.631,,,,,,359,MAS,WORD,DIS,150,calor,,la,,0.4417,,480.6311,480.6311,0.0690182,-0.235083104,0,0,0,,0,235,235,358,1,cacer,,,,
,,,,,,613a996383fe819b7cb48941,676192165fb32c2e1fb7aee6,67d1b537a7c7bf7383f01957,2025-03-12_09h27.52.541,Tarea de decisión léxica,2024.2.5,Win32,60.24096386,,,,,,,,,,,,,,,,,,,,,,,480.632,481.8138,l,1,0.4999,1,481.8139,482.3134,,,,,,300,FEM,NOWORD,DIS,150,bosga,,el,,0.4999,,482.3135,482.3136,0.0690182,-0.235083104,0,0,0,,0,236,236,299,1,bolsa,,,,
,,,,,,613a996383fe819b7cb48941,676192165fb32c2e1fb7aee6,67d1b537a7c7bf7383f01957,2025-03-12_09h27.52.541,Tarea de decisión léxica,2024.2.5,Win32,60.24096386,,,,,,,,,,,,,,,,,,,,,,,482.3144,484.9619,,0,0.4999,-1,484.9625,485.4614,,,,,,248,FEM,NOWORD,DIS,150,trida,,el,,,,485.4623,485.4628,0.0690182,-0.235083104,0,0,0,,0,237,237,247,1,chica,,,,
,,,,,,613a996383fe819b7cb48941,676192165fb32c2e1fb7aee6,67d1b537a7c7bf7383f01957,2025-03-12_09h27.52.541,Tarea de decisión léxica,2024.2.5,Win32,60.24096386,,,,,,,,,,,,,,,,,,,,,,,485.4635,486.6272,l,1,0.494,1,486.6278,487.1271,,,,,,426,FEM,NOWORD,AGR,150,virca,,la,,0.494,,487.1271,487.1272,0.0690182,-0.235083104,0,0,0,,0,238,238,425,1,viuda,,,,
,,,,,,613a996383fe819b7cb48941,676192165fb32c2e1fb7aee6,67d1b537a7c7bf7383f01957,2025-03-12_09h27.52.541,Tarea de decisión léxica,2024.2.5,Win32,60.24096386,,,,,,,,,,,,,,,,,,,,,,,487.1279,489.7755,,0,0.494,-1,489.7761,490.2751,,,,,,106,FEM,NOWORD,AGR,150,vina,,la,,,,490.2752,490.2753,0.0690182,-0.235083104,0,0,0,,0,239,239,105,1,sopa,,,,
,,,,,,613a996383fe819b7cb48941,676192165fb32c2e1fb7aee6,67d1b537a7c7bf7383f01957,2025-03-12_09h27.52.541,Tarea de decisión léxica,2024.2.5,Win32,60.24096386,,,,,,,,,,,,,,,,,,,,,,,490.2762,491.4576,a,1,0.5097,1,491.4582,491.9574,,,,,,299,FEM,WORD,DIS,150,bolsa,,el,,0.5097,,491.9575,491.9576,0.0690182,-0.235083104,0,0,0,,0,240,240,298,1,bosga,,,,
,,,,,,613a996383fe819b7cb48941,676192165fb32c2e1fb7aee6,67d1b537a7c7bf7383f01957,2025-03-12_09h27.52.541,Tarea de decisión léxica,2024.2.5,Win32,60.24096386,,,,,,,,,,,,,,,,,,,,,,,491.9584,492.9737,l,1,0.3332,1,492.9737,493.4731,,,,,,132,FEM,NOWORD,DIS,150,fada,,el,,0.3332,,493.4732,493.4733,0.0690182,-0.235083104,0,0,0,,0,241,241,131,1,mina,,,,
,,,,,,613a996383fe819b7cb48941,676192165fb32c2e1fb7aee6,67d1b537a7c7bf7383f01957,2025-03-12_09h27.52.541,Tarea de decisión léxica,2024.2.5,Win32,60.24096386,,,,,,,,,,,,,,,,,,,,,,,493.4741,494.5059,a,1,0.3585,1,494.506,495.0056,,,,,,407,FEM,WORD,DIS,150,cueva,,el,,0.3585,,495.0065,495.0071,0.0690182,-0.235083104,0,0,0,,0,242,242,406,1,cauba,,,,
,,,,,,613a996383fe819b7cb48941,676192165fb32c2e1fb7aee6,67d1b537a7c7bf7383f01957,2025-03-12_09h27.52.541,Tarea de decisión léxica,2024.2.5,Win32,60.24096386,,,,,,,,,,,,,,,,,,,,,,,495.0078,496.038,a,1,0.3606,1,496.0381,496.5378,,,,,,139,MAS,WORD,DIS,150,mago,,la,,0.3606,,496.5379,496.538,0.0690182,-0.235083104,0,0,0,,0,243,243,138,1,nila,,,,
,,,,,,613a996383fe819b7cb48941,676192165fb32c2e1fb7aee6,67d1b537a7c7bf7383f01957,2025-03-12_09h27.52.541,Tarea de decisión léxica,2024.2.5,Win32,60.24096386,,,,,,,,,,,,,,,,,,,,,,,496.5388,497.6206,l,1,0.4042,1,497.6208,498.1203,,,,,,186,MAS,NOWORD,AGR,150,raol,,el,,0.4042,,498.1203,498.1204,0.0690182,-0.235083104,0,0,0,,0,244,244,185,1,baúl,,,,
,,,,,,613a996383fe819b7cb48941,676192165fb32c2e1fb7aee6,67d1b537a7c7bf7383f01957,2025-03-12_09h27.52.541,Tarea de decisión léxica,2024.2.5,Win32,60.24096386,,,,,,,,,,,,,,,,,,,,,,,498.1212,499.2692,a,1,0.478,1,499.2693,499.7695,,,,,,261,MAS,WORD,AGR,150,sitio,,el,,0.478,,499.7696,499.7696,0.0690182,-0.235083104,0,0,0,,0,245,245,260,1,titio,,,,
,,,,,,613a996383fe819b7cb48941,676192165fb32c2e1fb7aee6,67d1b537a7c7bf7383f01957,2025-03-12_09h27.52.541,Tarea de decisión léxica,2024.2.5,Win32,60.24096386,,,,,,,,,,,,,,,,,,,,,,,499.7705,500.7687,l,1,0.3256,1,500.7687,501.2684,,,,,,86,MAS,NOWORD,AGR,150,babo,,el,,0.3256,,501.2684,501.2685,0.0690182,-0.235083104,0,0,0,,0,246,246,85,1,lago,,,,
,,,,,,613a996383fe819b7cb48941,676192165fb32c2e1fb7aee6,67d1b537a7c7bf7383f01957,2025-03-12_09h27.52.541,Tarea de decisión léxica,2024.2.5,Win32,60.24096386,,,,,,,,,,,,,,,,,,,,,,,501.2693,502.3344,a,0,0.3895,0,502.335,502.8342,,,,,,202,FEM,NOWORD,AGR,150,cusa,,la,,0.3895,,502.835,502.8355,0.0690182,-0.235083104,0,0,0,,0,247,247,201,1,cuna,,,,
,,,,,,613a996383fe819b7cb48941,676192165fb32c2e1fb7aee6,67d1b537a7c7bf7383f01957,2025-03-12_09h27.52.541,Tarea de decisión léxica,2024.2.5,Win32,60.24096386,,,,,,,,,,,,,,,,,,,,,,,502.8361,503.7835,l,0,0.2701,0,503.7836,504.2832,,,,,,449,FEM,WORD,AGR,150,pluma,,la,,0.2701,,504.2833,504.2834,0.0690182,-0.235083104,0,0,0,,0,248,248,448,1,crusa,,,,
,,,,,,613a996383fe819b7cb48941,676192165fb32c2e1fb7aee6,67d1b537a7c7bf7383f01957,2025-03-12_09h27.52.541,Tarea de decisión léxica,2024.2.5,Win32,60.24096386,,,,,,,,,,,,,,,,,,,,,,,504.2842,505.4991,l,1,0.5414,1,505.4997,505.9989,,,,,,404,FEM,NOWORD,DIS,150,grisa,,el,,0.5414,,505.9989,505.999,0.0690182,-0.235083104,0,0,0,,0,249,249,403,1,prima,,,,
,,,,,,613a996383fe819b7cb48941,676192165fb32c2e1fb7aee6,67d1b537a7c7bf7383f01957,2025-03-12_09h27.52.541,Tarea de decisión léxica,2024.2.5,Win32,60.24096386,,,,,,,,,,,,,,,,,,,,,,,505.9999,507.0481,a,1,0.3736,1,507.0481,507.548,,,,,,375,FEM,WORD,DIS,150,salsa,,el,,0.3736,,507.548,507.5482,0.0690182,-0.235083104,0,0,0,,0,250,250,374,1,sasna,,,,
,,,,,,613a996383fe819b7cb48941,676192165fb32c2e1fb7aee6,67d1b537a7c7bf7383f01957,2025-03-12_09h27.52.541,Tarea de decisión léxica,2024.2.5,Win32,60.24096386,,,,,,,,,,,,,,,,,,,,,,,507.549,508.7471,a,1,0.522,1,508.7471,509.2467,,,,,,401,MAS,WORD,AGR,150,polvo,,el,,0.522,,509.2476,509.2481,0.0690182,-0.235083104,0,0,0,,0,251,251,400,1,pirvo,,,,
,,,,,,613a996383fe819b7cb48941,676192165fb32c2e1fb7aee6,67d1b537a7c7bf7383f01957,2025-03-12_09h27.52.541,Tarea de decisión léxica,2024.2.5,Win32,60.24096386,,,,,,,,,,,,,,,,,,,,,,,509.2487,510.296,l,1,0.3761,1,510.2962,510.7958,,,,,,350,MAS,NOWORD,AGR,150,cosir,,el,,0.3761,,510.7959,510.7959,0.0690182,-0.235083104,0,0,0,,0,252,252,349,1,color,,,,
,,,,,,613a996383fe819b7cb48941,676192165fb32c2e1fb7aee6,67d1b537a7c7bf7383f01957,2025-03-12_09h27.52.541,Tarea de decisión léxica,2024.2.5,Win32,60.24096386,,,,,,,,,,,,,,,,,,,,,,,510.7967,511.895,a,1,0.4251,1,511.8951,512.3948,,,,,,249,FEM,WORD,AGR,150,clase,,la,,0.4251,,512.3948,512.3949,0.0690182,-0.235083104,0,0,0,,0,253,253,248,1,plane,,,,
,,,,,,613a996383fe819b7cb48941,676192165fb32c2e1fb7aee6,67d1b537a7c7bf7383f01957,2025-03-12_09h27.52.541,Tarea de decisión léxica,2024.2.5,Win32,60.24096386,,,,,,,,,,,,,,,,,,,,,,,512.3957,513.3777,l,1,0.309,1,513.3779,513.877,,,,,,212,FEM,NOWORD,DIS,150,joad,,el,,0.309,,513.8771,513.8773,0.0690182,-0.235083104,0,0,0,,0,254,254,211,1,joya,,,,
,,,,,,613a996383fe819b7cb48941,676192165fb32c2e1fb7aee6,67d1b537a7c7bf7383f01957,2025-03-12_09h27.52.541,Tarea de decisión léxica,2024.2.5,Win32,60.24096386,,,,,,,,,,,,,,,,,,,,,,,513.878,514.9433,a,1,0.3844,1,514.9434,515.4429,,,,,,179,MAS,WORD,DIS,150,toro,,la,,0.3844,,515.443,515.4431,0.0690182,-0.235083104,0,0,0,,0,255,255,178,1,sono,,,,
,,,,,,613a996383fe819b7cb48941,676192165fb32c2e1fb7aee6,67d1b537a7c7bf7383f01957,2025-03-12_09h27.52.541,Tarea de decisión léxica,2024.2.5,Win32,60.24096386,,,,,,,,,,,,,,,,,,,,,,,515.444,516.4757,l,1,0.3578,1,516.4757,516.9755,,,,,,456,MAS,NOWORD,DIS,150,riaso,,la,,0.3578,,516.9763,516.9769,0.0690182,-0.235083104,0,0,0,,0,256,256,455,1,reino,,,,
,,,,,,613a996383fe819b7cb48941,676192165fb32c2e1fb7aee6,67d1b537a7c7bf7383f01957,2025-03-12_09h27.52.541,Tarea de decisión léxica,2024.2.5,Win32,60.24096386,,,,,,,,,,,,,,,,,,,,,,,516.9776,518.0248,l,1,0.3665,1,518.0249,518.5245,,,,,,220,FEM,NOWORD,DIS,150,miva,,el,,0.3665,,518.5245,518.5246,0.0690182,-0.235083104,0,0,0,,0,257,257,219,1,pipa,,,,
,,,,,,613a996383fe819b7cb48941,676192165fb32c2e1fb7aee6,67d1b537a7c7bf7383f01957,2025-03-12_09h27.52.541,Tarea de decisión léxica,2024.2.5,Win32,60.24096386,,,,,,,,,,,,,,,,,,,,,,,518.5254,519.557,l,1,0.3561,1,519.5571,520.0569,,,,,,56,MAS,NOWORD,DIS,150,jado,,la,,0.3561,,520.0569,520.057,0.0690182,-0.235083104,0,0,0,,0,258,258,55,1,gato,,,,
,,,,,,613a996383fe819b7cb48941,676192165fb32c2e1fb7aee6,67d1b537a7c7bf7383f01957,2025-03-12_09h27.52.541,Tarea de decisión léxica,2024.2.5,Win32,60.24096386,,,,,,,,,,,,,,,,,,,,,,,520.0579,521.1228,a,1,0.3865,1,521.1229,521.6225,,,,,,333,FEM,WORD,AGR,150,tarea,,la,,0.3865,,521.6225,521.6227,0.0690182,-0.235083104,0,0,0,,0,259,259,332,1,dalea,,,,
,,,,,,613a996383fe819b7cb48941,676192165fb32c2e1fb7aee6,67d1b537a7c7bf7383f01957,2025-03-12_09h27.52.541,Tarea de decisión léxica,2024.2.5,Win32,60.24096386,,,,,,,,,,,,,,,,,,,,,,,521.6235,522.7885,a,1,0.4841,1,522.7886,523.2881,,,,,,193,FEM,WORD,AGR,150,loca,,la,,0.4841,,523.2882,523.2883,0.0690182,-0.235083104,0,0,0,,0,260,260,192,1,foda,,,,
,,,,,,613a996383fe819b7cb48941,676192165fb32c2e1fb7aee6,67d1b537a7c7bf7383f01957,2025-03-12_09h27.52.541,Tarea de decisión léxica,2024.2.5,Win32,60.24096386,,,,,,,,,,,,,,,,,,,,,,,523.2891,524.2875,l,1,0.3237,1,524.2875,524.7872,,,,,,24,FEM,NOWORD,DIS,150,giva,,el,,0.3237,,524.7881,524.7887,0.0690182,-0.235083104,0,0,0,,0,261,261,23,1,hija,,,,
,,,,,,613a996383fe819b7cb48941,676192165fb32c2e1fb7aee6,67d1b537a7c7bf7383f01957,2025-03-12_09h27.52.541,Tarea de decisión léxica,2024.2.5,Win32,60.24096386,,,,,,,,,,,,,,,,,,,,,,,524.7895,525.8366,a,0,0.3672,0,525.8373,526.3363,,,,,,236,FEM,NOWORD,DIS,150,tria,,el,,0.3672,,526.3364,526.3365,0.0690182,-0.235083104,0,0,0,,0,262,262,235,1,grúa,,,,
,,,,,,613a996383fe819b7cb48941,676192165fb32c2e1fb7aee6,67d1b537a7c7bf7383f01957,2025-03-12_09h27.52.541,Tarea de decisión léxica,2024.2.5,Win32,60.24096386,,,,,,,,,,,,,,,,,,,,,,,526.3373,527.3856,l,1,0.3702,1,527.3862,527.8854,,,,,,274,FEM,NOWORD,AGR,150,frosa,,la,,0.3702,,527.8855,527.8856,0.0690182,-0.235083104,0,0,0,,0,263,263,273,1,broma,,,,
,,,,,,613a996383fe819b7cb48941,676192165fb32c2e1fb7aee6,67d1b537a7c7bf7383f01957,2025-03-12_09h27.52.541,Tarea de decisión léxica,2024.2.5,Win32,60.24096386,,,,,,,,,,,,,,,,,,,,,,,527.8864,528.8011,l,1,0.2451,1,528.8013,529.301,,,,,,462,FEM,NOWORD,AGR,150,pagra,,la,,0.2451,,529.3011,529.3012,0.0690182,-0.235083104,0,0,0,,0,264,264,461,1,tabla,,,,
,,,,,,613a996383fe819b7cb48941,676192165fb32c2e1fb7aee6,67d1b537a7c7bf7383f01957,2025-03-12_09h27.52.541,Tarea de decisión léxica,2024.2.5,Win32,60.24096386,,,,,,,,,,,,,,,,,,,,,,,529.3019,530.3504,l,1,0.373,1,530.3505,530.8502,,,,,,392,MAS,NOWORD,DIS,150,dievo,,la,,0.373,,530.8502,530.8503,0.0690182,-0.235083104,0,0,0,,0,265,265,391,1,dueño,,,,
