counterbalancing_condition,consent_prescreening.block_1/declare_consent,consent_prescreening.block_1/age_years,consent_prescreening.block_1/gender,consent_prescreening.block_1/language_disorder,consent_prescreening.block_1/first_language,PROLIFIC_PID,STUDY_ID,SESSION_ID,date,expName,psychopyVersion,OS,frameRate,check_prescreening_answers.started,check_prescreening_answers.stopped,Instructions.started,Instructions.stopped,instr_done_keyboard.keys,instr_done_keyboard.rt,instr_done_keyboard.duration,instr_done_touch.x,instr_done_touch.y,instr_done_touch.leftButton,instr_done_touch.midButton,instr_done_touch.rightButton,instruction_pages.thisRepN,instruction_pages.thisTrialN,instruction_pages.thisN,instruction_pages.thisIndex,instruction_pages.ran,pageN,phase,instruct_text,has_image,instruct_image,presentTrial.started,presentTrial.stopped,response.keys,response.corr,response.rt,response.duration,rt,corr,feedback.started,feedback.stopped,practice_trials.thisRepN,practice_trials.thisTrialN,practice_trials.thisN,practice_trials.thisIndex,practice_trials.ran,TrialID,Gender,StimulusType,Condition,PrimeDuration,Prime,len,Flanker,corrAns,Break.started,Break.stopped,break_done_touch.x,break_done_touch.y,break_done_touch.leftButton,break_done_touch.midButton,break_done_touch.rightButton,break_done_keyboard.keys,experiment_trials.thisRepN,experiment_trials.thisTrialN,experiment_trials.thisN,experiment_trials.thisIndex,experiment_trials.ran,PairedWith,break_done_keyboard.rt,break_done_keyboard.duration,End.started,End.stopped
3,"[""over_18"",""comfortable"",""read_info"",""consent_given""]",18,F,"[""none""]","[""spanish"",""english""]",613a70774e42055f91081fc5,676192165fb32c2e1fb7aee6,67d0e69485b090a27c9dbaa3,2025-03-11_18h43.59.706,Tarea de decisión léxica,2024.2.5,Win32,144.9275362,,,,,,,,,,,,,,,,,,,,,,,,,,,,,,,,,,,,,,,,,,,,,,,,,,,,,,,,,,,,,,,,
,,,,,,613a70774e42055f91081fc5,676192165fb32c2e1fb7aee6,67d0e69485b090a27c9dbaa3,2025-03-11_18h43.59.706,Tarea de decisión léxica,2024.2.5,Win32,144.9275362,15.3035,15.3036,,,,,,,,,,,,,,,,,,,,,,,,,,,,,,,,,,,,,,,,,,,,,,,,,,,,,,,,,,,,,,
,,,,,,613a70774e42055f91081fc5,676192165fb32c2e1fb7aee6,67d0e69485b090a27c9dbaa3,2025-03-11_18h43.59.706,Tarea de decisión léxica,2024.2.5,Win32,144.9275362,,,15.3408,21.5669,space,6.1841,,-0.235185199,0.107407393,0,0,0,0,0,0,0,1,1,instructions,"INSTRUCCIONES
Va a realizar una prueba de decisión léxica. Desde el comienzo de la prueba mire siempre al centro de la pantalla. Se presentará una serie de cadenas de letras, una a la vez, en la pantalla. Su tarea consiste en determinar si cada cadena de letras constituye una palabra real en español o una no-palabra (una secuencia de letras que no constituye una palabra real). 

Pulse la tecla ESPACIO para continuar.",0,keyboardresponseNW.png,,,,,,,,,,,,,,,,,,,,,,,,,,,,,,,,,,,,,,,,,,
,,,,,,613a70774e42055f91081fc5,676192165fb32c2e1fb7aee6,67d0e69485b090a27c9dbaa3,2025-03-11_18h43.59.706,Tarea de decisión léxica,2024.2.5,Win32,144.9275362,,,21.5699,31.5388,space,9.9567,,-0.235185199,0.107407393,0,0,0,0,1,1,1,1,2,instructions,"El procedimiento es el siguiente: Aparecerán dos barras verticales posicionadas en el centro de la pantalla, separadas por un pequeño espacio.Por favor, enfoque su atención en el espacio entre las barras. Esto preparará sus ojos para la siguiente cadena de letras, que aparecerá entre las dos barras durante un instante.

Pulse la tecla ESPACIO para continuar.",0,keyboardresponseNW.png,,,,,,,,,,,,,,,,,,,,,,,,,,,,,,,,,,,,,,,,,,
,,,,,,613a70774e42055f91081fc5,676192165fb32c2e1fb7aee6,67d0e69485b090a27c9dbaa3,2025-03-11_18h43.59.706,Tarea de decisión léxica,2024.2.5,Win32,144.9275362,,,31.5421,43.1767,space,11.582,,-0.25,0.106481481,0,0,0,0,2,2,2,1,3,instructions,"En el teclado de su dispositivo, pulse la tecla ""L"" si la cadena de letras es una palabra real en español (por ejemplo: ""mano"") y la tecla ""A"" si la cadena de letras es una no-palabra (por ejemplo: ""minu"").
Pulse la tecla ESPACIO para continuar.",1,keyboardresponseNW.png,,,,,,,,,,,,,,,,,,,,,,,,,,,,,,,,,,,,,,,,,,
,,,,,,613a70774e42055f91081fc5,676192165fb32c2e1fb7aee6,67d0e69485b090a27c9dbaa3,2025-03-11_18h43.59.706,Tarea de decisión léxica,2024.2.5,Win32,144.9275362,,,43.179,51.6696,space,8.4607,,-0.248148106,0.104629623,0,0,0,0,3,3,3,1,4,instructions,"Es muy importante que responda con la mayor rapidez y precisión posibles. Si no responde dentro de 2 segundos, aparecerá el mensaje ""Muy lento"" y el experimento pasará a la siguiente palabra. Inmediatamente después de su respuesta se indicará si fue correcta o no. Los primeros 15 intentos serán de práctica y habrá dos descansos durante la prueba.

Pulse la tecla ESPACIO  para iniciar la parte de práctica.",0,keyboardresponseNW.png,,,,,,,,,,,,,,,,,,,,,,,,,,,,,,,,,,,,,,,,,,
,,,,,,613a70774e42055f91081fc5,676192165fb32c2e1fb7aee6,67d0e69485b090a27c9dbaa3,2025-03-11_18h43.59.706,Tarea de decisión léxica,2024.2.5,Win32,144.9275362,,,,,,,,,,,,,,,,,,,,,,,51.6855,52.7947,a,0,0.452,,0.452,0,52.795,53.2945,0,0,0,9,1,1010,MAS,WORD,DIS,150,video,5,la,l,,,,,,,,,,,,,,,,,,
,,,,,,613a70774e42055f91081fc5,676192165fb32c2e1fb7aee6,67d0e69485b090a27c9dbaa3,2025-03-11_18h43.59.706,Tarea de decisión léxica,2024.2.5,Win32,144.9275362,,,,,,,,,,,,,,,,,,,,,,,53.2961,54.5096,l,1,0.5576,,0.5576,1,54.5106,55.0096,0,1,1,8,1,1009,FEM,WORD,AGR,150,viejo,5,la,l,,,,,,,,,,,,,,,,,,
,,,,,,613a70774e42055f91081fc5,676192165fb32c2e1fb7aee6,67d0e69485b090a27c9dbaa3,2025-03-11_18h43.59.706,Tarea de decisión léxica,2024.2.5,Win32,144.9275362,,,,,,,,,,,,,,,,,,,,,,,55.0115,56.3222,l,1,0.6577,,0.6577,1,56.3224,56.8228,0,2,2,7,1,1008,MAS,WORD,DIS,150,frío,4,la,l,,,,,,,,,,,,,,,,,,
,,,,,,613a70774e42055f91081fc5,676192165fb32c2e1fb7aee6,67d0e69485b090a27c9dbaa3,2025-03-11_18h43.59.706,Tarea de decisión léxica,2024.2.5,Win32,144.9275362,,,,,,,,,,,,,,,,,,,,,,,56.8244,58.1625,a,1,0.6819,,0.6819,1,58.1626,58.6623,0,3,3,2,1,1003,FEM,NOWORD,DIS,150,muvor,5,el,a,,,,,,,,,,,,,,,,,,
,,,,,,613a70774e42055f91081fc5,676192165fb32c2e1fb7aee6,67d0e69485b090a27c9dbaa3,2025-03-11_18h43.59.706,Tarea de decisión léxica,2024.2.5,Win32,144.9275362,,,,,,,,,,,,,,,,,,,,,,,58.6641,59.7665,l,1,0.4453,,0.4453,1,59.7668,60.2666,0,4,4,5,1,1006,FEM,WORD,AGR,150,cara,4,la,l,,,,,,,,,,,,,,,,,,
,,,,,,613a70774e42055f91081fc5,676192165fb32c2e1fb7aee6,67d0e69485b090a27c9dbaa3,2025-03-11_18h43.59.706,Tarea de decisión léxica,2024.2.5,Win32,144.9275362,,,,,,,,,,,,,,,,,,,,,,,60.2683,61.4888,a,1,0.563,,0.563,1,61.489,61.9886,0,5,5,0,1,1001,FEM,NOWORD,AGR,150,croz,4,la,a,,,,,,,,,,,,,,,,,,
,,,,,,613a70774e42055f91081fc5,676192165fb32c2e1fb7aee6,67d0e69485b090a27c9dbaa3,2025-03-11_18h43.59.706,Tarea de decisión léxica,2024.2.5,Win32,144.9275362,,,,,,,,,,,,,,,,,,,,,,,61.9901,63.0094,l,1,0.3653,,0.3653,1,63.0094,63.5094,0,6,6,6,1,1007,MAS,WORD,DIS,150,masa,4,la,l,,,,,,,,,,,,,,,,,,
,,,,,,613a70774e42055f91081fc5,676192165fb32c2e1fb7aee6,67d0e69485b090a27c9dbaa3,2025-03-11_18h43.59.706,Tarea de decisión léxica,2024.2.5,Win32,144.9275362,,,,,,,,,,,,,,,,,,,,,,,63.5106,64.676,a,1,0.5073,,0.5073,1,64.6761,65.1761,0,7,7,3,1,1004,FEM,NOWORD,AGR,150,bireo,5,la,a,,,,,,,,,,,,,,,,,,
,,,,,,613a70774e42055f91081fc5,676192165fb32c2e1fb7aee6,67d0e69485b090a27c9dbaa3,2025-03-11_18h43.59.706,Tarea de decisión léxica,2024.2.5,Win32,144.9275362,,,,,,,,,,,,,,,,,,,,,,,65.1774,66.3361,a,1,0.5027,,0.5027,1,66.3362,66.8361,0,8,8,4,1,1005,MAS,NOWORD,DIS,150,nobad,5,la,a,,,,,,,,,,,,,,,,,,
,,,,,,613a70774e42055f91081fc5,676192165fb32c2e1fb7aee6,67d0e69485b090a27c9dbaa3,2025-03-11_18h43.59.706,Tarea de decisión léxica,2024.2.5,Win32,144.9275362,,,,,,,,,,,,,,,,,,,,,,,66.837,68.0234,a,1,0.5294,,0.5294,1,68.0235,68.5233,0,9,9,1,1,1002,FEM,NOWORD,DIS,150,mabo,4,el,a,,,,,,,,,,,,,,,,,,
,,,,,,613a70774e42055f91081fc5,676192165fb32c2e1fb7aee6,67d0e69485b090a27c9dbaa3,2025-03-11_18h43.59.706,Tarea de decisión léxica,2024.2.5,Win32,144.9275362,,,72.0533,75.6483,space,3.5859,,-0.248148106,0.104629623,0,0,0,,,,,,,,,,,75.7015,76.8705,l,1,0.5085,,0.5085,1,76.8707,77.3704,,,,,,431,MAS,WORD,DIS,150,motor,,la,,77.3708,77.376,-0.248148106,0.104629623,0,0,0,,0,0,0,430,1,tetor,,,,
,,,,,,613a70774e42055f91081fc5,676192165fb32c2e1fb7aee6,67d0e69485b090a27c9dbaa3,2025-03-11_18h43.59.706,Tarea de decisión léxica,2024.2.5,Win32,144.9275362,,,,,,,,,,,,,,,,,,,,,,,77.3775,78.4049,a,1,0.3701,,0.3701,1,78.4051,78.9053,,,,,,14,FEM,NOWORD,AGR,150,nola,,la,,78.9056,78.9059,-0.248148106,0.104629623,0,0,0,,0,1,1,13,1,hora,,,,
,,,,,,613a70774e42055f91081fc5,676192165fb32c2e1fb7aee6,67d0e69485b090a27c9dbaa3,2025-03-11_18h43.59.706,Tarea de decisión léxica,2024.2.5,Win32,144.9275362,,,,,,,,,,,,,,,,,,,,,,,78.9076,79.9957,a,1,0.4309,,0.4309,1,79.9958,80.4959,,,,,,362,FEM,NOWORD,AGR,150,solle,,la,,80.4982,80.4992,-0.248148106,0.104629623,0,0,0,,0,2,2,361,1,torre,,,,
,,,,,,613a70774e42055f91081fc5,676192165fb32c2e1fb7aee6,67d0e69485b090a27c9dbaa3,2025-03-11_18h43.59.706,Tarea de decisión léxica,2024.2.5,Win32,144.9275362,,,,,,,,,,,,,,,,,,,,,,,80.5013,81.5581,l,1,0.3972,,0.3972,1,81.5582,82.0578,,,,,,403,FEM,WORD,DIS,150,prima,,el,,82.0579,82.0581,-0.248148106,0.104629623,0,0,0,,0,3,3,402,1,grisa,,,,
,,,,,,613a70774e42055f91081fc5,676192165fb32c2e1fb7aee6,67d0e69485b090a27c9dbaa3,2025-03-11_18h43.59.706,Tarea de decisión léxica,2024.2.5,Win32,144.9275362,,,,,,,,,,,,,,,,,,,,,,,82.0598,83.1759,a,1,0.459,,0.459,1,83.1761,83.676,,,,,,76,MAS,NOWORD,DIS,150,ocer,,la,,83.6761,83.6763,-0.248148106,0.104629623,0,0,0,,0,4,4,75,1,olor,,,,
,,,,,,613a70774e42055f91081fc5,676192165fb32c2e1fb7aee6,67d0e69485b090a27c9dbaa3,2025-03-11_18h43.59.706,Tarea de decisión léxica,2024.2.5,Win32,144.9275362,,,,,,,,,,,,,,,,,,,,,,,83.6776,84.7039,l,1,0.3729,,0.3729,1,84.7039,85.2037,,,,,,455,MAS,WORD,DIS,150,reino,,la,,85.2038,85.2039,-0.248148106,0.104629623,0,0,0,,0,5,5,454,1,riaso,,,,
,,,,,,613a70774e42055f91081fc5,676192165fb32c2e1fb7aee6,67d0e69485b090a27c9dbaa3,2025-03-11_18h43.59.706,Tarea de decisión léxica,2024.2.5,Win32,144.9275362,,,,,,,,,,,,,,,,,,,,,,,85.2061,86.3843,a,1,0.5234,,0.5234,1,86.3844,86.8841,,,,,,252,MAS,NOWORD,DIS,150,refor,,la,,86.8842,86.8844,-0.248148106,0.104629623,0,0,0,,0,6,6,251,1,señor,,,,
,,,,,,613a70774e42055f91081fc5,676192165fb32c2e1fb7aee6,67d0e69485b090a27c9dbaa3,2025-03-11_18h43.59.706,Tarea de decisión léxica,2024.2.5,Win32,144.9275362,,,,,,,,,,,,,,,,,,,,,,,86.8858,87.995,a,1,0.4526,,0.4526,1,87.9951,88.4953,,,,,,174,FEM,NOWORD,AGR,150,boma,,la,,88.4976,88.4987,-0.248148106,0.104629623,0,0,0,,0,7,7,173,1,rosa,,,,
,,,,,,613a70774e42055f91081fc5,676192165fb32c2e1fb7aee6,67d0e69485b090a27c9dbaa3,2025-03-11_18h43.59.706,Tarea de decisión léxica,2024.2.5,Win32,144.9275362,,,,,,,,,,,,,,,,,,,,,,,88.4997,89.6339,l,1,0.4744,,0.4744,1,89.6341,90.1343,,,,,,323,FEM,WORD,DIS,150,cinta,,el,,90.1344,90.1346,-0.248148106,0.104629623,0,0,0,,0,8,8,322,1,certa,,,,
,,,,,,613a70774e42055f91081fc5,676192165fb32c2e1fb7aee6,67d0e69485b090a27c9dbaa3,2025-03-11_18h43.59.706,Tarea de decisión léxica,2024.2.5,Win32,144.9275362,,,,,,,,,,,,,,,,,,,,,,,90.136,91.2106,a,1,0.4173,,0.4173,1,91.2108,91.7104,,,,,,54,FEM,NOWORD,AGR,150,rora,,la,,91.7104,91.7106,-0.248148106,0.104629623,0,0,0,,0,9,9,53,1,boda,,,,
,,,,,,613a70774e42055f91081fc5,676192165fb32c2e1fb7aee6,67d0e69485b090a27c9dbaa3,2025-03-11_18h43.59.706,Tarea de decisión léxica,2024.2.5,Win32,144.9275362,,,,,,,,,,,,,,,,,,,,,,,91.7126,92.7519,a,1,0.3841,,0.3841,1,92.7519,93.252,,,,,,40,MAS,NOWORD,DIS,150,redo,,la,,93.252,93.2521,-0.248148106,0.104629623,0,0,0,,0,10,10,39,1,voto,,,,
,,,,,,613a70774e42055f91081fc5,676192165fb32c2e1fb7aee6,67d0e69485b090a27c9dbaa3,2025-03-11_18h43.59.706,Tarea de decisión léxica,2024.2.5,Win32,144.9275362,,,,,,,,,,,,,,,,,,,,,,,93.2535,94.2095,l,1,0.3022,,0.3022,1,94.2096,94.7104,,,,,,41,FEM,WORD,AGR,150,nave,,la,,94.7131,94.7142,-0.248148106,0.104629623,0,0,0,,0,11,11,40,1,haje,,,,
,,,,,,613a70774e42055f91081fc5,676192165fb32c2e1fb7aee6,67d0e69485b090a27c9dbaa3,2025-03-11_18h43.59.706,Tarea de decisión léxica,2024.2.5,Win32,144.9275362,,,,,,,,,,,,,,,,,,,,,,,94.7154,95.6552,a,1,0.2821,,0.2821,1,95.6553,96.1548,,,,,,82,FEM,NOWORD,AGR,150,vasa,,la,,96.1548,96.1549,-0.248148106,0.104629623,0,0,0,,0,12,12,81,1,dama,,,,
,,,,,,613a70774e42055f91081fc5,676192165fb32c2e1fb7aee6,67d0e69485b090a27c9dbaa3,2025-03-11_18h43.59.706,Tarea de decisión léxica,2024.2.5,Win32,144.9275362,,,,,,,,,,,,,,,,,,,,,,,96.1566,97.1481,a,0,0.3348,,0.3348,0,97.1497,97.6482,,,,,,239,MAS,WORD,DIS,150,mozo,,la,,97.6483,97.6484,-0.248148106,0.104629623,0,0,0,,0,13,13,238,1,poño,,,,
,,,,,,613a70774e42055f91081fc5,676192165fb32c2e1fb7aee6,67d0e69485b090a27c9dbaa3,2025-03-11_18h43.59.706,Tarea de decisión léxica,2024.2.5,Win32,144.9275362,,,,,,,,,,,,,,,,,,,,,,,97.6498,98.759,a,1,0.4515,,0.4515,1,98.76,99.2592,,,,,,342,MAS,NOWORD,AGR,150,daror,,el,,99.2593,99.2594,-0.248148106,0.104629623,0,0,0,,0,14,14,341,1,valor,,,,
,,,,,,613a70774e42055f91081fc5,676192165fb32c2e1fb7aee6,67d0e69485b090a27c9dbaa3,2025-03-11_18h43.59.706,Tarea de decisión léxica,2024.2.5,Win32,144.9275362,,,,,,,,,,,,,,,,,,,,,,,99.2614,100.3775,a,1,0.4603,,0.4603,1,100.3776,100.877,,,,,,52,FEM,NOWORD,DIS,150,mava,,el,,100.8773,100.8776,-0.248148106,0.104629623,0,0,0,,0,15,15,51,1,caja,,,,
,,,,,,613a70774e42055f91081fc5,676192165fb32c2e1fb7aee6,67d0e69485b090a27c9dbaa3,2025-03-11_18h43.59.706,Tarea de decisión léxica,2024.2.5,Win32,144.9275362,,,,,,,,,,,,,,,,,,,,,,,100.8793,102.0432,a,1,0.5104,,0.5104,1,102.0434,102.5434,,,,,,196,FEM,NOWORD,DIS,150,sira,,el,,102.5452,102.546,-0.248148106,0.104629623,0,0,0,,0,16,16,195,1,tela,,,,
,,,,,,613a70774e42055f91081fc5,676192165fb32c2e1fb7aee6,67d0e69485b090a27c9dbaa3,2025-03-11_18h43.59.706,Tarea de decisión léxica,2024.2.5,Win32,144.9275362,,,,,,,,,,,,,,,,,,,,,,,102.5465,103.46,l,0,0.2596,,0.2596,0,103.4623,103.9599,,,,,,188,MAS,NOWORD,DIS,150,suto,,la,,103.96,103.9601,-0.248148106,0.104629623,0,0,0,,0,17,17,187,1,mito,,,,
,,,,,,613a70774e42055f91081fc5,676192165fb32c2e1fb7aee6,67d0e69485b090a27c9dbaa3,2025-03-11_18h43.59.706,Tarea de decisión léxica,2024.2.5,Win32,144.9275362,,,,,,,,,,,,,,,,,,,,,,,103.9651,105.0089,l,1,0.3896,,0.3896,1,105.0104,105.5087,,,,,,443,MAS,WORD,DIS,150,salón,,la,,105.5088,105.509,-0.248148106,0.104629623,0,0,0,,0,18,18,442,1,taron,,,,
,,,,,,613a70774e42055f91081fc5,676192165fb32c2e1fb7aee6,67d0e69485b090a27c9dbaa3,2025-03-11_18h43.59.706,Tarea de decisión léxica,2024.2.5,Win32,144.9275362,,,,,,,,,,,,,,,,,,,,,,,105.5112,106.6129,l,1,0.4458,,0.4458,1,106.613,107.1126,,,,,,1,FEM,WORD,AGR,150,casa,,la,,107.1126,107.1128,-0.248148106,0.104629623,0,0,0,,0,19,19,0,1,mada,,,,
,,,,,,613a70774e42055f91081fc5,676192165fb32c2e1fb7aee6,67d0e69485b090a27c9dbaa3,2025-03-11_18h43.59.706,Tarea de decisión léxica,2024.2.5,Win32,144.9275362,,,,,,,,,,,,,,,,,,,,,,,107.1143,108.203,a,1,0.4327,,0.4327,1,108.2031,108.7027,,,,,,132,FEM,NOWORD,DIS,150,fada,,el,,108.7028,108.7028,-0.248148106,0.104629623,0,0,0,,0,20,20,131,1,mina,,,,
,,,,,,613a70774e42055f91081fc5,676192165fb32c2e1fb7aee6,67d0e69485b090a27c9dbaa3,2025-03-11_18h43.59.706,Tarea de decisión léxica,2024.2.5,Win32,144.9275362,,,,,,,,,,,,,,,,,,,,,,,108.7039,109.7592,l,1,0.4014,,0.4014,1,109.7594,110.2588,,,,,,65,MAS,WORD,AGR,150,dios,,el,,110.2614,110.2624,-0.248148106,0.104629623,0,0,0,,0,21,21,64,1,nios,,,,
,,,,,,613a70774e42055f91081fc5,676192165fb32c2e1fb7aee6,67d0e69485b090a27c9dbaa3,2025-03-11_18h43.59.706,Tarea de decisión léxica,2024.2.5,Win32,144.9275362,,,,,,,,,,,,,,,,,,,,,,,110.2634,111.4395,a,1,0.5145,,0.5145,1,111.4397,111.9393,,,,,,144,MAS,NOWORD,DIS,150,pezo,,la,,111.9393,111.9395,-0.248148106,0.104629623,0,0,0,,0,22,22,143,1,pavo,,,,
,,,,,,613a70774e42055f91081fc5,676192165fb32c2e1fb7aee6,67d0e69485b090a27c9dbaa3,2025-03-11_18h43.59.706,Tarea de decisión léxica,2024.2.5,Win32,144.9275362,,,,,,,,,,,,,,,,,,,,,,,111.941,113.1126,l,1,0.5179,,0.5179,1,113.1128,113.6129,,,,,,393,FEM,WORD,AGR,150,aldea,,la,,113.6129,113.6131,-0.248148106,0.104629623,0,0,0,,0,23,23,392,1,ashea,,,,
,,,,,,613a70774e42055f91081fc5,676192165fb32c2e1fb7aee6,67d0e69485b090a27c9dbaa3,2025-03-11_18h43.59.706,Tarea de decisión léxica,2024.2.5,Win32,144.9275362,,,,,,,,,,,,,,,,,,,,,,,113.6147,114.6755,l,1,0.4038,,0.4038,1,114.6758,115.1751,,,,,,113,FEM,WORD,AGR,150,miel,,la,,115.1752,115.1753,-0.248148106,0.104629623,0,0,0,,0,24,24,112,1,tada,,,,
,,,,,,613a70774e42055f91081fc5,676192165fb32c2e1fb7aee6,67d0e69485b090a27c9dbaa3,2025-03-11_18h43.59.706,Tarea de decisión léxica,2024.2.5,Win32,144.9275362,,,,,,,,,,,,,,,,,,,,,,,115.177,116.3486,a,1,0.5179,,0.5179,1,116.3486,116.85,,,,,,194,FEM,NOWORD,AGR,150,foda,,la,,116.85,116.8503,-0.248148106,0.104629623,0,0,0,,0,25,25,193,1,loca,,,,
,,,,,,613a70774e42055f91081fc5,676192165fb32c2e1fb7aee6,67d0e69485b090a27c9dbaa3,2025-03-11_18h43.59.706,Tarea de decisión léxica,2024.2.5,Win32,144.9275362,,,,,,,,,,,,,,,,,,,,,,,116.852,118.0818,l,1,0.5778,,0.5778,1,118.0819,118.5779,,,,,,415,FEM,WORD,DIS,150,jaula,,el,,118.5803,118.5814,-0.248148106,0.104629623,0,0,0,,0,26,26,414,1,juira,,,,
,,,,,,613a70774e42055f91081fc5,676192165fb32c2e1fb7aee6,67d0e69485b090a27c9dbaa3,2025-03-11_18h43.59.706,Tarea de decisión léxica,2024.2.5,Win32,144.9275362,,,,,,,,,,,,,,,,,,,,,,,118.5824,119.7098,a,1,0.469,,0.469,1,119.7099,120.2098,,,,,,148,FEM,NOWORD,DIS,150,pama,,el,,120.2099,120.21,-0.248148106,0.104629623,0,0,0,,0,27,27,147,1,hoja,,,,
,,,,,,613a70774e42055f91081fc5,676192165fb32c2e1fb7aee6,67d0e69485b090a27c9dbaa3,2025-03-11_18h43.59.706,Tarea de decisión léxica,2024.2.5,Win32,144.9275362,,,,,,,,,,,,,,,,,,,,,,,120.2117,121.3222,a,1,0.4576,,0.4576,1,121.3222,121.8213,,,,,,88,MAS,NOWORD,DIS,150,damo,,la,,121.8213,121.8214,-0.248148106,0.104629623,0,0,0,,0,28,28,87,1,vaso,,,,
,,,,,,613a70774e42055f91081fc5,676192165fb32c2e1fb7aee6,67d0e69485b090a27c9dbaa3,2025-03-11_18h43.59.706,Tarea de decisión léxica,2024.2.5,Win32,144.9275362,,,,,,,,,,,,,,,,,,,,,,,121.8229,122.8344,a,1,0.3583,,0.3583,1,122.8345,123.3343,,,,,,126,MAS,NOWORD,AGR,150,vudo,,el,,123.3344,123.3345,-0.248148106,0.104629623,0,0,0,,0,29,29,125,1,lujo,,,,
,,,,,,613a70774e42055f91081fc5,676192165fb32c2e1fb7aee6,67d0e69485b090a27c9dbaa3,2025-03-11_18h43.59.706,Tarea de decisión léxica,2024.2.5,Win32,144.9275362,,,,,,,,,,,,,,,,,,,,,,,123.3356,125.9806,,0,,,0.3583,-1,125.9827,126.4805,,,,,,413,FEM,WORD,AGR,150,rueda,,la,,126.4806,126.4807,-0.248148106,0.104629623,0,0,0,,0,30,30,412,1,bieda,,,,
,,,,,,613a70774e42055f91081fc5,676192165fb32c2e1fb7aee6,67d0e69485b090a27c9dbaa3,2025-03-11_18h43.59.706,Tarea de decisión léxica,2024.2.5,Win32,144.9275362,,,,,,,,,,,,,,,,,,,,,,,126.4824,127.6192,a,1,0.4798,,0.4798,1,127.6205,128.1195,,,,,,278,MAS,NOWORD,AGR,150,vuemo,,el,,128.1214,128.1228,-0.248148106,0.104629623,0,0,0,,0,31,31,277,1,fuego,,,,
,,,,,,613a70774e42055f91081fc5,676192165fb32c2e1fb7aee6,67d0e69485b090a27c9dbaa3,2025-03-11_18h43.59.706,Tarea de decisión léxica,2024.2.5,Win32,144.9275362,,,,,,,,,,,,,,,,,,,,,,,128.1238,129.2787,a,1,0.4939,,0.4939,1,129.2788,129.7791,,,,,,214,FEM,NOWORD,AGR,150,bana,,la,,129.7791,129.7793,-0.248148106,0.104629623,0,0,0,,0,32,32,213,1,rama,,,,
,,,,,,613a70774e42055f91081fc5,676192165fb32c2e1fb7aee6,67d0e69485b090a27c9dbaa3,2025-03-11_18h43.59.706,Tarea de decisión léxica,2024.2.5,Win32,144.9275362,,,,,,,,,,,,,,,,,,,,,,,129.7808,130.8274,l,1,0.3911,,0.3911,1,130.8274,131.3277,,,,,,281,MAS,WORD,AGR,150,cielo,,el,,131.328,131.3281,-0.248148106,0.104629623,0,0,0,,0,33,33,280,1,cauro,,,,
,,,,,,613a70774e42055f91081fc5,676192165fb32c2e1fb7aee6,67d0e69485b090a27c9dbaa3,2025-03-11_18h43.59.706,Tarea de decisión léxica,2024.2.5,Win32,144.9275362,,,,,,,,,,,,,,,,,,,,,,,131.3299,132.2861,a,0,0.2999,,0.2999,0,132.2874,132.786,,,,,,227,MAS,WORD,DIS,150,faro,,la,,132.7861,132.7863,-0.248148106,0.104629623,0,0,0,,0,34,34,226,1,laro,,,,
,,,,,,613a70774e42055f91081fc5,676192165fb32c2e1fb7aee6,67d0e69485b090a27c9dbaa3,2025-03-11_18h43.59.706,Tarea de decisión léxica,2024.2.5,Win32,144.9275362,,,,,,,,,,,,,,,,,,,,,,,132.7885,133.7374,a,0,0.2931,,0.2931,0,133.7375,134.2372,,,,,,365,FEM,WORD,AGR,150,ducha,,la,,134.2401,134.2415,-0.248148106,0.104629623,0,0,0,,0,35,35,364,1,gulla,,,,
,,,,,,613a70774e42055f91081fc5,676192165fb32c2e1fb7aee6,67d0e69485b090a27c9dbaa3,2025-03-11_18h43.59.706,Tarea de decisión léxica,2024.2.5,Win32,144.9275362,,,,,,,,,,,,,,,,,,,,,,,134.2429,135.2372,l,1,0.3337,,0.3337,1,135.2391,135.7376,,,,,,291,FEM,WORD,DIS,150,pista,,el,,135.7377,135.7379,-0.248148106,0.104629623,0,0,0,,0,36,36,290,1,mesta,,,,
,,,,,,613a70774e42055f91081fc5,676192165fb32c2e1fb7aee6,67d0e69485b090a27c9dbaa3,2025-03-11_18h43.59.706,Tarea de decisión léxica,2024.2.5,Win32,144.9275362,,,,,,,,,,,,,,,,,,,,,,,135.7395,136.7858,a,1,0.3891,,0.3891,1,136.7859,137.2859,,,,,,160,MAS,NOWORD,DIS,150,bilo,,la,,137.286,137.2862,-0.248148106,0.104629623,0,0,0,,0,37,37,159,1,giro,,,,
,,,,,,613a70774e42055f91081fc5,676192165fb32c2e1fb7aee6,67d0e69485b090a27c9dbaa3,2025-03-11_18h43.59.706,Tarea de decisión léxica,2024.2.5,Win32,144.9275362,,,,,,,,,,,,,,,,,,,,,,,137.2877,138.3273,a,1,0.3818,,0.3818,1,138.3275,138.8276,,,,,,312,MAS,NOWORD,DIS,150,nosor,,la,,138.8276,138.8277,-0.248148106,0.104629623,0,0,0,,0,38,38,311,1,honor,,,,
,,,,,,613a70774e42055f91081fc5,676192165fb32c2e1fb7aee6,67d0e69485b090a27c9dbaa3,2025-03-11_18h43.59.706,Tarea de decisión léxica,2024.2.5,Win32,144.9275362,,,,,,,,,,,,,,,,,,,,,,,138.83,139.8069,l,0,0.3237,,0.3237,0,139.8082,140.3069,,,,,,404,FEM,NOWORD,DIS,150,grisa,,el,,140.307,140.3072,-0.248148106,0.104629623,0,0,0,,0,39,39,403,1,prima,,,,
,,,,,,613a70774e42055f91081fc5,676192165fb32c2e1fb7aee6,67d0e69485b090a27c9dbaa3,2025-03-11_18h43.59.706,Tarea de decisión léxica,2024.2.5,Win32,144.9275362,,,,,,,,,,,,,,,,,,,,,,,140.3091,141.3065,l,1,0.3421,,0.3421,1,141.3082,141.8065,,,,,,15,FEM,WORD,DIS,150,idea,,el,,141.8092,141.8104,-0.248148106,0.104629623,0,0,0,,0,40,40,14,1,odea,,,,
,,,,,,613a70774e42055f91081fc5,676192165fb32c2e1fb7aee6,67d0e69485b090a27c9dbaa3,2025-03-11_18h43.59.706,Tarea de decisión léxica,2024.2.5,Win32,144.9275362,,,,,,,,,,,,,,,,,,,,,,,141.812,142.7716,l,1,0.2993,,0.2993,1,142.7719,143.2717,,,,,,251,MAS,WORD,DIS,150,señor,,la,,143.2719,143.272,-0.248148106,0.104629623,0,0,0,,0,41,41,250,1,refor,,,,
,,,,,,613a70774e42055f91081fc5,676192165fb32c2e1fb7aee6,67d0e69485b090a27c9dbaa3,2025-03-11_18h43.59.706,Tarea de decisión léxica,2024.2.5,Win32,144.9275362,,,,,,,,,,,,,,,,,,,,,,,143.2741,144.377,l,1,0.4498,,0.4498,1,144.3771,144.876,,,,,,261,MAS,WORD,AGR,150,sitio,,el,,144.8761,144.8762,-0.248148106,0.104629623,0,0,0,,0,42,42,260,1,titio,,,,
,,,,,,613a70774e42055f91081fc5,676192165fb32c2e1fb7aee6,67d0e69485b090a27c9dbaa3,2025-03-11_18h43.59.706,Tarea de decisión léxica,2024.2.5,Win32,144.9275362,,,,,,,,,,,,,,,,,,,,,,,144.8784,145.9039,l,1,0.3686,,0.3686,1,145.904,146.4035,,,,,,109,MAS,WORD,AGR,150,rayo,,el,,146.4036,146.4037,-0.248148106,0.104629623,0,0,0,,0,43,43,108,1,suno,,,,
,,,,,,613a70774e42055f91081fc5,676192165fb32c2e1fb7aee6,67d0e69485b090a27c9dbaa3,2025-03-11_18h43.59.706,Tarea de decisión léxica,2024.2.5,Win32,144.9275362,,,,,,,,,,,,,,,,,,,,,,,146.4058,147.5148,a,1,0.4527,,0.4527,1,147.5149,148.0147,,,,,,46,FEM,NOWORD,AGR,150,pema,,la,,148.0148,148.0149,-0.248148106,0.104629623,0,0,0,,0,44,44,45,1,mesa,,,,
,,,,,,613a70774e42055f91081fc5,676192165fb32c2e1fb7aee6,67d0e69485b090a27c9dbaa3,2025-03-11_18h43.59.706,Tarea de decisión léxica,2024.2.5,Win32,144.9275362,,,,,,,,,,,,,,,,,,,,,,,148.0163,149.2161,a,1,0.5422,,0.5422,1,149.2162,149.716,,,,,,216,FEM,NOWORD,DIS,150,raua,,el,,149.7175,149.7185,-0.248148106,0.104629623,0,0,0,,0,45,45,215,1,raíz,,,,
,,,,,,613a70774e42055f91081fc5,676192165fb32c2e1fb7aee6,67d0e69485b090a27c9dbaa3,2025-03-11_18h43.59.706,Tarea de decisión léxica,2024.2.5,Win32,144.9275362,,,,,,,,,,,,,,,,,,,,,,,149.7193,150.7924,a,1,0.4123,,0.4123,1,150.7925,151.2925,,,,,,238,MAS,NOWORD,AGR,150,huco,,el,,151.2926,151.2927,-0.248148106,0.104629623,0,0,0,,0,46,46,237,1,nudo,,,,
,,,,,,613a70774e42055f91081fc5,676192165fb32c2e1fb7aee6,67d0e69485b090a27c9dbaa3,2025-03-11_18h43.59.706,Tarea de decisión léxica,2024.2.5,Win32,144.9275362,,,,,,,,,,,,,,,,,,,,,,,151.2939,152.279,l,0,0.3281,,0.3281,0,152.2803,152.7784,,,,,,372,FEM,NOWORD,DIS,150,mosta,,el,,152.7784,152.7785,-0.248148106,0.104629623,0,0,0,,0,47,47,371,1,pasta,,,,
,,,,,,613a70774e42055f91081fc5,676192165fb32c2e1fb7aee6,67d0e69485b090a27c9dbaa3,2025-03-11_18h43.59.706,Tarea de decisión léxica,2024.2.5,Win32,144.9275362,,,,,,,,,,,,,,,,,,,,,,,152.7798,153.7649,l,1,0.3279,,0.3279,1,153.7661,154.2644,,,,,,359,MAS,WORD,DIS,150,calor,,la,,154.2645,154.2647,-0.248148106,0.104629623,0,0,0,,0,48,48,358,1,cacer,,,,
,,,,,,613a70774e42055f91081fc5,676192165fb32c2e1fb7aee6,67d0e69485b090a27c9dbaa3,2025-03-11_18h43.59.706,Tarea de decisión léxica,2024.2.5,Win32,144.9275362,,,,,,,,,,,,,,,,,,,,,,,154.2668,155.2855,l,1,0.3614,,0.3614,1,155.2856,155.7853,,,,,,75,MAS,WORD,DIS,150,olor,,la,,155.7853,155.7855,-0.248148106,0.104629623,0,0,0,,0,49,49,74,1,ocer,,,,
,,,,,,613a70774e42055f91081fc5,676192165fb32c2e1fb7aee6,67d0e69485b090a27c9dbaa3,2025-03-11_18h43.59.706,Tarea de decisión léxica,2024.2.5,Win32,144.9275362,,,,,,,,,,,,,,,,,,,,,,,155.7871,156.7657,a,1,0.3242,,0.3242,1,156.7658,157.265,,,,,,32,FEM,NOWORD,DIS,150,bova,,el,,157.2666,157.2677,-0.248148106,0.104629623,0,0,0,,0,50,50,31,1,ropa,,,,
,,,,,,613a70774e42055f91081fc5,676192165fb32c2e1fb7aee6,67d0e69485b090a27c9dbaa3,2025-03-11_18h43.59.706,Tarea de decisión léxica,2024.2.5,Win32,144.9275362,,,,,,,,,,,,,,,,,,,,,,,157.2686,158.4453,a,0,0.5152,,0.5152,0,158.4463,158.945,,,,,,275,MAS,WORD,DIS,150,punto,,la,,158.9452,158.9453,-0.248148106,0.104629623,0,0,0,,0,51,51,274,1,musto,,,,
,,,,,,613a70774e42055f91081fc5,676192165fb32c2e1fb7aee6,67d0e69485b090a27c9dbaa3,2025-03-11_18h43.59.706,Tarea de decisión léxica,2024.2.5,Win32,144.9275362,,,,,,,,,,,,,,,,,,,,,,,158.9466,160.0214,a,1,0.4192,,0.4192,1,160.0227,160.5216,,,,,,38,MAS,NOWORD,AGR,150,gaco,,el,,160.5218,160.522,-0.248148106,0.104629623,0,0,0,,0,52,52,37,1,rato,,,,
,,,,,,613a70774e42055f91081fc5,676192165fb32c2e1fb7aee6,67d0e69485b090a27c9dbaa3,2025-03-11_18h43.59.706,Tarea de decisión léxica,2024.2.5,Win32,144.9275362,,,,,,,,,,,,,,,,,,,,,,,160.5237,161.6812,a,0,0.5019,,0.5019,0,161.6828,162.1809,,,,,,29,MAS,WORD,AGR,150,modo,,el,,162.1811,162.1813,-0.248148106,0.104629623,0,0,0,,0,53,53,28,1,pono,,,,
,,,,,,613a70774e42055f91081fc5,676192165fb32c2e1fb7aee6,67d0e69485b090a27c9dbaa3,2025-03-11_18h43.59.706,Tarea de decisión léxica,2024.2.5,Win32,144.9275362,,,,,,,,,,,,,,,,,,,,,,,162.1826,163.3964,l,1,0.5575,,0.5575,1,163.3979,163.8964,,,,,,213,FEM,WORD,AGR,150,rama,,la,,163.8966,163.8968,-0.248148106,0.104629623,0,0,0,,0,54,54,212,1,bana,,,,
,,,,,,613a70774e42055f91081fc5,676192165fb32c2e1fb7aee6,67d0e69485b090a27c9dbaa3,2025-03-11_18h43.59.706,Tarea de decisión léxica,2024.2.5,Win32,144.9275362,,,,,,,,,,,,,,,,,,,,,,,163.8984,164.9588,a,1,0.405,,0.405,1,164.9589,165.4593,,,,,,458,MAS,NOWORD,AGR,150,glaco,,el,,165.4607,165.4617,-0.248148106,0.104629623,0,0,0,,0,55,55,457,1,plato,,,,
,,,,,,613a70774e42055f91081fc5,676192165fb32c2e1fb7aee6,67d0e69485b090a27c9dbaa3,2025-03-11_18h43.59.706,Tarea de decisión léxica,2024.2.5,Win32,144.9275362,,,,,,,,,,,,,,,,,,,,,,,165.4626,166.6047,l,1,0.4814,,0.4814,1,166.6048,167.1045,,,,,,169,MAS,WORD,AGR,150,cubo,,el,,167.1046,167.1047,-0.248148106,0.104629623,0,0,0,,0,56,56,168,1,mibo,,,,
,,,,,,613a70774e42055f91081fc5,676192165fb32c2e1fb7aee6,67d0e69485b090a27c9dbaa3,2025-03-11_18h43.59.706,Tarea de decisión léxica,2024.2.5,Win32,144.9275362,,,,,,,,,,,,,,,,,,,,,,,167.1061,168.0281,l,1,0.2663,,0.2663,1,168.0283,168.5282,,,,,,183,FEM,WORD,DIS,150,raya,,el,,168.5283,168.5285,-0.248148106,0.104629623,0,0,0,,0,57,57,182,1,raad,,,,
,,,,,,613a70774e42055f91081fc5,676192165fb32c2e1fb7aee6,67d0e69485b090a27c9dbaa3,2025-03-11_18h43.59.706,Tarea de decisión léxica,2024.2.5,Win32,144.9275362,,,,,,,,,,,,,,,,,,,,,,,168.5299,169.5488,a,1,0.3633,,0.3633,1,169.5489,170.0506,,,,,,86,MAS,NOWORD,AGR,150,babo,,el,,170.0506,170.0506,-0.248148106,0.104629623,0,0,0,,0,58,58,85,1,lago,,,,
,,,,,,613a70774e42055f91081fc5,676192165fb32c2e1fb7aee6,67d0e69485b090a27c9dbaa3,2025-03-11_18h43.59.706,Tarea de decisión léxica,2024.2.5,Win32,144.9275362,,,,,,,,,,,,,,,,,,,,,,,170.0532,171.0974,a,1,0.385,,0.385,1,171.0975,171.5973,,,,,,378,MAS,NOWORD,AGR,150,gaulo,,el,,171.5997,171.6007,-0.248148106,0.104629623,0,0,0,,0,59,59,377,1,hielo,,,,
,,,,,,613a70774e42055f91081fc5,676192165fb32c2e1fb7aee6,67d0e69485b090a27c9dbaa3,2025-03-11_18h43.59.706,Tarea de decisión léxica,2024.2.5,Win32,144.9275362,,,,,,,,,,,,,,,,,,,,,,,171.602,172.5555,l,1,0.2932,,0.2932,1,172.5557,173.0557,,,,,,241,MAS,WORD,AGR,150,mundo,,el,,173.0558,173.056,-0.248148106,0.104629623,0,0,0,,0,60,60,240,1,mirdo,,,,
,,,,,,613a70774e42055f91081fc5,676192165fb32c2e1fb7aee6,67d0e69485b090a27c9dbaa3,2025-03-11_18h43.59.706,Tarea de decisión léxica,2024.2.5,Win32,144.9275362,,,,,,,,,,,,,,,,,,,,,,,173.0574,174.2987,l,1,0.5842,,0.5842,1,174.2987,174.7989,,,,,,419,MAS,WORD,DIS,150,truco,,la,,174.7989,174.7991,-0.248148106,0.104629623,0,0,0,,0,61,61,418,1,chudo,,,,
,,,,,,613a70774e42055f91081fc5,676192165fb32c2e1fb7aee6,67d0e69485b090a27c9dbaa3,2025-03-11_18h43.59.706,Tarea de decisión léxica,2024.2.5,Win32,144.9275362,,,,,,,,,,,,,,,,,,,,,,,174.8014,175.8335,l,0,0.3751,,0.3751,0,175.8346,176.334,,,,,,420,MAS,NOWORD,DIS,150,chudo,,la,,176.3342,176.3343,-0.248148106,0.104629623,0,0,0,,0,62,62,419,1,truco,,,,
,,,,,,613a70774e42055f91081fc5,676192165fb32c2e1fb7aee6,67d0e69485b090a27c9dbaa3,2025-03-11_18h43.59.706,Tarea de decisión léxica,2024.2.5,Win32,144.9275362,,,,,,,,,,,,,,,,,,,,,,,176.3363,177.4586,a,1,0.4674,,0.4674,1,177.4603,177.9583,,,,,,370,MAS,NOWORD,AGR,150,rioco,,el,,177.9583,177.9585,-0.248148106,0.104629623,0,0,0,,0,63,63,369,1,ruido,,,,
,,,,,,613a70774e42055f91081fc5,676192165fb32c2e1fb7aee6,67d0e69485b090a27c9dbaa3,2025-03-11_18h43.59.706,Tarea de decisión léxica,2024.2.5,Win32,144.9275362,,,,,,,,,,,,,,,,,,,,,,,177.9599,178.9722,l,1,0.3562,,0.3562,1,178.9723,179.4724,,,,,,361,FEM,WORD,AGR,150,torre,,la,,179.4746,179.4755,-0.248148106,0.104629623,0,0,0,,0,64,64,360,1,solle,,,,
,,,,,,613a70774e42055f91081fc5,676192165fb32c2e1fb7aee6,67d0e69485b090a27c9dbaa3,2025-03-11_18h43.59.706,Tarea de decisión léxica,2024.2.5,Win32,144.9275362,,,,,,,,,,,,,,,,,,,,,,,179.4764,180.5764,l,1,0.4387,,0.4387,1,180.5767,181.0763,,,,,,473,FEM,WORD,AGR,150,feria,,la,,181.0765,181.0769,-0.248148106,0.104629623,0,0,0,,0,65,65,472,1,felia,,,,
,,,,,,613a70774e42055f91081fc5,676192165fb32c2e1fb7aee6,67d0e69485b090a27c9dbaa3,2025-03-11_18h43.59.706,Tarea de decisión léxica,2024.2.5,Win32,144.9275362,,,,,,,,,,,,,,,,,,,,,,,181.079,182.0763,a,1,0.3435,,0.3435,1,182.0764,182.5761,,,,,,212,FEM,NOWORD,DIS,150,joad,,el,,182.5762,182.5763,-0.248148106,0.104629623,0,0,0,,0,66,66,211,1,joya,,,,
,,,,,,613a70774e42055f91081fc5,676192165fb32c2e1fb7aee6,67d0e69485b090a27c9dbaa3,2025-03-11_18h43.59.706,Tarea de decisión léxica,2024.2.5,Win32,144.9275362,,,,,,,,,,,,,,,,,,,,,,,182.5773,183.7292,l,1,0.4951,,0.4951,1,183.7293,184.2293,,,,,,263,FEM,WORD,DIS,150,vista,,el,,184.2295,184.2296,-0.248148106,0.104629623,0,0,0,,0,67,67,262,1,dosta,,,,
,,,,,,613a70774e42055f91081fc5,676192165fb32c2e1fb7aee6,67d0e69485b090a27c9dbaa3,2025-03-11_18h43.59.706,Tarea de decisión léxica,2024.2.5,Win32,144.9275362,,,,,,,,,,,,,,,,,,,,,,,184.2317,185.1876,l,0,0.3005,,0.3005,0,185.1889,185.6807,,,,,,18,FEM,NOWORD,AGR,150,paba,,la,,185.6808,185.6808,-0.248148106,0.104629623,0,0,0,,0,68,68,17,1,mamá,,,,
,,,,,,613a70774e42055f91081fc5,676192165fb32c2e1fb7aee6,67d0e69485b090a27c9dbaa3,2025-03-11_18h43.59.706,Tarea de decisión léxica,2024.2.5,Win32,144.9275362,,,,,,,,,,,,,,,,,,,,,,,185.6819,186.7985,a,1,0.4562,,0.4562,1,186.7994,187.2983,,,,,,218,MAS,NOWORD,AGR,150,budo,,el,,187.2992,187.2996,-0.248148106,0.104629623,0,0,0,,0,69,69,217,1,luto,,,,
,,,,,,613a70774e42055f91081fc5,676192165fb32c2e1fb7aee6,67d0e69485b090a27c9dbaa3,2025-03-11_18h43.59.706,Tarea de decisión léxica,2024.2.5,Win32,144.9275362,,,,,,,,,,,,,,,,,,,,,,,187.3002,188.2916,l,1,0.3338,,0.3338,1,188.2917,188.792,,,,,,89,MAS,WORD,AGR,150,humo,,el,,188.792,188.7923,-0.248148106,0.104629623,0,0,0,,0,70,70,88,1,guso,,,,
,,,,,,613a70774e42055f91081fc5,676192165fb32c2e1fb7aee6,67d0e69485b090a27c9dbaa3,2025-03-11_18h43.59.706,Tarea de decisión léxica,2024.2.5,Win32,144.9275362,,,,,,,,,,,,,,,,,,,,,,,188.7942,189.8539,a,1,0.404,,0.404,1,189.854,190.3541,,,,,,330,MAS,NOWORD,AGR,150,nueno,,el,,190.3543,190.3546,-0.248148106,0.104629623,0,0,0,,0,71,71,329,1,hueso,,,,
,,,,,,613a70774e42055f91081fc5,676192165fb32c2e1fb7aee6,67d0e69485b090a27c9dbaa3,2025-03-11_18h43.59.706,Tarea de decisión léxica,2024.2.5,Win32,144.9275362,,,,,,,,,,,,,,,,,,,,,,,190.3564,191.5693,l,0,0.5574,,0.5574,0,191.5707,192.0691,,,,,,310,FEM,NOWORD,AGR,150,tirra,,la,,192.0691,192.0692,-0.248148106,0.104629623,0,0,0,,0,72,72,309,1,silla,,,,
,,,,,,613a70774e42055f91081fc5,676192165fb32c2e1fb7aee6,67d0e69485b090a27c9dbaa3,2025-03-11_18h43.59.706,Tarea de decisión léxica,2024.2.5,Win32,144.9275362,,,,,,,,,,,,,,,,,,,,,,,192.071,193.2358,a,1,0.5091,,0.5091,1,193.2369,193.7358,,,,,,100,MAS,NOWORD,DIS,150,soro,,la,,193.7358,193.736,-0.248148106,0.104629623,0,0,0,,0,73,73,99,1,lobo,,,,
,,,,,,613a70774e42055f91081fc5,676192165fb32c2e1fb7aee6,67d0e69485b090a27c9dbaa3,2025-03-11_18h43.59.706,Tarea de decisión léxica,2024.2.5,Win32,144.9275362,,,,,,,,,,,,,,,,,,,,,,,193.7377,194.7706,a,1,0.3767,,0.3767,1,194.7708,195.2708,,,,,,294,MAS,NOWORD,AGR,150,cacso,,el,,195.2723,195.2736,-0.248148106,0.104629623,0,0,0,,0,74,74,293,1,campo,,,,
,,,,,,613a70774e42055f91081fc5,676192165fb32c2e1fb7aee6,67d0e69485b090a27c9dbaa3,2025-03-11_18h43.59.706,Tarea de decisión léxica,2024.2.5,Win32,144.9275362,,,,,,,,,,,,,,,,,,,,,,,195.2748,196.3547,a,1,0.4177,,0.4177,1,196.3548,196.854,,,,,,468,MAS,NOWORD,DIS,150,peiso,,la,,196.8542,196.8546,-0.248148106,0.104629623,0,0,0,,0,75,75,467,1,piano,,,,
,,,,,,613a70774e42055f91081fc5,676192165fb32c2e1fb7aee6,67d0e69485b090a27c9dbaa3,2025-03-11_18h43.59.706,Tarea de decisión léxica,2024.2.5,Win32,144.9275362,,,,,,,,,,,,,,,,,,,,,,,196.8566,197.9101,a,1,0.3976,,0.3976,1,197.9103,198.4094,,,,,,74,MAS,NOWORD,AGR,150,omio,,el,,198.4099,198.4101,-0.248148106,0.104629623,0,0,0,,0,76,76,73,1,odio,,,,
,,,,,,613a70774e42055f91081fc5,676192165fb32c2e1fb7aee6,67d0e69485b090a27c9dbaa3,2025-03-11_18h43.59.706,Tarea de decisión léxica,2024.2.5,Win32,144.9275362,,,,,,,,,,,,,,,,,,,,,,,198.4116,199.4652,l,1,0.399,,0.399,1,199.4653,199.9654,,,,,,407,FEM,WORD,DIS,150,cueva,,el,,199.9654,199.9656,-0.248148106,0.104629623,0,0,0,,0,77,77,406,1,cauba,,,,
,,,,,,613a70774e42055f91081fc5,676192165fb32c2e1fb7aee6,67d0e69485b090a27c9dbaa3,2025-03-11_18h43.59.706,Tarea de decisión léxica,2024.2.5,Win32,144.9275362,,,,,,,,,,,,,,,,,,,,,,,199.967,200.9582,a,1,0.333,,0.333,1,200.9587,201.4585,,,,,,176,FEM,NOWORD,DIS,150,hosa,,el,,201.4587,201.4588,-0.248148106,0.104629623,0,0,0,,0,78,78,175,1,goma,,,,
,,,,,,613a70774e42055f91081fc5,676192165fb32c2e1fb7aee6,67d0e69485b090a27c9dbaa3,2025-03-11_18h43.59.706,Tarea de decisión léxica,2024.2.5,Win32,144.9275362,,,,,,,,,,,,,,,,,,,,,,,201.4599,202.4507,a,1,0.3342,,0.3342,1,202.4508,202.9507,,,,,,380,MAS,NOWORD,DIS,150,tunso,,la,,202.9526,202.9537,-0.248148106,0.104629623,0,0,0,,0,79,79,379,1,turno,,,,
,,,,,,613a70774e42055f91081fc5,676192165fb32c2e1fb7aee6,67d0e69485b090a27c9dbaa3,2025-03-11_18h43.59.706,Tarea de decisión léxica,2024.2.5,Win32,144.9275362,,,,,,,,,,,,,,,,,,,,,,,202.9546,203.8885,a,0,0.2781,,0.2781,0,203.8895,204.3884,,,,,,175,FEM,WORD,DIS,150,goma,,el,,204.3885,204.3886,-0.248148106,0.104629623,0,0,0,,0,80,80,174,1,hosa,,,,
,,,,,,613a70774e42055f91081fc5,676192165fb32c2e1fb7aee6,67d0e69485b090a27c9dbaa3,2025-03-11_18h43.59.706,Tarea de decisión léxica,2024.2.5,Win32,144.9275362,,,,,,,,,,,,,,,,,,,,,,,204.3903,205.4793,a,1,0.4319,,0.4319,1,205.4807,205.9788,,,,,,260,MAS,NOWORD,DIS,150,jaumo,,la,,205.979,205.9792,-0.248148106,0.104629623,0,0,0,,0,81,81,259,1,juego,,,,
,,,,,,613a70774e42055f91081fc5,676192165fb32c2e1fb7aee6,67d0e69485b090a27c9dbaa3,2025-03-11_18h43.59.706,Tarea de decisión léxica,2024.2.5,Win32,144.9275362,,,,,,,,,,,,,,,,,,,,,,,205.9809,206.9992,l,1,0.3634,,0.3634,1,206.9994,207.4993,,,,,,337,MAS,WORD,AGR,150,huevo,,el,,207.4994,207.4996,-0.248148106,0.104629623,0,0,0,,0,82,82,336,1,nuejo,,,,
,,,,,,613a70774e42055f91081fc5,676192165fb32c2e1fb7aee6,67d0e69485b090a27c9dbaa3,2025-03-11_18h43.59.706,Tarea de decisión léxica,2024.2.5,Win32,144.9275362,,,,,,,,,,,,,,,,,,,,,,,207.5013,208.5409,a,1,0.3838,,0.3838,1,208.5411,209.0408,,,,,,62,FEM,NOWORD,AGR,150,efla,,la,,209.042,209.0427,-0.248148106,0.104629623,0,0,0,,0,83,83,61,1,obra,,,,
,,,,,,613a70774e42055f91081fc5,676192165fb32c2e1fb7aee6,67d0e69485b090a27c9dbaa3,2025-03-11_18h43.59.706,Tarea de decisión léxica,2024.2.5,Win32,144.9275362,,,,,,,,,,,,,,,,,,,,,,,209.0436,210.0689,l,1,0.3691,,0.3691,1,210.0692,210.5689,,,,,,155,FEM,WORD,DIS,150,fuga,,el,,210.569,210.5691,-0.248148106,0.104629623,0,0,0,,0,84,84,154,1,luma,,,,
,,,,,,613a70774e42055f91081fc5,676192165fb32c2e1fb7aee6,67d0e69485b090a27c9dbaa3,2025-03-11_18h43.59.706,Tarea de decisión léxica,2024.2.5,Win32,144.9275362,,,,,,,,,,,,,,,,,,,,,,,210.5709,211.5824,a,1,0.3556,,0.3556,1,211.5825,212.0824,,,,,,104,FEM,NOWORD,DIS,150,rova,,el,,212.0826,212.0827,-0.248148106,0.104629623,0,0,0,,0,85,85,103,1,ruta,,,,
,,,,,,613a70774e42055f91081fc5,676192165fb32c2e1fb7aee6,67d0e69485b090a27c9dbaa3,2025-03-11_18h43.59.706,Tarea de decisión léxica,2024.2.5,Win32,144.9275362,,,,,,,,,,,,,,,,,,,,,,,212.0849,213.1796,l,1,0.4386,,0.4386,1,213.1797,213.6802,,,,,,225,MAS,WORD,AGR,150,lodo,,el,,213.6805,213.6807,-0.248148106,0.104629623,0,0,0,,0,86,86,224,1,boco,,,,
,,,,,,613a70774e42055f91081fc5,676192165fb32c2e1fb7aee6,67d0e69485b090a27c9dbaa3,2025-03-11_18h43.59.706,Tarea de decisión léxica,2024.2.5,Win32,144.9275362,,,,,,,,,,,,,,,,,,,,,,,213.6823,214.694,l,1,0.3547,,0.3547,1,214.6942,215.1939,,,,,,303,MAS,WORD,DIS,150,barco,,la,,215.194,215.1941,-0.248148106,0.104629623,0,0,0,,0,87,87,302,1,lanco,,,,
,,,,,,613a70774e42055f91081fc5,676192165fb32c2e1fb7aee6,67d0e69485b090a27c9dbaa3,2025-03-11_18h43.59.706,Tarea de decisión léxica,2024.2.5,Win32,144.9275362,,,,,,,,,,,,,,,,,,,,,,,215.1961,216.194,l,1,0.3406,,0.3406,1,216.1943,216.6937,,,,,,315,FEM,WORD,DIS,150,reina,,el,,216.6951,216.6972,-0.248148106,0.104629623,0,0,0,,0,88,88,314,1,riosa,,,,
,,,,,,613a70774e42055f91081fc5,676192165fb32c2e1fb7aee6,67d0e69485b090a27c9dbaa3,2025-03-11_18h43.59.706,Tarea de decisión léxica,2024.2.5,Win32,144.9275362,,,,,,,,,,,,,,,,,,,,,,,216.6981,217.7912,l,1,0.4309,,0.4309,1,217.7913,218.2911,,,,,,189,MAS,WORD,AGR,150,puño,,el,,218.2912,218.2913,-0.248148106,0.104629623,0,0,0,,0,89,89,188,1,muvo,,,,
,,,,,,613a70774e42055f91081fc5,676192165fb32c2e1fb7aee6,67d0e69485b090a27c9dbaa3,2025-03-11_18h43.59.706,Tarea de decisión léxica,2024.2.5,Win32,144.9275362,,,,,,,,,,,,,,,,,,,,,,,218.2932,219.3469,l,1,0.3983,,0.3983,1,219.347,219.8464,,,,,,85,MAS,WORD,AGR,150,lago,,el,,219.8465,219.8466,-0.248148106,0.104629623,0,0,0,,0,90,90,84,1,babo,,,,
,,,,,,613a70774e42055f91081fc5,676192165fb32c2e1fb7aee6,67d0e69485b090a27c9dbaa3,2025-03-11_18h43.59.706,Tarea de decisión léxica,2024.2.5,Win32,144.9275362,,,,,,,,,,,,,,,,,,,,,,,219.8475,220.7562,l,1,0.251,,0.251,1,220.7563,221.256,,,,,,409,MAS,WORD,AGR,150,carro,,el,,221.256,221.2562,-0.248148106,0.104629623,0,0,0,,0,91,91,408,1,pafro,,,,
,,,,,,613a70774e42055f91081fc5,676192165fb32c2e1fb7aee6,67d0e69485b090a27c9dbaa3,2025-03-11_18h43.59.706,Tarea de decisión léxica,2024.2.5,Win32,144.9275362,,,,,,,,,,,,,,,,,,,,,,,221.2579,222.2769,a,1,0.3608,,0.3608,1,222.277,222.7771,,,,,,368,MAS,NOWORD,DIS,150,rerob,,la,,222.7771,222.7772,-0.248148106,0.104629623,0,0,0,,0,92,92,367,1,reloj,,,,
,,,,,,613a70774e42055f91081fc5,676192165fb32c2e1fb7aee6,67d0e69485b090a27c9dbaa3,2025-03-11_18h43.59.706,Tarea de decisión léxica,2024.2.5,Win32,144.9275362,,,,,,,,,,,,,,,,,,,,,,,222.779,223.8121,a,0,0.376,,0.376,0,223.8133,224.3118,,,,,,417,FEM,WORD,AGR,150,barba,,la,,224.3134,224.3146,-0.248148106,0.104629623,0,0,0,,0,93,93,416,1,banja,,,,
,,,,,,613a70774e42055f91081fc5,676192165fb32c2e1fb7aee6,67d0e69485b090a27c9dbaa3,2025-03-11_18h43.59.706,Tarea de decisión léxica,2024.2.5,Win32,144.9275362,,,,,,,,,,,,,,,,,,,,,,,224.316,225.4998,a,1,0.5215,,0.5215,1,225.5009,225.9993,,,,,,348,FEM,NOWORD,DIS,150,mueza,,el,,225.9993,225.9994,-0.248148106,0.104629623,0,0,0,,0,94,94,347,1,pieza,,,,
,,,,,,613a70774e42055f91081fc5,676192165fb32c2e1fb7aee6,67d0e69485b090a27c9dbaa3,2025-03-11_18h43.59.706,Tarea de decisión léxica,2024.2.5,Win32,144.9275362,,,,,,,,,,,,,,,,,,,,,,,226.0006,227.041,l,1,0.3825,,0.3825,1,227.0412,227.541,,,,,,163,FEM,WORD,DIS,150,fama,,el,,227.5411,227.5411,-0.248148106,0.104629623,0,0,0,,0,95,95,162,1,laga,,,,
,,,,,,613a70774e42055f91081fc5,676192165fb32c2e1fb7aee6,67d0e69485b090a27c9dbaa3,2025-03-11_18h43.59.706,Tarea de decisión léxica,2024.2.5,Win32,144.9275362,,,,,,,,,,,,,,,,,,,,,,,227.5422,228.6945,l,1,0.4977,,0.4977,1,228.6946,229.1934,,,,,,461,FEM,WORD,AGR,150,tabla,,la,,229.1935,229.1937,-0.248148106,0.104629623,0,0,0,,0,96,96,460,1,pagra,,,,
,,,,,,613a70774e42055f91081fc5,676192165fb32c2e1fb7aee6,67d0e69485b090a27c9dbaa3,2025-03-11_18h43.59.706,Tarea de decisión léxica,2024.2.5,Win32,144.9275362,,,,,,,,,,,,,,,,,,,,,,,229.1952,230.228,l,1,0.3778,,0.3778,1,230.2282,230.7282,,,,,,119,MAS,WORD,DIS,150,pozo,,la,,230.7283,230.7285,-0.248148106,0.104629623,0,0,0,,0,97,97,118,1,hooy,,,,
,,,,,,613a70774e42055f91081fc5,676192165fb32c2e1fb7aee6,67d0e69485b090a27c9dbaa3,2025-03-11_18h43.59.706,Tarea de decisión léxica,2024.2.5,Win32,144.9275362,,,,,,,,,,,,,,,,,,,,,,,230.7298,231.7423,l,1,0.3549,,0.3549,1,231.7426,232.2425,,,,,,243,MAS,WORD,DIS,150,amigo,,la,,232.2445,232.2455,-0.248148106,0.104629623,0,0,0,,0,98,98,242,1,asamo,,,,
,,,,,,613a70774e42055f91081fc5,676192165fb32c2e1fb7aee6,67d0e69485b090a27c9dbaa3,2025-03-11_18h43.59.706,Tarea de decisión léxica,2024.2.5,Win32,144.9275362,,,,,,,,,,,,,,,,,,,,,,,232.2465,233.2142,l,1,0.3066,,0.3066,1,233.2143,233.7141,,,,,,157,MAS,WORD,AGR,150,nido,,el,,233.7142,233.7144,-0.248148106,0.104629623,0,0,0,,0,99,99,156,1,hico,,,,
,,,,,,613a70774e42055f91081fc5,676192165fb32c2e1fb7aee6,67d0e69485b090a27c9dbaa3,2025-03-11_18h43.59.706,Tarea de decisión léxica,2024.2.5,Win32,144.9275362,,,,,,,,,,,,,,,,,,,,,,,233.7159,234.7904,a,0,0.4172,,0.4172,0,234.7915,235.2905,,,,,,221,FEM,WORD,AGR,150,mula,,la,,235.2906,235.2908,-0.248148106,0.104629623,0,0,0,,0,100,100,220,1,puca,,,,
,,,,,,613a70774e42055f91081fc5,676192165fb32c2e1fb7aee6,67d0e69485b090a27c9dbaa3,2025-03-11_18h43.59.706,Tarea de decisión léxica,2024.2.5,Win32,144.9275362,,,,,,,,,,,,,,,,,,,,,,,235.2924,236.4924,l,1,0.5455,,0.5455,1,236.4938,236.9921,,,,,,57,MAS,WORD,AGR,150,dedo,,el,,236.9922,236.9923,-0.248148106,0.104629623,0,0,0,,0,101,101,56,1,heco,,,,
,,,,,,613a70774e42055f91081fc5,676192165fb32c2e1fb7aee6,67d0e69485b090a27c9dbaa3,2025-03-11_18h43.59.706,Tarea de decisión léxica,2024.2.5,Win32,144.9275362,,,,,,,,,,,,,,,,,,,,,,,236.9939,237.9782,l,1,0.3284,,0.3284,1,237.9784,238.478,,,,,,115,FEM,WORD,DIS,150,pata,,el,,238.4781,238.4782,-0.248148106,0.104629623,0,0,0,,0,102,102,114,1,haca,,,,
,,,,,,613a70774e42055f91081fc5,676192165fb32c2e1fb7aee6,67d0e69485b090a27c9dbaa3,2025-03-11_18h43.59.706,Tarea de decisión léxica,2024.2.5,Win32,144.9275362,,,,,,,,,,,,,,,,,,,,,,,238.4801,239.6656,a,1,0.5287,,0.5287,1,239.6658,240.1657,,,,,,390,MAS,NOWORD,AGR,150,cenco,,el,,240.1672,240.1687,-0.248148106,0.104629623,0,0,0,,0,103,103,389,1,cerdo,,,,
,,,,,,613a70774e42055f91081fc5,676192165fb32c2e1fb7aee6,67d0e69485b090a27c9dbaa3,2025-03-11_18h43.59.706,Tarea de decisión léxica,2024.2.5,Win32,144.9275362,,,,,,,,,,,,,,,,,,,,,,,240.1698,241.4435,a,1,0.6123,,0.6123,1,241.4436,241.9436,,,,,,192,FEM,NOWORD,DIS,150,bila,,el,,241.9438,241.9439,-0.248148106,0.104629623,0,0,0,,0,104,104,191,1,pila,,,,
,,,,,,613a70774e42055f91081fc5,676192165fb32c2e1fb7aee6,67d0e69485b090a27c9dbaa3,2025-03-11_18h43.59.706,Tarea de decisión léxica,2024.2.5,Win32,144.9275362,,,,,,,,,,,,,,,,,,,,,,,241.9458,243.034,l,1,0.4358,,0.4358,1,243.0341,243.5335,,,,,,137,MAS,WORD,AGR,150,nene,,el,,243.5336,243.5338,-0.248148106,0.104629623,0,0,0,,0,105,105,136,1,pamo,,,,
,,,,,,613a70774e42055f91081fc5,676192165fb32c2e1fb7aee6,67d0e69485b090a27c9dbaa3,2025-03-11_18h43.59.706,Tarea de decisión léxica,2024.2.5,Win32,144.9275362,,,,,,,,,,,,,,,,,,,,,,,243.5347,244.7699,a,1,0.5779,,0.5779,1,244.7701,245.2698,,,,,,68,FEM,NOWORD,DIS,150,gesa,,el,,245.2699,245.27,-0.248148106,0.104629623,0,0,0,,0,106,106,67,1,nena,,,,
,,,,,,613a70774e42055f91081fc5,676192165fb32c2e1fb7aee6,67d0e69485b090a27c9dbaa3,2025-03-11_18h43.59.706,Tarea de decisión léxica,2024.2.5,Win32,144.9275362,,,,,,,,,,,,,,,,,,,,,,,245.2717,246.3604,l,1,0.4329,,0.4329,1,246.3605,246.8598,,,,,,27,MAS,WORD,DIS,150,baño,,la,,246.8615,246.863,-0.248148106,0.104629623,0,0,0,,0,107,107,26,1,ravo,,,,
,,,,,,613a70774e42055f91081fc5,676192165fb32c2e1fb7aee6,67d0e69485b090a27c9dbaa3,2025-03-11_18h43.59.706,Tarea de decisión léxica,2024.2.5,Win32,144.9275362,,,,,,,,,,,,,,,,,,,,,,,246.8668,247.9662,a,1,0.4436,,0.4436,1,247.9663,248.4644,,,,,,24,FEM,NOWORD,DIS,150,giva,,el,,248.4644,248.4646,-0.248148106,0.104629623,0,0,0,,0,108,108,23,1,hija,,,,
,,,,,,613a70774e42055f91081fc5,676192165fb32c2e1fb7aee6,67d0e69485b090a27c9dbaa3,2025-03-11_18h43.59.706,Tarea de decisión léxica,2024.2.5,Win32,144.9275362,,,,,,,,,,,,,,,,,,,,,,,248.4664,249.513,l,1,0.3919,,0.3919,1,249.5132,250.0126,,,,,,7,MAS,WORD,DIS,150,hijo,,la,,250.0128,250.0129,-0.248148106,0.104629623,0,0,0,,0,109,109,6,1,nivo,,,,
,,,,,,613a70774e42055f91081fc5,676192165fb32c2e1fb7aee6,67d0e69485b090a27c9dbaa3,2025-03-11_18h43.59.706,Tarea de decisión léxica,2024.2.5,Win32,144.9275362,,,,,,,,,,,,,,,,,,,,,,,250.0148,251.1241,a,1,0.4534,,0.4534,1,251.1243,251.6239,,,,,,480,MAS,NOWORD,DIS,150,rimpo,,la,,251.624,251.6241,-0.248148106,0.104629623,0,0,0,,0,110,110,479,1,rumbo,,,,
,,,,,,613a70774e42055f91081fc5,676192165fb32c2e1fb7aee6,67d0e69485b090a27c9dbaa3,2025-03-11_18h43.59.706,Tarea de decisión léxica,2024.2.5,Win32,144.9275362,,,,,,,,,,,,,,,,,,,,,,,251.6264,252.7694,l,1,0.4798,,0.4798,1,252.7695,253.2694,,,,,,111,MAS,WORD,DIS,150,muro,,la,,253.2694,253.2696,-0.248148106,0.104629623,0,0,0,,0,111,111,110,1,siro,,,,
,,,,,,613a70774e42055f91081fc5,676192165fb32c2e1fb7aee6,67d0e69485b090a27c9dbaa3,2025-03-11_18h43.59.706,Tarea de decisión léxica,2024.2.5,Win32,144.9275362,,,,,,,,,,,,,,,,,,,,,,,253.271,254.2969,l,1,0.3702,,0.3702,1,254.2972,254.797,,,,,,97,MAS,WORD,AGR,150,mono,,el,,254.7991,254.8002,-0.248148106,0.104629623,0,0,0,,0,112,112,96,1,fopo,,,,
,,,,,,613a70774e42055f91081fc5,676192165fb32c2e1fb7aee6,67d0e69485b090a27c9dbaa3,2025-03-11_18h43.59.706,Tarea de decisión léxica,2024.2.5,Win32,144.9275362,,,,,,,,,,,,,,,,,,,,,,,254.8014,256.2207,a,1,0.7587,,0.7587,1,256.2209,256.7207,,,,,,84,FEM,NOWORD,DIS,150,taga,,el,,256.7208,256.721,-0.248148106,0.104629623,0,0,0,,0,113,113,83,1,bala,,,,
,,,,,,613a70774e42055f91081fc5,676192165fb32c2e1fb7aee6,67d0e69485b090a27c9dbaa3,2025-03-11_18h43.59.706,Tarea de decisión léxica,2024.2.5,Win32,144.9275362,,,,,,,,,,,,,,,,,,,,,,,256.7227,257.7412,a,1,0.3603,,0.3603,1,257.7414,258.2416,,,,,,394,FEM,NOWORD,AGR,150,ashea,,la,,258.2417,258.2417,-0.248148106,0.104629623,0,0,0,,0,114,114,393,1,aldea,,,,
,,,,,,613a70774e42055f91081fc5,676192165fb32c2e1fb7aee6,67d0e69485b090a27c9dbaa3,2025-03-11_18h43.59.706,Tarea de decisión léxica,2024.2.5,Win32,144.9275362,,,,,,,,,,,,,,,,,,,,,,,258.2432,259.3385,l,1,0.4382,,0.4382,1,259.3387,259.8386,,,,,,463,FEM,WORD,DIS,150,cabra,,el,,259.8387,259.8388,-0.248148106,0.104629623,0,0,0,,0,115,115,462,1,matla,,,,
,,,,,,613a70774e42055f91081fc5,676192165fb32c2e1fb7aee6,67d0e69485b090a27c9dbaa3,2025-03-11_18h43.59.706,Tarea de decisión léxica,2024.2.5,Win32,144.9275362,,,,,,,,,,,,,,,,,,,,,,,259.8399,260.9218,l,1,0.4258,,0.4258,1,260.9219,261.422,,,,,,187,MAS,WORD,DIS,150,mito,,la,,261.4221,261.4223,-0.248148106,0.104629623,0,0,0,,0,116,116,186,1,suto,,,,
,,,,,,613a70774e42055f91081fc5,676192165fb32c2e1fb7aee6,67d0e69485b090a27c9dbaa3,2025-03-11_18h43.59.706,Tarea de decisión léxica,2024.2.5,Win32,144.9275362,,,,,,,,,,,,,,,,,,,,,,,261.4236,262.4778,l,1,0.398,,0.398,1,262.4779,262.9776,,,,,,383,FEM,WORD,DIS,150,frase,,el,,262.9806,262.9818,-0.248148106,0.104629623,0,0,0,,0,117,117,382,1,brame,,,,
,,,,,,613a70774e42055f91081fc5,676192165fb32c2e1fb7aee6,67d0e69485b090a27c9dbaa3,2025-03-11_18h43.59.706,Tarea de decisión léxica,2024.2.5,Win32,144.9275362,,,,,,,,,,,,,,,,,,,,,,,262.9829,263.8805,l,1,0.2364,,0.2364,1,263.8806,264.3804,,,,,,343,FEM,WORD,DIS,150,plata,,el,,264.3806,264.3806,-0.248148106,0.104629623,0,0,0,,0,118,118,342,1,trada,,,,
,,,,,,613a70774e42055f91081fc5,676192165fb32c2e1fb7aee6,67d0e69485b090a27c9dbaa3,2025-03-11_18h43.59.706,Tarea de decisión léxica,2024.2.5,Win32,144.9275362,,,,,,,,,,,,,,,,,,,,,,,264.3824,265.2779,l,0,0.237,,0.237,0,265.2789,265.7762,,,,,,344,FEM,NOWORD,DIS,150,trada,,el,,265.7764,265.7765,-0.248148106,0.104629623,0,0,0,,0,119,119,343,1,plata,,,,
,,,,,,613a70774e42055f91081fc5,676192165fb32c2e1fb7aee6,67d0e69485b090a27c9dbaa3,2025-03-11_18h43.59.706,Tarea de decisión léxica,2024.2.5,Win32,144.9275362,,,,,,,,,,,,,,,,,,,,,,,265.7785,266.79,l,1,0.3539,,0.3539,1,266.7911,267.2899,,,,,,329,MAS,WORD,AGR,150,hueso,,el,,267.29,267.2902,-0.248148106,0.104629623,0,0,0,,0,120,120,328,1,nueno,,,,
,,,,,,613a70774e42055f91081fc5,676192165fb32c2e1fb7aee6,67d0e69485b090a27c9dbaa3,2025-03-11_18h43.59.706,Tarea de decisión léxica,2024.2.5,Win32,144.9275362,,,,,,,,,,,,,,,,,,,,,,,267.2917,268.5051,l,1,0.5567,,0.5567,1,268.5053,269.0052,,,,,,55,MAS,WORD,DIS,150,gato,,la,,269.0053,269.0054,-0.248148106,0.104629623,0,0,0,,0,121,121,54,1,jado,,,,
,,,,,,613a70774e42055f91081fc5,676192165fb32c2e1fb7aee6,67d0e69485b090a27c9dbaa3,2025-03-11_18h43.59.706,Tarea de decisión léxica,2024.2.5,Win32,144.9275362,,,,,,,,,,,,,,,,,,,,,,,269.0068,270.1094,a,1,0.4456,,0.4456,1,270.1095,270.6094,,,,,,178,MAS,NOWORD,AGR,150,bito,,el,,270.6108,270.6117,-0.248148106,0.104629623,0,0,0,,0,122,122,177,1,reto,,,,
,,,,,,613a70774e42055f91081fc5,676192165fb32c2e1fb7aee6,67d0e69485b090a27c9dbaa3,2025-03-11_18h43.59.706,Tarea de decisión léxica,2024.2.5,Win32,144.9275362,,,,,,,,,,,,,,,,,,,,,,,270.6128,271.6237,a,1,0.3487,,0.3487,1,271.6237,272.1234,,,,,,356,FEM,NOWORD,DIS,150,bepla,,el,,272.1235,272.1237,-0.248148106,0.104629623,0,0,0,,0,123,123,355,1,regla,,,,
,,,,,,613a70774e42055f91081fc5,676192165fb32c2e1fb7aee6,67d0e69485b090a27c9dbaa3,2025-03-11_18h43.59.706,Tarea de decisión léxica,2024.2.5,Win32,144.9275362,,,,,,,,,,,,,,,,,,,,,,,272.1249,273.2617,l,1,0.4807,,0.4807,1,273.2619,273.7618,,,,,,247,FEM,WORD,DIS,150,chica,,el,,273.7618,273.7621,-0.248148106,0.104629623,0,0,0,,0,124,124,246,1,trida,,,,
,,,,,,613a70774e42055f91081fc5,676192165fb32c2e1fb7aee6,67d0e69485b090a27c9dbaa3,2025-03-11_18h43.59.706,Tarea de decisión léxica,2024.2.5,Win32,144.9275362,,,,,,,,,,,,,,,,,,,,,,,273.7636,274.943,a,1,0.5203,,0.5203,1,274.9432,275.4426,,,,,,116,FEM,NOWORD,DIS,150,haca,,el,,275.4426,275.4429,-0.248148106,0.104629623,0,0,0,,0,125,125,115,1,pata,,,,
,,,,,,613a70774e42055f91081fc5,676192165fb32c2e1fb7aee6,67d0e69485b090a27c9dbaa3,2025-03-11_18h43.59.706,Tarea de decisión léxica,2024.2.5,Win32,144.9275362,,,,,,,,,,,,,,,,,,,,,,,275.4449,276.4358,l,1,0.3327,,0.3327,1,276.4359,276.9357,,,,,,371,FEM,WORD,DIS,150,pasta,,el,,276.9358,276.936,-0.248148106,0.104629623,0,0,0,,0,126,126,370,1,mosta,,,,
,,,,,,613a70774e42055f91081fc5,676192165fb32c2e1fb7aee6,67d0e69485b090a27c9dbaa3,2025-03-11_18h43.59.706,Tarea de decisión léxica,2024.2.5,Win32,144.9275362,,,,,,,,,,,,,,,,,,,,,,,276.9382,278.0259,a,1,0.4314,,0.4314,1,278.026,278.5262,,,,,,124,FEM,NOWORD,DIS,150,maba,,el,,278.528,278.5289,-0.248148106,0.104629623,0,0,0,,0,127,127,123,1,flor,,,,
,,,,,,613a70774e42055f91081fc5,676192165fb32c2e1fb7aee6,67d0e69485b090a27c9dbaa3,2025-03-11_18h43.59.706,Tarea de decisión léxica,2024.2.5,Win32,144.9275362,,,,,,,,,,,,,,,,,,,,,,,278.5298,279.63,l,0,0.4394,,0.4394,0,279.6312,280.13,,,,,,164,FEM,NOWORD,DIS,150,laga,,el,,280.13,280.1301,-0.248148106,0.104629623,0,0,0,,0,128,128,163,1,fama,,,,
,,,,,,613a70774e42055f91081fc5,676192165fb32c2e1fb7aee6,67d0e69485b090a27c9dbaa3,2025-03-11_18h43.59.706,Tarea de decisión léxica,2024.2.5,Win32,144.9275362,,,,,,,,,,,,,,,,,,,,,,,280.1317,281.1299,l,1,0.3395,,0.3395,1,281.1318,281.63,,,,,,377,MAS,WORD,AGR,150,hielo,,el,,281.6302,281.6302,-0.248148106,0.104629623,0,0,0,,0,129,129,376,1,gaulo,,,,
,,,,,,613a70774e42055f91081fc5,676192165fb32c2e1fb7aee6,67d0e69485b090a27c9dbaa3,2025-03-11_18h43.59.706,Tarea de decisión léxica,2024.2.5,Win32,144.9275362,,,,,,,,,,,,,,,,,,,,,,,281.6319,282.6994,a,1,0.41,,0.41,1,282.6996,283.1997,,,,,,158,MAS,NOWORD,AGR,150,hico,,el,,283.1997,283.1999,-0.248148106,0.104629623,0,0,0,,0,130,130,157,1,nido,,,,
,,,,,,613a70774e42055f91081fc5,676192165fb32c2e1fb7aee6,67d0e69485b090a27c9dbaa3,2025-03-11_18h43.59.706,Tarea de decisión léxica,2024.2.5,Win32,144.9275362,,,,,,,,,,,,,,,,,,,,,,,283.2014,284.3734,l,1,0.5144,,0.5144,1,284.3737,284.8726,,,,,,375,FEM,WORD,DIS,150,salsa,,el,,284.874,284.8753,-0.248148106,0.104629623,0,0,0,,0,131,131,374,1,sasna,,,,
,,,,,,613a70774e42055f91081fc5,676192165fb32c2e1fb7aee6,67d0e69485b090a27c9dbaa3,2025-03-11_18h43.59.706,Tarea de decisión léxica,2024.2.5,Win32,144.9275362,,,,,,,,,,,,,,,,,,,,,,,284.8762,285.9007,l,1,0.3629,,0.3629,1,285.9008,286.4005,,,,,,347,FEM,WORD,DIS,150,pieza,,el,,286.4006,286.4008,-0.248148106,0.104629623,0,0,0,,0,132,132,346,1,mueza,,,,
,,,,,,613a70774e42055f91081fc5,676192165fb32c2e1fb7aee6,67d0e69485b090a27c9dbaa3,2025-03-11_18h43.59.706,Tarea de decisión léxica,2024.2.5,Win32,144.9275362,,,,,,,,,,,,,,,,,,,,,,,286.4025,287.4842,a,1,0.424,,0.424,1,287.4845,287.984,,,,,,426,FEM,NOWORD,AGR,150,virca,,la,,287.9842,287.9845,-0.248148106,0.104629623,0,0,0,,0,133,133,425,1,viuda,,,,
,,,,,,613a70774e42055f91081fc5,676192165fb32c2e1fb7aee6,67d0e69485b090a27c9dbaa3,2025-03-11_18h43.59.706,Tarea de decisión léxica,2024.2.5,Win32,144.9275362,,,,,,,,,,,,,,,,,,,,,,,287.9857,289.111,a,1,0.4714,,0.4714,1,289.1111,289.6095,,,,,,90,MAS,NOWORD,AGR,150,guso,,el,,289.6095,289.6097,-0.248148106,0.104629623,0,0,0,,0,134,134,89,1,humo,,,,
,,,,,,613a70774e42055f91081fc5,676192165fb32c2e1fb7aee6,67d0e69485b090a27c9dbaa3,2025-03-11_18h43.59.706,Tarea de decisión léxica,2024.2.5,Win32,144.9275362,,,,,,,,,,,,,,,,,,,,,,,289.6115,290.6646,l,1,0.3967,,0.3967,1,290.6648,291.1648,,,,,,345,FEM,WORD,AGR,150,arena,,la,,291.1648,291.165,-0.248148106,0.104629623,0,0,0,,0,135,135,344,1,anera,,,,
,,,,,,613a70774e42055f91081fc5,676192165fb32c2e1fb7aee6,67d0e69485b090a27c9dbaa3,2025-03-11_18h43.59.706,Tarea de decisión léxica,2024.2.5,Win32,144.9275362,,,,,,,,,,,,,,,,,,,,,,,291.1669,292.2133,a,1,0.3902,,0.3902,1,292.2134,292.713,,,,,,66,MAS,NOWORD,AGR,150,nios,,el,,292.7146,292.7155,-0.248148106,0.104629623,0,0,0,,0,136,136,65,1,dios,,,,
,,,,,,613a70774e42055f91081fc5,676192165fb32c2e1fb7aee6,67d0e69485b090a27c9dbaa3,2025-03-11_18h43.59.706,Tarea de decisión léxica,2024.2.5,Win32,144.9275362,,,,,,,,,,,,,,,,,,,,,,,292.7165,293.7779,a,1,0.4009,,0.4009,1,293.778,294.2756,,,,,,262,MAS,NOWORD,AGR,150,titio,,el,,294.2757,294.2759,-0.248148106,0.104629623,0,0,0,,0,137,137,261,1,sitio,,,,
,,,,,,613a70774e42055f91081fc5,676192165fb32c2e1fb7aee6,67d0e69485b090a27c9dbaa3,2025-03-11_18h43.59.706,Tarea de decisión léxica,2024.2.5,Win32,144.9275362,,,,,,,,,,,,,,,,,,,,,,,294.2772,295.4079,a,1,0.4726,,0.4726,1,295.408,295.9079,,,,,,336,FEM,NOWORD,DIS,150,pesta,,el,,295.9079,295.9082,-0.248148106,0.104629623,0,0,0,,0,138,138,335,1,costa,,,,
,,,,,,613a70774e42055f91081fc5,676192165fb32c2e1fb7aee6,67d0e69485b090a27c9dbaa3,2025-03-11_18h43.59.706,Tarea de decisión léxica,2024.2.5,Win32,144.9275362,,,,,,,,,,,,,,,,,,,,,,,295.91,296.9835,l,1,0.4166,,0.4166,1,296.9836,297.4836,,,,,,269,MAS,WORD,AGR,150,perro,,el,,297.4836,297.4839,-0.248148106,0.104629623,0,0,0,,0,139,139,268,1,mello,,,,
,,,,,,613a70774e42055f91081fc5,676192165fb32c2e1fb7aee6,67d0e69485b090a27c9dbaa3,2025-03-11_18h43.59.706,Tarea de decisión léxica,2024.2.5,Win32,144.9275362,,,,,,,,,,,,,,,,,,,,,,,297.4858,298.6094,l,1,0.47,,0.47,1,298.6096,299.1087,,,,,,125,MAS,WORD,AGR,150,lujo,,el,,299.1088,299.1089,-0.248148106,0.104629623,0,0,0,,0,140,140,124,1,vudo,,,,
,,,,,,613a70774e42055f91081fc5,676192165fb32c2e1fb7aee6,67d0e69485b090a27c9dbaa3,2025-03-11_18h43.59.706,Tarea de decisión léxica,2024.2.5,Win32,144.9275362,,,,,,,,,,,,,,,,,,,,,,,299.1103,300.1432,a,1,0.3792,,0.3792,1,300.1434,300.6437,,,,,,56,MAS,NOWORD,DIS,150,jado,,la,,300.6452,300.6464,-0.248148106,0.104629623,0,0,0,,0,141,141,55,1,gato,,,,
,,,,,,613a70774e42055f91081fc5,676192165fb32c2e1fb7aee6,67d0e69485b090a27c9dbaa3,2025-03-11_18h43.59.706,Tarea de decisión léxica,2024.2.5,Win32,144.9275362,,,,,,,,,,,,,,,,,,,,,,,300.648,301.7064,a,1,0.3952,,0.3952,1,301.7066,302.2062,,,,,,142,FEM,NOWORD,AGR,150,sina,,la,,302.2063,302.2067,-0.248148106,0.104629623,0,0,0,,0,142,142,141,1,cruz,,,,
,,,,,,613a70774e42055f91081fc5,676192165fb32c2e1fb7aee6,67d0e69485b090a27c9dbaa3,2025-03-11_18h43.59.706,Tarea de decisión léxica,2024.2.5,Win32,144.9275362,,,,,,,,,,,,,,,,,,,,,,,302.2081,303.2435,a,1,0.3785,,0.3785,1,303.2436,303.7404,,,,,,466,FEM,NOWORD,AGR,150,asuba,,la,,303.7405,303.7407,-0.248148106,0.104629623,0,0,0,,0,143,143,465,1,aguja,,,,
,,,,,,613a70774e42055f91081fc5,676192165fb32c2e1fb7aee6,67d0e69485b090a27c9dbaa3,2025-03-11_18h43.59.706,Tarea de decisión léxica,2024.2.5,Win32,144.9275362,,,,,,,,,,,,,,,,,,,,,,,303.7422,304.782,l,1,0.3844,,0.3844,1,304.7821,305.2823,,,,,,35,MAS,WORD,DIS,150,pelo,,la,,305.2823,305.2826,-0.248148106,0.104629623,0,0,0,,0,144,144,34,1,meno,,,,
,,,,,,613a70774e42055f91081fc5,676192165fb32c2e1fb7aee6,67d0e69485b090a27c9dbaa3,2025-03-11_18h43.59.706,Tarea de decisión léxica,2024.2.5,Win32,144.9275362,,,,,,,,,,,,,,,,,,,,,,,305.2843,306.3728,l,1,0.43,,0.43,1,306.3728,306.8722,,,,,,397,FEM,WORD,AGR,150,tribu,,la,,306.8723,306.8723,-0.248148106,0.104629623,0,0,0,,0,145,145,396,1,trigi,,,,
,,,,,,613a70774e42055f91081fc5,676192165fb32c2e1fb7aee6,67d0e69485b090a27c9dbaa3,2025-03-11_18h43.59.706,Tarea de decisión léxica,2024.2.5,Win32,144.9275362,,,,,,,,,,,,,,,,,,,,,,,306.8739,308.3935,a,1,0.8663,,0.8663,1,308.3936,308.8931,,,,,,36,MAS,NOWORD,DIS,150,meno,,la,,308.8946,308.8956,-0.248148106,0.104629623,0,0,0,,0,146,146,35,1,pelo,,,,
,,,,,,613a70774e42055f91081fc5,676192165fb32c2e1fb7aee6,67d0e69485b090a27c9dbaa3,2025-03-11_18h43.59.706,Tarea de decisión léxica,2024.2.5,Win32,144.9275362,,,,,,,,,,,,,,,,,,,,,,,308.8967,310.0807,a,1,0.5241,,0.5241,1,310.0808,310.5811,,,,,,430,FEM,NOWORD,AGR,150,tenta,,la,,310.5812,310.5813,-0.248148106,0.104629623,0,0,0,,0,147,147,429,1,tarta,,,,
,,,,,,613a70774e42055f91081fc5,676192165fb32c2e1fb7aee6,67d0e69485b090a27c9dbaa3,2025-03-11_18h43.59.706,Tarea de decisión léxica,2024.2.5,Win32,144.9275362,,,,,,,,,,,,,,,,,,,,,,,310.5832,311.6571,a,1,0.4184,,0.4184,1,311.6572,312.157,,,,,,154,MAS,NOWORD,AGR,150,tado,,el,,312.1572,312.1574,-0.248148106,0.104629623,0,0,0,,0,148,148,153,1,pato,,,,
,,,,,,613a70774e42055f91081fc5,676192165fb32c2e1fb7aee6,67d0e69485b090a27c9dbaa3,2025-03-11_18h43.59.706,Tarea de decisión léxica,2024.2.5,Win32,144.9275362,,,,,,,,,,,,,,,,,,,,,,,312.1592,313.1916,l,1,0.3769,,0.3769,1,313.1919,313.6919,,,,,,293,MAS,WORD,AGR,150,campo,,el,,313.692,313.6922,-0.248148106,0.104629623,0,0,0,,0,149,149,292,1,cacso,,,,
,,,,,,613a70774e42055f91081fc5,676192165fb32c2e1fb7aee6,67d0e69485b090a27c9dbaa3,2025-03-11_18h43.59.706,Tarea de decisión léxica,2024.2.5,Win32,144.9275362,,,,,,,,,,,,,,,,,,,,,,,313.694,314.65,a,1,0.2991,,0.2991,1,314.6501,315.1504,,,,,,264,FEM,NOWORD,DIS,150,dosta,,el,,315.1505,315.1506,-0.248148106,0.104629623,0,0,0,,0,150,150,263,1,vista,,,,
,,,,,,613a70774e42055f91081fc5,676192165fb32c2e1fb7aee6,67d0e69485b090a27c9dbaa3,2025-03-11_18h43.59.706,Tarea de decisión léxica,2024.2.5,Win32,144.9275362,,,,,,,,,,,,,,,,,,,,,,,315.1525,316.143,a,1,0.3345,,0.3345,1,316.1432,316.6435,,,,,,94,FEM,NOWORD,AGR,150,rona,,la,,316.6456,316.6466,-0.248148106,0.104629623,0,0,0,,0,151,151,93,1,bola,,,,
,,,,,,613a70774e42055f91081fc5,676192165fb32c2e1fb7aee6,67d0e69485b090a27c9dbaa3,2025-03-11_18h43.59.706,Tarea de decisión léxica,2024.2.5,Win32,144.9275362,,,,,,,,,,,,,,,,,,,,,,,316.6476,317.6637,a,1,0.3547,,0.3547,1,317.6638,318.164,,,,,,244,MAS,NOWORD,DIS,150,asamo,,la,,318.1641,318.1642,-0.248148106,0.104629623,0,0,0,,0,152,152,243,1,amigo,,,,
,,,,,,613a70774e42055f91081fc5,676192165fb32c2e1fb7aee6,67d0e69485b090a27c9dbaa3,2025-03-11_18h43.59.706,Tarea de decisión léxica,2024.2.5,Win32,144.9275362,,,,,,,,,,,,,,,,,,,,,,,318.1657,319.4693,a,1,0.6484,,0.6484,1,319.4695,319.9691,,,,,,286,MAS,NOWORD,AGR,150,echor,,el,,319.9692,319.9693,-0.248148106,0.104629623,0,0,0,,0,153,153,285,1,error,,,,
,,,,,,613a70774e42055f91081fc5,676192165fb32c2e1fb7aee6,67d0e69485b090a27c9dbaa3,2025-03-11_18h43.59.706,Tarea de decisión léxica,2024.2.5,Win32,144.9275362,,,,,,,,,,,,,,,,,,,,,,,319.9708,320.9973,a,1,0.3694,,0.3694,1,320.9975,321.4975,,,,,,448,MAS,NOWORD,DIS,150,buaso,,la,,321.4976,321.4977,-0.248148106,0.104629623,0,0,0,,0,154,154,447,1,bolso,,,,
,,,,,,613a70774e42055f91081fc5,676192165fb32c2e1fb7aee6,67d0e69485b090a27c9dbaa3,2025-03-11_18h43.59.706,Tarea de decisión léxica,2024.2.5,Win32,144.9275362,,,,,,,,,,,,,,,,,,,,,,,321.4994,322.539,l,1,0.3855,,0.3855,1,322.5391,323.0392,,,,,,267,MAS,WORD,DIS,150,libro,,la,,323.0414,323.0426,-0.248148106,0.104629623,0,0,0,,0,155,155,266,1,figro,,,,
,,,,,,613a70774e42055f91081fc5,676192165fb32c2e1fb7aee6,67d0e69485b090a27c9dbaa3,2025-03-11_18h43.59.706,Tarea de decisión léxica,2024.2.5,Win32,144.9275362,,,,,,,,,,,,,,,,,,,,,,,323.0435,324.0248,a,1,0.3204,,0.3204,1,324.0249,324.5246,,,,,,118,MAS,NOWORD,AGR,150,movo,,el,,324.5246,324.5247,-0.248148106,0.104629623,0,0,0,,0,156,156,117,1,palo,,,,
,,,,,,613a70774e42055f91081fc5,676192165fb32c2e1fb7aee6,67d0e69485b090a27c9dbaa3,2025-03-11_18h43.59.706,Tarea de decisión léxica,2024.2.5,Win32,144.9275362,,,,,,,,,,,,,,,,,,,,,,,324.5266,325.5459,a,1,0.3637,,0.3637,1,325.546,326.0456,,,,,,152,MAS,NOWORD,DIS,150,sogo,,la,,326.0457,326.0458,-0.248148106,0.104629623,0,0,0,,0,157,157,151,1,tomo,,,,
,,,,,,613a70774e42055f91081fc5,676192165fb32c2e1fb7aee6,67d0e69485b090a27c9dbaa3,2025-03-11_18h43.59.706,Tarea de decisión léxica,2024.2.5,Win32,144.9275362,,,,,,,,,,,,,,,,,,,,,,,326.048,327.0523,a,1,0.3481,,0.3481,1,327.0524,327.5522,,,,,,416,FEM,NOWORD,DIS,150,juira,,el,,327.5524,327.5525,-0.248148106,0.104629623,0,0,0,,0,158,158,415,1,jaula,,,,
,,,,,,613a70774e42055f91081fc5,676192165fb32c2e1fb7aee6,67d0e69485b090a27c9dbaa3,2025-03-11_18h43.59.706,Tarea de decisión léxica,2024.2.5,Win32,144.9275362,,,,,,,,,,,,,,,,,,,,,,,327.5541,328.5941,l,1,0.3824,,0.3824,1,328.5944,329.0944,,,,,,435,MAS,WORD,DIS,150,ritmo,,la,,329.0945,329.0947,-0.248148106,0.104629623,0,0,0,,0,159,159,434,1,ricno,,,,
,,,,,,613a70774e42055f91081fc5,676192165fb32c2e1fb7aee6,67d0e69485b090a27c9dbaa3,2025-03-11_18h43.59.706,Tarea de decisión léxica,2024.2.5,Win32,144.9275362,,,,,,,,,,,,,,,,,,,,,,,329.0964,330.1147,l,1,0.3622,,0.3622,1,330.1148,330.6154,,,,,,63,FEM,WORD,DIS,150,luna,,el,,330.6173,337.4207,-0.248148106,0.104629623,0,0,0,space,0,160,160,62,1,funa,6.7811,,,
,,,,,,613a70774e42055f91081fc5,676192165fb32c2e1fb7aee6,67d0e69485b090a27c9dbaa3,2025-03-11_18h43.59.706,Tarea de decisión léxica,2024.2.5,Win32,144.9275362,,,,,,,,,,,,,,,,,,,,,,,337.4219,338.4758,l,1,0.3978,,0.3978,1,338.476,338.9759,,,,,,81,FEM,WORD,AGR,150,dama,,la,,338.9759,338.9761,-0.248148106,0.104629623,0,0,0,,0,161,161,80,1,vasa,,,,
,,,,,,613a70774e42055f91081fc5,676192165fb32c2e1fb7aee6,67d0e69485b090a27c9dbaa3,2025-03-11_18h43.59.706,Tarea de decisión léxica,2024.2.5,Win32,144.9275362,,,,,,,,,,,,,,,,,,,,,,,338.9773,339.8579,l,1,0.2241,,0.2241,1,339.858,340.3583,,,,,,457,MAS,WORD,AGR,150,plato,,el,,340.3584,340.3585,-0.248148106,0.104629623,0,0,0,,0,162,162,456,1,glaco,,,,
,,,,,,613a70774e42055f91081fc5,676192165fb32c2e1fb7aee6,67d0e69485b090a27c9dbaa3,2025-03-11_18h43.59.706,Tarea de decisión léxica,2024.2.5,Win32,144.9275362,,,,,,,,,,,,,,,,,,,,,,,340.3599,341.4132,a,1,0.3958,,0.3958,1,341.4135,341.9132,,,,,,112,MAS,NOWORD,DIS,150,siro,,la,,341.9133,341.9138,-0.248148106,0.104629623,0,0,0,,0,163,163,111,1,muro,,,,
,,,,,,613a70774e42055f91081fc5,676192165fb32c2e1fb7aee6,67d0e69485b090a27c9dbaa3,2025-03-11_18h43.59.706,Tarea de decisión léxica,2024.2.5,Win32,144.9275362,,,,,,,,,,,,,,,,,,,,,,,341.9157,342.8858,l,1,0.3173,,0.3173,1,342.8859,343.3856,,,,,,53,FEM,WORD,AGR,150,boda,,la,,343.3856,343.3857,-0.248148106,0.104629623,0,0,0,,0,164,164,52,1,rora,,,,
,,,,,,613a70774e42055f91081fc5,676192165fb32c2e1fb7aee6,67d0e69485b090a27c9dbaa3,2025-03-11_18h43.59.706,Tarea de decisión léxica,2024.2.5,Win32,144.9275362,,,,,,,,,,,,,,,,,,,,,,,343.3872,344.5589,a,1,0.5181,,0.5181,1,344.5592,345.0596,,,,,,250,FEM,NOWORD,AGR,150,plane,,la,,345.0612,345.0626,-0.248148106,0.104629623,0,0,0,,0,165,165,249,1,clase,,,,
,,,,,,613a70774e42055f91081fc5,676192165fb32c2e1fb7aee6,67d0e69485b090a27c9dbaa3,2025-03-11_18h43.59.706,Tarea de decisión léxica,2024.2.5,Win32,144.9275362,,,,,,,,,,,,,,,,,,,,,,,345.0637,346.0383,a,0,0.3131,,0.3131,0,346.0397,346.5381,,,,,,209,MAS,WORD,AGR,150,velo,,el,,346.5382,346.5385,-0.248148106,0.104629623,0,0,0,,0,166,166,208,1,dero,,,,
,,,,,,613a70774e42055f91081fc5,676192165fb32c2e1fb7aee6,67d0e69485b090a27c9dbaa3,2025-03-11_18h43.59.706,Tarea de decisión léxica,2024.2.5,Win32,144.9275362,,,,,,,,,,,,,,,,,,,,,,,346.5402,347.4136,l,1,0.2153,,0.2153,1,347.4145,347.9135,,,,,,117,MAS,WORD,AGR,150,palo,,el,,347.9136,347.9137,-0.248148106,0.104629623,0,0,0,,0,167,167,116,1,movo,,,,
,,,,,,613a70774e42055f91081fc5,676192165fb32c2e1fb7aee6,67d0e69485b090a27c9dbaa3,2025-03-11_18h43.59.706,Tarea de decisión léxica,2024.2.5,Win32,144.9275362,,,,,,,,,,,,,,,,,,,,,,,347.9151,348.9276,a,1,0.3587,,0.3587,1,348.9277,349.4274,,,,,,48,MAS,NOWORD,DIS,150,chub,,la,,349.4275,349.4276,-0.248148106,0.104629623,0,0,0,,0,168,168,47,1,club,,,,
,,,,,,613a70774e42055f91081fc5,676192165fb32c2e1fb7aee6,67d0e69485b090a27c9dbaa3,2025-03-11_18h43.59.706,Tarea de decisión léxica,2024.2.5,Win32,144.9275362,,,,,,,,,,,,,,,,,,,,,,,349.429,350.3992,l,1,0.3142,,0.3142,1,350.3993,350.8993,,,,,,83,FEM,WORD,DIS,150,bala,,el,,350.8995,350.8999,-0.248148106,0.104629623,0,0,0,,0,169,169,82,1,taga,,,,
,,,,,,613a70774e42055f91081fc5,676192165fb32c2e1fb7aee6,67d0e69485b090a27c9dbaa3,2025-03-11_18h43.59.706,Tarea de decisión léxica,2024.2.5,Win32,144.9275362,,,,,,,,,,,,,,,,,,,,,,,350.9016,351.8997,l,1,0.3433,,0.3433,1,351.8999,352.3993,,,,,,127,MAS,WORD,DIS,150,pico,,la,,352.4008,352.4023,-0.248148106,0.104629623,0,0,0,,0,170,170,126,1,itio,,,,
,,,,,,613a70774e42055f91081fc5,676192165fb32c2e1fb7aee6,67d0e69485b090a27c9dbaa3,2025-03-11_18h43.59.706,Tarea de decisión léxica,2024.2.5,Win32,144.9275362,,,,,,,,,,,,,,,,,,,,,,,352.4035,353.3576,l,1,0.2934,,0.2934,1,353.3577,353.858,,,,,,245,FEM,WORD,AGR,150,madre,,la,,353.8581,353.8581,-0.248148106,0.104629623,0,0,0,,0,171,171,244,1,pafle,,,,
,,,,,,613a70774e42055f91081fc5,676192165fb32c2e1fb7aee6,67d0e69485b090a27c9dbaa3,2025-03-11_18h43.59.706,Tarea de decisión léxica,2024.2.5,Win32,144.9275362,,,,,,,,,,,,,,,,,,,,,,,353.8601,354.8436,l,1,0.3293,,0.3293,1,354.844,355.3435,,,,,,45,FEM,WORD,AGR,150,mesa,,la,,355.3436,355.3437,-0.248148106,0.104629623,0,0,0,,0,172,172,44,1,pema,,,,
,,,,,,613a70774e42055f91081fc5,676192165fb32c2e1fb7aee6,67d0e69485b090a27c9dbaa3,2025-03-11_18h43.59.706,Tarea de decisión léxica,2024.2.5,Win32,144.9275362,,,,,,,,,,,,,,,,,,,,,,,355.345,356.3503,l,1,0.3514,,0.3514,1,356.3505,356.8505,,,,,,149,MAS,WORD,AGR,150,cabo,,el,,356.8506,356.8508,-0.248148106,0.104629623,0,0,0,,0,173,173,148,1,pafo,,,,
,,,,,,613a70774e42055f91081fc5,676192165fb32c2e1fb7aee6,67d0e69485b090a27c9dbaa3,2025-03-11_18h43.59.706,Tarea de decisión léxica,2024.2.5,Win32,144.9275362,,,,,,,,,,,,,,,,,,,,,,,356.8529,357.8089,l,1,0.303,,0.303,1,357.809,358.3093,,,,,,105,FEM,WORD,AGR,150,sopa,,la,,358.3094,358.3094,-0.248148106,0.104629623,0,0,0,,0,174,174,104,1,vina,,,,
,,,,,,613a70774e42055f91081fc5,676192165fb32c2e1fb7aee6,67d0e69485b090a27c9dbaa3,2025-03-11_18h43.59.706,Tarea de decisión léxica,2024.2.5,Win32,144.9275362,,,,,,,,,,,,,,,,,,,,,,,358.3106,359.2812,l,1,0.3142,,0.3142,1,359.2814,359.7812,,,,,,19,MAS,WORD,DIS,150,niño,,la,,359.7828,359.7839,-0.248148106,0.104629623,0,0,0,,0,175,175,18,1,himo,,,,
,,,,,,613a70774e42055f91081fc5,676192165fb32c2e1fb7aee6,67d0e69485b090a27c9dbaa3,2025-03-11_18h43.59.706,Tarea de decisión léxica,2024.2.5,Win32,144.9275362,,,,,,,,,,,,,,,,,,,,,,,359.7848,360.9059,l,1,0.4603,,0.4603,1,360.9061,361.4061,,,,,,259,MAS,WORD,DIS,150,juego,,la,,361.4062,361.4063,-0.248148106,0.104629623,0,0,0,,0,176,176,258,1,jaumo,,,,
,,,,,,613a70774e42055f91081fc5,676192165fb32c2e1fb7aee6,67d0e69485b090a27c9dbaa3,2025-03-11_18h43.59.706,Tarea de decisión léxica,2024.2.5,Win32,144.9275362,,,,,,,,,,,,,,,,,,,,,,,361.4081,362.524,l,1,0.4587,,0.4587,1,362.5244,363.0236,,,,,,49,FEM,WORD,AGR,150,edad,,la,,363.0237,363.0238,-0.248148106,0.104629623,0,0,0,,0,177,177,48,1,ecat,,,,
,,,,,,613a70774e42055f91081fc5,676192165fb32c2e1fb7aee6,67d0e69485b090a27c9dbaa3,2025-03-11_18h43.59.706,Tarea de decisión léxica,2024.2.5,Win32,144.9275362,,,,,,,,,,,,,,,,,,,,,,,363.0252,364.0929,a,1,0.4112,,0.4112,1,364.093,364.5929,,,,,,110,MAS,NOWORD,AGR,150,suno,,el,,364.593,364.5931,-0.248148106,0.104629623,0,0,0,,0,178,178,109,1,rayo,,,,
,,,,,,613a70774e42055f91081fc5,676192165fb32c2e1fb7aee6,67d0e69485b090a27c9dbaa3,2025-03-11_18h43.59.706,Tarea de decisión léxica,2024.2.5,Win32,144.9275362,,,,,,,,,,,,,,,,,,,,,,,364.5946,365.5794,l,1,0.3269,,0.3269,1,365.5795,366.0793,,,,,,477,MAS,WORD,AGR,150,botón,,el,,366.0815,366.0824,-0.248148106,0.104629623,0,0,0,,0,179,179,476,1,hocon,,,,
,,,,,,613a70774e42055f91081fc5,676192165fb32c2e1fb7aee6,67d0e69485b090a27c9dbaa3,2025-03-11_18h43.59.706,Tarea de decisión léxica,2024.2.5,Win32,144.9275362,,,,,,,,,,,,,,,,,,,,,,,366.0836,366.982,l,1,0.2392,,0.2392,1,366.9821,367.482,,,,,,423,MAS,WORD,DIS,150,queso,,la,,367.482,367.4823,-0.248148106,0.104629623,0,0,0,,0,180,180,422,1,quigo,,,,
,,,,,,613a70774e42055f91081fc5,676192165fb32c2e1fb7aee6,67d0e69485b090a27c9dbaa3,2025-03-11_18h43.59.706,Tarea de decisión léxica,2024.2.5,Win32,144.9275362,,,,,,,,,,,,,,,,,,,,,,,367.4842,368.5098,a,1,0.3682,,0.3682,1,368.5099,369.0097,,,,,,414,FEM,NOWORD,AGR,150,bieda,,la,,369.0098,369.0099,-0.248148106,0.104629623,0,0,0,,0,181,181,413,1,rueda,,,,
,,,,,,613a70774e42055f91081fc5,676192165fb32c2e1fb7aee6,67d0e69485b090a27c9dbaa3,2025-03-11_18h43.59.706,Tarea de decisión léxica,2024.2.5,Win32,144.9275362,,,,,,,,,,,,,,,,,,,,,,,369.0117,370.1345,a,1,0.469,,0.469,1,370.1347,370.6349,,,,,,398,FEM,NOWORD,AGR,150,trigi,,la,,370.6349,370.6352,-0.248148106,0.104629623,0,0,0,,0,182,182,397,1,tribu,,,,
,,,,,,613a70774e42055f91081fc5,676192165fb32c2e1fb7aee6,67d0e69485b090a27c9dbaa3,2025-03-11_18h43.59.706,Tarea de decisión léxica,2024.2.5,Win32,144.9275362,,,,,,,,,,,,,,,,,,,,,,,370.6366,371.85,l,1,0.5569,,0.5569,1,371.8503,372.3497,,,,,,43,FEM,WORD,DIS,150,pena,,el,,372.3498,372.35,-0.248148106,0.104629623,0,0,0,,0,183,183,42,1,meda,,,,
,,,,,,613a70774e42055f91081fc5,676192165fb32c2e1fb7aee6,67d0e69485b090a27c9dbaa3,2025-03-11_18h43.59.706,Tarea de decisión léxica,2024.2.5,Win32,144.9275362,,,,,,,,,,,,,,,,,,,,,,,372.3517,373.3775,a,1,0.3686,,0.3686,1,373.3777,373.8777,,,,,,184,FEM,NOWORD,DIS,150,raad,,el,,373.8791,373.8808,-0.248148106,0.104629623,0,0,0,,0,184,184,183,1,raya,,,,
,,,,,,613a70774e42055f91081fc5,676192165fb32c2e1fb7aee6,67d0e69485b090a27c9dbaa3,2025-03-11_18h43.59.706,Tarea de decisión léxica,2024.2.5,Win32,144.9275362,,,,,,,,,,,,,,,,,,,,,,,373.8818,374.9054,a,1,0.365,,0.365,1,374.9054,375.4054,,,,,,374,FEM,NOWORD,AGR,150,pogza,,la,,375.4055,375.4057,-0.248148106,0.104629623,0,0,0,,0,185,185,373,1,pizza,,,,
,,,,,,613a70774e42055f91081fc5,676192165fb32c2e1fb7aee6,67d0e69485b090a27c9dbaa3,2025-03-11_18h43.59.706,Tarea de decisión léxica,2024.2.5,Win32,144.9275362,,,,,,,,,,,,,,,,,,,,,,,375.4069,376.4609,a,1,0.3964,,0.3964,1,376.461,376.9608,,,,,,128,MAS,NOWORD,DIS,150,itio,,la,,376.9609,376.9611,-0.248148106,0.104629623,0,0,0,,0,186,186,127,1,pico,,,,
,,,,,,613a70774e42055f91081fc5,676192165fb32c2e1fb7aee6,67d0e69485b090a27c9dbaa3,2025-03-11_18h43.59.706,Tarea de decisión léxica,2024.2.5,Win32,144.9275362,,,,,,,,,,,,,,,,,,,,,,,376.9632,378.0997,a,1,0.481,,0.481,1,378.0999,378.6,,,,,,460,MAS,NOWORD,DIS,150,fraco,,la,,378.6002,378.6005,-0.248148106,0.104629623,0,0,0,,0,187,187,459,1,grado,,,,
,,,,,,613a70774e42055f91081fc5,676192165fb32c2e1fb7aee6,67d0e69485b090a27c9dbaa3,2025-03-11_18h43.59.706,Tarea de decisión léxica,2024.2.5,Win32,144.9275362,,,,,,,,,,,,,,,,,,,,,,,378.6026,379.7108,a,1,0.4555,,0.4555,1,379.711,380.2106,,,,,,30,MAS,NOWORD,AGR,150,pono,,el,,380.2107,380.2109,-0.248148106,0.104629623,0,0,0,,0,188,188,29,1,modo,,,,
,,,,,,613a70774e42055f91081fc5,676192165fb32c2e1fb7aee6,67d0e69485b090a27c9dbaa3,2025-03-11_18h43.59.706,Tarea de decisión léxica,2024.2.5,Win32,144.9275362,,,,,,,,,,,,,,,,,,,,,,,380.2129,381.3148,l,1,0.4463,,0.4463,1,381.315,381.8149,,,,,,79,FEM,WORD,DIS,150,piel,,el,,381.8172,381.8183,-0.248148106,0.104629623,0,0,0,,0,189,189,78,1,ciel,,,,
,,,,,,613a70774e42055f91081fc5,676192165fb32c2e1fb7aee6,67d0e69485b090a27c9dbaa3,2025-03-11_18h43.59.706,Tarea de decisión léxica,2024.2.5,Win32,144.9275362,,,,,,,,,,,,,,,,,,,,,,,381.8192,382.7592,l,1,0.2791,,0.2791,1,382.7593,383.2592,,,,,,367,MAS,WORD,DIS,150,reloj,,la,,383.2593,383.2594,-0.248148106,0.104629623,0,0,0,,0,190,190,366,1,rerob,,,,
,,,,,,613a70774e42055f91081fc5,676192165fb32c2e1fb7aee6,67d0e69485b090a27c9dbaa3,2025-03-11_18h43.59.706,Tarea de decisión léxica,2024.2.5,Win32,144.9275362,,,,,,,,,,,,,,,,,,,,,,,383.2618,384.2674,a,1,0.353,,0.353,1,384.2676,384.7662,,,,,,12,MAS,NOWORD,DIS,150,bapo,,la,,384.7664,384.7664,-0.248148106,0.104629623,0,0,0,,0,191,191,11,1,lado,,,,
,,,,,,613a70774e42055f91081fc5,676192165fb32c2e1fb7aee6,67d0e69485b090a27c9dbaa3,2025-03-11_18h43.59.706,Tarea de decisión léxica,2024.2.5,Win32,144.9275362,,,,,,,,,,,,,,,,,,,,,,,384.768,385.8497,l,1,0.4255,,0.4255,1,385.8499,386.3497,,,,,,307,MAS,WORD,DIS,150,hotel,,la,,386.3498,386.3504,-0.248148106,0.104629623,0,0,0,,0,192,192,306,1,holol,,,,
,,,,,,613a70774e42055f91081fc5,676192165fb32c2e1fb7aee6,67d0e69485b090a27c9dbaa3,2025-03-11_18h43.59.706,Tarea de decisión léxica,2024.2.5,Win32,144.9275362,,,,,,,,,,,,,,,,,,,,,,,386.3521,387.2523,l,1,0.244,,0.244,1,387.2524,387.7525,,,,,,231,FEM,WORD,DIS,150,bota,,el,,387.7525,387.7527,-0.248148106,0.104629623,0,0,0,,0,193,193,230,1,heta,,,,
,,,,,,613a70774e42055f91081fc5,676192165fb32c2e1fb7aee6,67d0e69485b090a27c9dbaa3,2025-03-11_18h43.59.706,Tarea de decisión léxica,2024.2.5,Win32,144.9275362,,,,,,,,,,,,,,,,,,,,,,,387.7544,388.8009,a,1,0.3905,,0.3905,1,388.801,389.3007,,,,,,324,FEM,NOWORD,DIS,150,certa,,el,,389.3025,389.3035,-0.248148106,0.104629623,0,0,0,,0,194,194,323,1,cinta,,,,
,,,,,,613a70774e42055f91081fc5,676192165fb32c2e1fb7aee6,67d0e69485b090a27c9dbaa3,2025-03-11_18h43.59.706,Tarea de decisión léxica,2024.2.5,Win32,144.9275362,,,,,,,,,,,,,,,,,,,,,,,389.3046,390.1897,a,1,0.2266,,0.2266,1,390.1899,390.6897,,,,,,202,FEM,NOWORD,AGR,150,cusa,,la,,390.69,390.6901,-0.248148106,0.104629623,0,0,0,,0,195,195,201,1,cuna,,,,
,,,,,,613a70774e42055f91081fc5,676192165fb32c2e1fb7aee6,67d0e69485b090a27c9dbaa3,2025-03-11_18h43.59.706,Tarea de decisión léxica,2024.2.5,Win32,144.9275362,,,,,,,,,,,,,,,,,,,,,,,390.6921,391.7593,a,1,0.4105,,0.4105,1,391.7594,392.2591,,,,,,102,MAS,NOWORD,AGR,150,gito,,el,,392.2591,392.2593,-0.248148106,0.104629623,0,0,0,,0,196,196,101,1,tono,,,,
,,,,,,613a70774e42055f91081fc5,676192165fb32c2e1fb7aee6,67d0e69485b090a27c9dbaa3,2025-03-11_18h43.59.706,Tarea de decisión léxica,2024.2.5,Win32,144.9275362,,,,,,,,,,,,,,,,,,,,,,,392.261,393.3143,l,1,0.3967,,0.3967,1,393.3144,393.8144,,,,,,405,FEM,WORD,AGR,150,barra,,la,,393.8145,393.8146,-0.248148106,0.104629623,0,0,0,,0,197,197,404,1,rarra,,,,
,,,,,,613a70774e42055f91081fc5,676192165fb32c2e1fb7aee6,67d0e69485b090a27c9dbaa3,2025-03-11_18h43.59.706,Tarea de decisión léxica,2024.2.5,Win32,144.9275362,,,,,,,,,,,,,,,,,,,,,,,393.8163,394.8493,a,1,0.3784,,0.3784,1,394.8495,395.3493,,,,,,332,MAS,NOWORD,DIS,150,erato,,la,,395.3494,395.3497,-0.248148106,0.104629623,0,0,0,,0,198,198,331,1,éxito,,,,
,,,,,,613a70774e42055f91081fc5,676192165fb32c2e1fb7aee6,67d0e69485b090a27c9dbaa3,2025-03-11_18h43.59.706,Tarea de decisión léxica,2024.2.5,Win32,144.9275362,,,,,,,,,,,,,,,,,,,,,,,395.3516,396.4117,a,0,0.4036,,0.4036,0,396.4129,396.9118,,,,,,73,MAS,WORD,AGR,150,odio,,el,,396.9136,396.9146,-0.248148106,0.104629623,0,0,0,,0,199,199,72,1,omio,,,,
,,,,,,613a70774e42055f91081fc5,676192165fb32c2e1fb7aee6,67d0e69485b090a27c9dbaa3,2025-03-11_18h43.59.706,Tarea de decisión léxica,2024.2.5,Win32,144.9275362,,,,,,,,,,,,,,,,,,,,,,,396.9157,397.9603,l,1,0.3839,,0.3839,1,397.9615,398.4602,,,,,,87,MAS,WORD,DIS,150,vaso,,la,,398.4603,398.4604,-0.248148106,0.104629623,0,0,0,,0,200,200,86,1,damo,,,,
,,,,,,613a70774e42055f91081fc5,676192165fb32c2e1fb7aee6,67d0e69485b090a27c9dbaa3,2025-03-11_18h43.59.706,Tarea de decisión léxica,2024.2.5,Win32,144.9275362,,,,,,,,,,,,,,,,,,,,,,,398.462,399.6066,a,1,0.4879,,0.4879,1,399.6067,400.1062,,,,,,248,FEM,NOWORD,DIS,150,trida,,el,,400.1064,400.1067,-0.248148106,0.104629623,0,0,0,,0,201,201,247,1,chica,,,,
,,,,,,613a70774e42055f91081fc5,676192165fb32c2e1fb7aee6,67d0e69485b090a27c9dbaa3,2025-03-11_18h43.59.706,Tarea de decisión léxica,2024.2.5,Win32,144.9275362,,,,,,,,,,,,,,,,,,,,,,,400.1084,401.1617,a,1,0.3964,,0.3964,1,401.1618,401.6615,,,,,,266,FEM,NOWORD,AGR,150,pitat,,la,,401.6616,401.6617,-0.248148106,0.104629623,0,0,0,,0,202,202,265,1,mitad,,,,
,,,,,,613a70774e42055f91081fc5,676192165fb32c2e1fb7aee6,67d0e69485b090a27c9dbaa3,2025-03-11_18h43.59.706,Tarea de decisión léxica,2024.2.5,Win32,144.9275362,,,,,,,,,,,,,,,,,,,,,,,401.6632,402.7032,a,0,0.3861,,0.3861,0,402.704,403.2032,,,,,,429,FEM,WORD,AGR,150,tarta,,la,,403.2051,403.2063,-0.248148106,0.104629623,0,0,0,,0,203,203,428,1,tenta,,,,
,,,,,,613a70774e42055f91081fc5,676192165fb32c2e1fb7aee6,67d0e69485b090a27c9dbaa3,2025-03-11_18h43.59.706,Tarea de decisión léxica,2024.2.5,Win32,144.9275362,,,,,,,,,,,,,,,,,,,,,,,403.2071,404.259,a,1,0.3904,,0.3904,1,404.2602,404.7591,,,,,,452,FEM,NOWORD,DIS,150,clita,,el,,404.7593,404.7594,-0.248148106,0.104629623,0,0,0,,0,204,204,451,1,fruta,,,,
,,,,,,613a70774e42055f91081fc5,676192165fb32c2e1fb7aee6,67d0e69485b090a27c9dbaa3,2025-03-11_18h43.59.706,Tarea de decisión léxica,2024.2.5,Win32,144.9275362,,,,,,,,,,,,,,,,,,,,,,,404.7616,405.8632,l,1,0.4466,,0.4466,1,405.8635,406.363,,,,,,129,MAS,WORD,AGR,150,oído,,el,,406.3632,406.3632,-0.248148106,0.104629623,0,0,0,,0,205,205,128,1,pima,,,,
,,,,,,613a70774e42055f91081fc5,676192165fb32c2e1fb7aee6,67d0e69485b090a27c9dbaa3,2025-03-11_18h43.59.706,Tarea de decisión léxica,2024.2.5,Win32,144.9275362,,,,,,,,,,,,,,,,,,,,,,,406.364,407.4323,a,1,0.4068,,0.4068,1,407.4324,407.9327,,,,,,386,FEM,NOWORD,AGR,150,febra,,la,,407.9327,407.9328,-0.248148106,0.104629623,0,0,0,,0,206,206,385,1,letra,,,,
,,,,,,613a70774e42055f91081fc5,676192165fb32c2e1fb7aee6,67d0e69485b090a27c9dbaa3,2025-03-11_18h43.59.706,Tarea de decisión léxica,2024.2.5,Win32,144.9275362,,,,,,,,,,,,,,,,,,,,,,,407.9344,408.9952,a,1,0.4037,,0.4037,1,408.9954,409.4955,,,,,,270,MAS,NOWORD,AGR,150,mello,,el,,409.4956,409.4956,-0.248148106,0.104629623,0,0,0,,0,207,207,269,1,perro,,,,
,,,,,,613a70774e42055f91081fc5,676192165fb32c2e1fb7aee6,67d0e69485b090a27c9dbaa3,2025-03-11_18h43.59.706,Tarea de decisión léxica,2024.2.5,Win32,144.9275362,,,,,,,,,,,,,,,,,,,,,,,409.4973,410.7661,a,1,0.6122,,0.6122,1,410.7663,411.2657,,,,,,240,MAS,NOWORD,DIS,150,poño,,la,,411.2671,411.2679,-0.248148106,0.104629623,0,0,0,,0,208,208,239,1,mozo,,,,
,,,,,,613a70774e42055f91081fc5,676192165fb32c2e1fb7aee6,67d0e69485b090a27c9dbaa3,2025-03-11_18h43.59.706,Tarea de decisión léxica,2024.2.5,Win32,144.9275362,,,,,,,,,,,,,,,,,,,,,,,411.2688,412.2797,l,1,0.3548,,0.3548,1,412.2799,412.7796,,,,,,223,FEM,WORD,DIS,150,cera,,el,,412.7796,412.7798,-0.248148106,0.104629623,0,0,0,,0,209,209,222,1,cira,,,,
,,,,,,613a70774e42055f91081fc5,676192165fb32c2e1fb7aee6,67d0e69485b090a27c9dbaa3,2025-03-11_18h43.59.706,Tarea de decisión léxica,2024.2.5,Win32,144.9275362,,,,,,,,,,,,,,,,,,,,,,,412.7818,413.8283,a,1,0.3913,,0.3913,1,413.8284,414.3283,,,,,,442,FEM,NOWORD,AGR,150,telza,,la,,414.3283,414.3285,-0.248148106,0.104629623,0,0,0,,0,210,210,441,1,selva,,,,
,,,,,,613a70774e42055f91081fc5,676192165fb32c2e1fb7aee6,67d0e69485b090a27c9dbaa3,2025-03-11_18h43.59.706,Tarea de decisión léxica,2024.2.5,Win32,144.9275362,,,,,,,,,,,,,,,,,,,,,,,414.33,415.2795,a,1,0.2935,,0.2935,1,415.2797,415.7796,,,,,,320,MAS,NOWORD,DIS,150,tuero,,la,,415.7798,415.78,-0.248148106,0.104629623,0,0,0,,0,211,211,319,1,suelo,,,,
,,,,,,613a70774e42055f91081fc5,676192165fb32c2e1fb7aee6,67d0e69485b090a27c9dbaa3,2025-03-11_18h43.59.706,Tarea de decisión léxica,2024.2.5,Win32,144.9275362,,,,,,,,,,,,,,,,,,,,,,,415.7821,416.8146,a,1,0.3753,,0.3753,1,416.8147,417.314,,,,,,454,FEM,NOWORD,AGR,150,pafia,,la,,417.314,417.3142,-0.248148106,0.104629623,0,0,0,,0,212,212,453,1,mafia,,,,
,,,,,,613a70774e42055f91081fc5,676192165fb32c2e1fb7aee6,67d0e69485b090a27c9dbaa3,2025-03-11_18h43.59.706,Tarea de decisión léxica,2024.2.5,Win32,144.9275362,,,,,,,,,,,,,,,,,,,,,,,417.3156,418.1897,a,1,0.2173,,0.2173,1,418.1898,418.6901,,,,,,156,FEM,NOWORD,DIS,150,luma,,el,,418.6914,418.6926,-0.248148106,0.104629623,0,0,0,,0,213,213,155,1,fuga,,,,
,,,,,,613a70774e42055f91081fc5,676192165fb32c2e1fb7aee6,67d0e69485b090a27c9dbaa3,2025-03-11_18h43.59.706,Tarea de decisión léxica,2024.2.5,Win32,144.9275362,,,,,,,,,,,,,,,,,,,,,,,418.6937,419.8147,l,1,0.4566,,0.4566,1,419.8148,420.3142,,,,,,283,MAS,WORD,DIS,150,sueño,,la,,420.3144,420.3144,-0.248148106,0.104629623,0,0,0,,0,214,214,282,1,tuevo,,,,
,,,,,,613a70774e42055f91081fc5,676192165fb32c2e1fb7aee6,67d0e69485b090a27c9dbaa3,2025-03-11_18h43.59.706,Tarea de decisión léxica,2024.2.5,Win32,144.9275362,,,,,,,,,,,,,,,,,,,,,,,420.3159,421.2935,a,1,0.3208,,0.3208,1,421.2935,421.7937,,,,,,410,MAS,NOWORD,AGR,150,pafro,,el,,421.7938,421.7939,-0.248148106,0.104629623,0,0,0,,0,215,215,409,1,carro,,,,
,,,,,,613a70774e42055f91081fc5,676192165fb32c2e1fb7aee6,67d0e69485b090a27c9dbaa3,2025-03-11_18h43.59.706,Tarea de decisión léxica,2024.2.5,Win32,144.9275362,,,,,,,,,,,,,,,,,,,,,,,421.7961,422.828,a,1,0.3756,,0.3756,1,422.8284,423.3276,,,,,,208,MAS,NOWORD,DIS,150,kedo,,la,,423.3276,423.3278,-0.248148106,0.104629623,0,0,0,,0,216,216,207,1,kilo,,,,
,,,,,,613a70774e42055f91081fc5,676192165fb32c2e1fb7aee6,67d0e69485b090a27c9dbaa3,2025-03-11_18h43.59.706,Tarea de decisión léxica,2024.2.5,Win32,144.9275362,,,,,,,,,,,,,,,,,,,,,,,423.3288,424.3512,a,1,0.3628,,0.3628,1,424.3513,424.8487,,,,,,2,FEM,NOWORD,AGR,150,mada,,la,,424.849,424.8492,-0.248148106,0.104629623,0,0,0,,0,217,217,1,1,casa,,,,
,,,,,,613a70774e42055f91081fc5,676192165fb32c2e1fb7aee6,67d0e69485b090a27c9dbaa3,2025-03-11_18h43.59.706,Tarea de decisión léxica,2024.2.5,Win32,144.9275362,,,,,,,,,,,,,,,,,,,,,,,424.8506,425.8909,l,1,0.383,,0.383,1,425.891,426.3901,,,,,,147,FEM,WORD,DIS,150,hoja,,el,,426.3922,426.3933,-0.248148106,0.104629623,0,0,0,,0,218,218,146,1,pama,,,,
,,,,,,613a70774e42055f91081fc5,676192165fb32c2e1fb7aee6,67d0e69485b090a27c9dbaa3,2025-03-11_18h43.59.706,Tarea de decisión léxica,2024.2.5,Win32,144.9275362,,,,,,,,,,,,,,,,,,,,,,,426.3943,427.6848,l,1,0.6271,,0.6271,1,427.685,428.182,,,,,,285,MAS,WORD,AGR,150,error,,el,,428.1821,428.1823,-0.248148106,0.104629623,0,0,0,,0,219,219,284,1,echor,,,,
,,,,,,613a70774e42055f91081fc5,676192165fb32c2e1fb7aee6,67d0e69485b090a27c9dbaa3,2025-03-11_18h43.59.706,Tarea de decisión léxica,2024.2.5,Win32,144.9275362,,,,,,,,,,,,,,,,,,,,,,,428.184,429.2724,l,1,0.4317,,0.4317,1,429.2725,429.7721,,,,,,399,MAS,WORD,DIS,150,techo,,la,,429.7722,429.7725,-0.248148106,0.104629623,0,0,0,,0,220,220,398,1,serro,,,,
,,,,,,613a70774e42055f91081fc5,676192165fb32c2e1fb7aee6,67d0e69485b090a27c9dbaa3,2025-03-11_18h43.59.706,Tarea de decisión léxica,2024.2.5,Win32,144.9275362,,,,,,,,,,,,,,,,,,,,,,,429.7736,430.8068,l,0,0.3788,,0.3788,0,430.808,431.3068,,,,,,200,MAS,NOWORD,DIS,150,fano,,la,,431.3069,431.307,-0.248148106,0.104629623,0,0,0,,0,221,221,199,1,lazo,,,,
,,,,,,613a70774e42055f91081fc5,676192165fb32c2e1fb7aee6,67d0e69485b090a27c9dbaa3,2025-03-11_18h43.59.706,Tarea de decisión léxica,2024.2.5,Win32,144.9275362,,,,,,,,,,,,,,,,,,,,,,,431.3089,432.335,l,0,0.3706,,0.3706,0,432.3352,432.8347,,,,,,26,FEM,NOWORD,AGR,150,paza,,la,,432.8347,432.8349,-0.248148106,0.104629623,0,0,0,,0,222,222,25,1,cama,,,,
,,,,,,613a70774e42055f91081fc5,676192165fb32c2e1fb7aee6,67d0e69485b090a27c9dbaa3,2025-03-11_18h43.59.706,Tarea de decisión léxica,2024.2.5,Win32,144.9275362,,,,,,,,,,,,,,,,,,,,,,,432.8367,433.8279,l,1,0.3338,,0.3338,1,433.8293,434.328,,,,,,51,FEM,WORD,DIS,150,caja,,el,,434.3296,434.3305,-0.248148106,0.104629623,0,0,0,,0,223,223,50,1,mava,,,,
,,,,,,613a70774e42055f91081fc5,676192165fb32c2e1fb7aee6,67d0e69485b090a27c9dbaa3,2025-03-11_18h43.59.706,Tarea de decisión léxica,2024.2.5,Win32,144.9275362,,,,,,,,,,,,,,,,,,,,,,,434.3317,435.3907,l,1,0.3972,,0.3972,1,435.3909,435.8905,,,,,,273,FEM,WORD,AGR,150,broma,,la,,435.8906,435.8907,-0.248148106,0.104629623,0,0,0,,0,224,224,272,1,frosa,,,,
,,,,,,613a70774e42055f91081fc5,676192165fb32c2e1fb7aee6,67d0e69485b090a27c9dbaa3,2025-03-11_18h43.59.706,Tarea de decisión léxica,2024.2.5,Win32,144.9275362,,,,,,,,,,,,,,,,,,,,,,,435.8926,436.8835,a,1,0.3373,,0.3373,1,436.8836,437.3832,,,,,,72,FEM,NOWORD,DIS,150,urla,,el,,437.3833,437.3833,-0.248148106,0.104629623,0,0,0,,0,225,225,71,1,isla,,,,
,,,,,,613a70774e42055f91081fc5,676192165fb32c2e1fb7aee6,67d0e69485b090a27c9dbaa3,2025-03-11_18h43.59.706,Tarea de decisión léxica,2024.2.5,Win32,144.9275362,,,,,,,,,,,,,,,,,,,,,,,437.3846,438.4667,a,1,0.4239,,0.4239,1,438.4669,438.9668,,,,,,136,MAS,NOWORD,DIS,150,geso,,la,,438.9668,438.9669,-0.248148106,0.104629623,0,0,0,,0,226,226,135,1,tubo,,,,
,,,,,,613a70774e42055f91081fc5,676192165fb32c2e1fb7aee6,67d0e69485b090a27c9dbaa3,2025-03-11_18h43.59.706,Tarea de decisión léxica,2024.2.5,Win32,144.9275362,,,,,,,,,,,,,,,,,,,,,,,438.9683,440.2373,a,1,0.6099,,0.6099,1,440.2374,440.7375,,,,,,134,FEM,NOWORD,AGR,150,vesa,,la,,440.7397,440.7411,-0.248148106,0.104629623,0,0,0,,0,227,227,133,1,vaca,,,,
,,,,,,613a70774e42055f91081fc5,676192165fb32c2e1fb7aee6,67d0e69485b090a27c9dbaa3,2025-03-11_18h43.59.706,Tarea de decisión léxica,2024.2.5,Win32,144.9275362,,,,,,,,,,,,,,,,,,,,,,,440.7423,441.8693,a,1,0.4672,,0.4672,1,441.8695,442.3624,,,,,,322,MAS,NOWORD,AGR,150,rarco,,el,,442.3626,442.3627,-0.248148106,0.104629623,0,0,0,,0,228,228,321,1,banco,,,,
,,,,,,613a70774e42055f91081fc5,676192165fb32c2e1fb7aee6,67d0e69485b090a27c9dbaa3,2025-03-11_18h43.59.706,Tarea de decisión léxica,2024.2.5,Win32,144.9275362,,,,,,,,,,,,,,,,,,,,,,,442.3645,443.519,l,1,0.4925,,0.4925,1,443.5191,444.0183,,,,,,355,FEM,WORD,DIS,150,regla,,el,,444.0184,444.0186,-0.248148106,0.104629623,0,0,0,,0,229,229,354,1,bepla,,,,
,,,,,,613a70774e42055f91081fc5,676192165fb32c2e1fb7aee6,67d0e69485b090a27c9dbaa3,2025-03-11_18h43.59.706,Tarea de decisión léxica,2024.2.5,Win32,144.9275362,,,,,,,,,,,,,,,,,,,,,,,444.0198,444.9873,l,1,0.3065,,0.3065,1,444.9874,445.4877,,,,,,387,FEM,WORD,DIS,150,crema,,el,,445.4877,445.488,-0.248148106,0.104629623,0,0,0,,0,230,230,386,1,bresa,,,,
,,,,,,613a70774e42055f91081fc5,676192165fb32c2e1fb7aee6,67d0e69485b090a27c9dbaa3,2025-03-11_18h43.59.706,Tarea de decisión léxica,2024.2.5,Win32,144.9275362,,,,,,,,,,,,,,,,,,,,,,,445.4897,446.648,l,1,0.5044,,0.5044,1,446.6481,447.1467,,,,,,389,MAS,WORD,AGR,150,cerdo,,el,,447.1468,447.1469,-0.248148106,0.104629623,0,0,0,,0,231,231,388,1,cenco,,,,
,,,,,,613a70774e42055f91081fc5,676192165fb32c2e1fb7aee6,67d0e69485b090a27c9dbaa3,2025-03-11_18h43.59.706,Tarea de decisión léxica,2024.2.5,Win32,144.9275362,,,,,,,,,,,,,,,,,,,,,,,447.1481,448.1745,a,1,0.3667,,0.3667,1,448.1746,448.6749,,,,,,318,FEM,NOWORD,AGR,150,plaad,,la,,448.6767,448.6781,-0.248148106,0.104629623,0,0,0,,0,232,232,317,1,playa,,,,
,,,,,,613a70774e42055f91081fc5,676192165fb32c2e1fb7aee6,67d0e69485b090a27c9dbaa3,2025-03-11_18h43.59.706,Tarea de decisión léxica,2024.2.5,Win32,144.9275362,,,,,,,,,,,,,,,,,,,,,,,448.6791,449.9452,a,0,0.605,,0.605,0,449.9462,450.4454,,,,,,153,MAS,WORD,AGR,150,pato,,el,,450.4455,450.4457,-0.248148106,0.104629623,0,0,0,,0,233,233,152,1,tado,,,,
,,,,,,613a70774e42055f91081fc5,676192165fb32c2e1fb7aee6,67d0e69485b090a27c9dbaa3,2025-03-11_18h43.59.706,Tarea de decisión léxica,2024.2.5,Win32,144.9275362,,,,,,,,,,,,,,,,,,,,,,,450.4477,451.5431,l,1,0.4378,,0.4378,1,451.5446,452.0429,,,,,,459,MAS,WORD,DIS,150,grado,,la,,452.0429,452.0433,-0.248148106,0.104629623,0,0,0,,0,234,234,458,1,fraco,,,,
,,,,,,613a70774e42055f91081fc5,676192165fb32c2e1fb7aee6,67d0e69485b090a27c9dbaa3,2025-03-11_18h43.59.706,Tarea de decisión léxica,2024.2.5,Win32,144.9275362,,,,,,,,,,,,,,,,,,,,,,,452.0452,453.0978,l,1,0.3948,,0.3948,1,453.0979,453.5991,,,,,,425,FEM,WORD,AGR,150,viuda,,la,,453.5991,453.5992,-0.248148106,0.104629623,0,0,0,,0,235,235,424,1,virca,,,,
,,,,,,613a70774e42055f91081fc5,676192165fb32c2e1fb7aee6,67d0e69485b090a27c9dbaa3,2025-03-11_18h43.59.706,Tarea de decisión léxica,2024.2.5,Win32,144.9275362,,,,,,,,,,,,,,,,,,,,,,,453.6003,454.6056,a,0,0.3485,,0.3485,0,454.6067,455.1055,,,,,,151,MAS,WORD,DIS,150,tomo,,la,,455.1055,455.1056,-0.248148106,0.104629623,0,0,0,,0,236,236,150,1,sogo,,,,
,,,,,,613a70774e42055f91081fc5,676192165fb32c2e1fb7aee6,67d0e69485b090a27c9dbaa3,2025-03-11_18h43.59.706,Tarea de decisión léxica,2024.2.5,Win32,144.9275362,,,,,,,,,,,,,,,,,,,,,,,455.1072,456.0289,l,1,0.2649,,0.2649,1,456.0314,456.5288,,,,,,363,FEM,WORD,DIS,150,deuda,,el,,456.531,456.5322,-0.248148106,0.104629623,0,0,0,,0,237,237,362,1,veida,,,,
,,,,,,613a70774e42055f91081fc5,676192165fb32c2e1fb7aee6,67d0e69485b090a27c9dbaa3,2025-03-11_18h43.59.706,Tarea de decisión léxica,2024.2.5,Win32,144.9275362,,,,,,,,,,,,,,,,,,,,,,,456.5343,457.4731,l,1,0.279,,0.279,1,457.4732,457.9731,,,,,,185,MAS,WORD,AGR,150,baúl,,el,,457.9732,457.9733,-0.248148106,0.104629623,0,0,0,,0,238,238,184,1,raol,,,,
,,,,,,613a70774e42055f91081fc5,676192165fb32c2e1fb7aee6,67d0e69485b090a27c9dbaa3,2025-03-11_18h43.59.706,Tarea de decisión léxica,2024.2.5,Win32,144.9275362,,,,,,,,,,,,,,,,,,,,,,,457.975,458.7999,l,0,0.1678,,0.1678,0,458.801,459.2999,,,,,,422,MAS,NOWORD,AGR,150,griso,,el,,459.3,459.3001,-0.248148106,0.104629623,0,0,0,,0,239,239,421,1,primo,,,,
,,,,,,613a70774e42055f91081fc5,676192165fb32c2e1fb7aee6,67d0e69485b090a27c9dbaa3,2025-03-11_18h43.59.706,Tarea de decisión léxica,2024.2.5,Win32,144.9275362,,,,,,,,,,,,,,,,,,,,,,,459.3019,460.3134,l,0,0.3554,,0.3554,0,460.3135,460.8131,,,,,,138,MAS,NOWORD,AGR,150,pamo,,el,,460.8132,460.8134,-0.248148106,0.104629623,0,0,0,,0,240,240,137,1,nene,,,,
,,,,,,613a70774e42055f91081fc5,676192165fb32c2e1fb7aee6,67d0e69485b090a27c9dbaa3,2025-03-11_18h43.59.706,Tarea de decisión léxica,2024.2.5,Win32,144.9275362,,,,,,,,,,,,,,,,,,,,,,,460.815,461.8827,l,1,0.4118,,0.4118,1,461.8842,462.3827,,,,,,471,FEM,WORD,DIS,150,grasa,,el,,462.3829,462.3832,-0.248148106,0.104629623,0,0,0,,0,241,241,470,1,prana,,,,
,,,,,,613a70774e42055f91081fc5,676192165fb32c2e1fb7aee6,67d0e69485b090a27c9dbaa3,2025-03-11_18h43.59.706,Tarea de decisión léxica,2024.2.5,Win32,144.9275362,,,,,,,,,,,,,,,,,,,,,,,462.3845,463.4104,a,0,0.3692,,0.3692,0,463.4115,463.9103,,,,,,161,MAS,WORD,AGR,150,coro,,el,,463.9117,463.9132,-0.248148106,0.104629623,0,0,0,,0,242,242,160,1,bopo,,,,
,,,,,,613a70774e42055f91081fc5,676192165fb32c2e1fb7aee6,67d0e69485b090a27c9dbaa3,2025-03-11_18h43.59.706,Tarea de decisión léxica,2024.2.5,Win32,144.9275362,,,,,,,,,,,,,,,,,,,,,,,463.9144,464.8757,l,1,0.2996,,0.2996,1,464.877,465.3758,,,,,,25,FEM,WORD,AGR,150,cama,,la,,465.3759,465.3759,-0.248148106,0.104629623,0,0,0,,0,243,243,24,1,paza,,,,
,,,,,,613a70774e42055f91081fc5,676192165fb32c2e1fb7aee6,67d0e69485b090a27c9dbaa3,2025-03-11_18h43.59.706,Tarea de decisión léxica,2024.2.5,Win32,144.9275362,,,,,,,,,,,,,,,,,,,,,,,465.3773,466.4384,a,1,0.404,,0.404,1,466.4387,466.9389,,,,,,182,FEM,NOWORD,AGR,150,teda,,la,,466.939,466.9392,-0.248148106,0.104629623,0,0,0,,0,244,244,181,1,seda,,,,
,,,,,,613a70774e42055f91081fc5,676192165fb32c2e1fb7aee6,67d0e69485b090a27c9dbaa3,2025-03-11_18h43.59.706,Tarea de decisión léxica,2024.2.5,Win32,144.9275362,,,,,,,,,,,,,,,,,,,,,,,466.9406,468.0498,l,1,0.4538,,0.4538,1,468.0499,468.5498,,,,,,133,FEM,WORD,AGR,150,vaca,,la,,468.5498,468.5501,-0.248148106,0.104629623,0,0,0,,0,245,245,132,1,vesa,,,,
,,,,,,613a70774e42055f91081fc5,676192165fb32c2e1fb7aee6,67d0e69485b090a27c9dbaa3,2025-03-11_18h43.59.706,Tarea de decisión léxica,2024.2.5,Win32,144.9275362,,,,,,,,,,,,,,,,,,,,,,,468.5517,469.5284,l,1,0.323,,0.323,1,469.5288,470.0285,,,,,,333,FEM,WORD,AGR,150,tarea,,la,,470.029,470.0292,-0.248148106,0.104629623,0,0,0,,0,246,246,332,1,dalea,,,,
,,,,,,613a70774e42055f91081fc5,676192165fb32c2e1fb7aee6,67d0e69485b090a27c9dbaa3,2025-03-11_18h43.59.706,Tarea de decisión léxica,2024.2.5,Win32,144.9275362,,,,,,,,,,,,,,,,,,,,,,,470.031,471.0218,a,1,0.3343,,0.3343,1,471.0219,471.521,,,,,,354,FEM,NOWORD,AGR,150,cezca,,la,,471.5226,471.5234,-0.248148106,0.104629623,0,0,0,,0,247,247,353,1,celda,,,,
,,,,,,613a70774e42055f91081fc5,676192165fb32c2e1fb7aee6,67d0e69485b090a27c9dbaa3,2025-03-11_18h43.59.706,Tarea de decisión léxica,2024.2.5,Win32,144.9275362,,,,,,,,,,,,,,,,,,,,,,,471.5243,472.501,a,1,0.313,,0.313,1,472.5012,473.0011,,,,,,358,FEM,NOWORD,AGR,150,gruba,,la,,473.0013,473.0014,-0.248148106,0.104629623,0,0,0,,0,248,248,357,1,bruja,,,,
,,,,,,613a70774e42055f91081fc5,676192165fb32c2e1fb7aee6,67d0e69485b090a27c9dbaa3,2025-03-11_18h43.59.706,Tarea de decisión léxica,2024.2.5,Win32,144.9275362,,,,,,,,,,,,,,,,,,,,,,,473.0027,474.001,a,1,0.3404,,0.3404,1,474.0012,474.5006,,,,,,42,FEM,NOWORD,AGR,150,haje,,la,,474.5009,474.501,-0.248148106,0.104629623,0,0,0,,0,249,249,41,1,nave,,,,
,,,,,,613a70774e42055f91081fc5,676192165fb32c2e1fb7aee6,67d0e69485b090a27c9dbaa3,2025-03-11_18h43.59.706,Tarea de decisión léxica,2024.2.5,Win32,144.9275362,,,,,,,,,,,,,,,,,,,,,,,474.5031,475.4938,a,0,0.3352,,0.3352,0,475.4952,475.9939,,,,,,203,FEM,WORD,DIS,150,leña,,el,,475.994,475.9941,-0.248148106,0.104629623,0,0,0,,0,250,250,202,1,beja,,,,
,,,,,,613a70774e42055f91081fc5,676192165fb32c2e1fb7aee6,67d0e69485b090a27c9dbaa3,2025-03-11_18h43.59.706,Tarea de decisión léxica,2024.2.5,Win32,144.9275362,,,,,,,,,,,,,,,,,,,,,,,475.9956,477.0846,l,1,0.4333,,0.4333,1,477.0857,477.5836,,,,,,439,FEM,WORD,DIS,150,presa,,el,,477.5851,477.5862,-0.248148106,0.104629623,0,0,0,,0,251,251,438,1,prema,,,,
,,,,,,613a70774e42055f91081fc5,676192165fb32c2e1fb7aee6,67d0e69485b090a27c9dbaa3,2025-03-11_18h43.59.706,Tarea de decisión léxica,2024.2.5,Win32,144.9275362,,,,,,,,,,,,,,,,,,,,,,,477.587,478.5774,l,1,0.3342,,0.3342,1,478.5774,479.0772,,,,,,299,FEM,WORD,DIS,150,bolsa,,el,,479.0775,479.0777,-0.248148106,0.104629623,0,0,0,,0,252,252,298,1,bosga,,,,
,,,,,,613a70774e42055f91081fc5,676192165fb32c2e1fb7aee6,67d0e69485b090a27c9dbaa3,2025-03-11_18h43.59.706,Tarea de decisión léxica,2024.2.5,Win32,144.9275362,,,,,,,,,,,,,,,,,,,,,,,479.0794,479.9729,a,1,0.2396,,0.2396,1,479.973,480.4722,,,,,,338,MAS,NOWORD,AGR,150,nuejo,,el,,480.4722,480.4724,-0.248148106,0.104629623,0,0,0,,0,253,253,337,1,huevo,,,,
,,,,,,613a70774e42055f91081fc5,676192165fb32c2e1fb7aee6,67d0e69485b090a27c9dbaa3,2025-03-11_18h43.59.706,Tarea de decisión léxica,2024.2.5,Win32,144.9275362,,,,,,,,,,,,,,,,,,,,,,,480.4734,481.4655,l,1,0.3342,,0.3342,1,481.4656,481.9657,,,,,,123,FEM,WORD,DIS,150,flor,,el,,481.9658,481.9659,-0.248148106,0.104629623,0,0,0,,0,254,254,122,1,maba,,,,
,,,,,,613a70774e42055f91081fc5,676192165fb32c2e1fb7aee6,67d0e69485b090a27c9dbaa3,2025-03-11_18h43.59.706,Tarea de decisión léxica,2024.2.5,Win32,144.9275362,,,,,,,,,,,,,,,,,,,,,,,481.9674,483.2085,a,1,0.5828,,0.5828,1,483.2086,483.7083,,,,,,78,MAS,NOWORD,AGR,150,fodo,,el,,483.7083,483.7084,-0.248148106,0.104629623,0,0,0,,0,255,255,77,1,loco,,,,
,,,,,,613a70774e42055f91081fc5,676192165fb32c2e1fb7aee6,67d0e69485b090a27c9dbaa3,2025-03-11_18h43.59.706,Tarea de decisión léxica,2024.2.5,Win32,144.9275362,,,,,,,,,,,,,,,,,,,,,,,483.7094,484.7022,l,1,0.3382,,0.3382,1,484.7023,485.2017,,,,,,165,FEM,WORD,AGR,150,vela,,la,,485.2037,485.2049,-0.248148106,0.104629623,0,0,0,,0,256,256,164,1,dera,,,,
,,,,,,613a70774e42055f91081fc5,676192165fb32c2e1fb7aee6,67d0e69485b090a27c9dbaa3,2025-03-11_18h43.59.706,Tarea de decisión léxica,2024.2.5,Win32,144.9275362,,,,,,,,,,,,,,,,,,,,,,,485.206,486.1181,l,1,0.2531,,0.2531,1,486.1183,486.6185,,,,,,449,FEM,WORD,AGR,150,pluma,,la,,486.6187,486.6188,-0.248148106,0.104629623,0,0,0,,0,257,257,448,1,crusa,,,,
,,,,,,613a70774e42055f91081fc5,676192165fb32c2e1fb7aee6,67d0e69485b090a27c9dbaa3,2025-03-11_18h43.59.706,Tarea de decisión léxica,2024.2.5,Win32,144.9275362,,,,,,,,,,,,,,,,,,,,,,,486.6202,487.6184,a,1,0.3393,,0.3393,1,487.6185,488.1188,,,,,,50,FEM,NOWORD,AGR,150,ecat,,la,,488.1188,488.1189,-0.248148106,0.104629623,0,0,0,,0,258,258,49,1,edad,,,,
,,,,,,613a70774e42055f91081fc5,676192165fb32c2e1fb7aee6,67d0e69485b090a27c9dbaa3,2025-03-11_18h43.59.706,Tarea de decisión léxica,2024.2.5,Win32,144.9275362,,,,,,,,,,,,,,,,,,,,,,,488.1208,489.1672,a,1,0.3874,,0.3874,1,489.1674,489.6673,,,,,,228,MAS,NOWORD,DIS,150,laro,,la,,489.6674,489.6675,-0.248148106,0.104629623,0,0,0,,0,259,259,227,1,faro,,,,
,,,,,,613a70774e42055f91081fc5,676192165fb32c2e1fb7aee6,67d0e69485b090a27c9dbaa3,2025-03-11_18h43.59.706,Tarea de decisión léxica,2024.2.5,Win32,144.9275362,,,,,,,,,,,,,,,,,,,,,,,489.6696,490.6044,a,1,0.278,,0.278,1,490.6046,491.1046,,,,,,366,FEM,NOWORD,AGR,150,gulla,,la,,491.1049,491.1051,-0.248148106,0.104629623,0,0,0,,0,260,260,365,1,ducha,,,,
,,,,,,613a70774e42055f91081fc5,676192165fb32c2e1fb7aee6,67d0e69485b090a27c9dbaa3,2025-03-11_18h43.59.706,Tarea de decisión léxica,2024.2.5,Win32,144.9275362,,,,,,,,,,,,,,,,,,,,,,,491.1063,492.2918,a,1,0.5295,,0.5295,1,492.292,492.7918,,,,,,334,FEM,NOWORD,AGR,150,dalea,,la,,492.7936,492.7945,-0.248148106,0.104629623,0,0,0,,0,261,261,333,1,tarea,,,,
,,,,,,613a70774e42055f91081fc5,676192165fb32c2e1fb7aee6,67d0e69485b090a27c9dbaa3,2025-03-11_18h43.59.706,Tarea de decisión léxica,2024.2.5,Win32,144.9275362,,,,,,,,,,,,,,,,,,,,,,,492.7956,493.9104,l,1,0.4534,,0.4534,1,493.9105,494.4098,,,,,,265,FEM,WORD,AGR,150,mitad,,la,,494.4098,494.41,-0.248148106,0.104629623,0,0,0,,0,262,262,264,1,pitat,,,,
,,,,,,613a70774e42055f91081fc5,676192165fb32c2e1fb7aee6,67d0e69485b090a27c9dbaa3,2025-03-11_18h43.59.706,Tarea de decisión léxica,2024.2.5,Win32,144.9275362,,,,,,,,,,,,,,,,,,,,,,,494.4116,495.3336,l,1,0.2652,,0.2652,1,495.3338,495.8334,,,,,,349,MAS,WORD,AGR,150,color,,el,,495.8336,495.8339,-0.248148106,0.104629623,0,0,0,,0,263,263,348,1,cosir,,,,
,,,,,,613a70774e42055f91081fc5,676192165fb32c2e1fb7aee6,67d0e69485b090a27c9dbaa3,2025-03-11_18h43.59.706,Tarea de decisión léxica,2024.2.5,Win32,144.9275362,,,,,,,,,,,,,,,,,,,,,,,495.8358,496.8198,l,1,0.3277,,0.3277,1,496.8199,497.3196,,,,,,171,MAS,WORD,DIS,150,hilo,,la,,497.3198,497.32,-0.248148106,0.104629623,0,0,0,,0,264,264,170,1,niro,,,,
