counterbalancing_condition,consent_prescreening.block_1/declare_consent,consent_prescreening.block_1/age_years,consent_prescreening.block_1/gender,consent_prescreening.block_1/language_disorder,consent_prescreening.block_1/first_language,PROLIFIC_PID,STUDY_ID,SESSION_ID,date,expName,psychopyVersion,OS,frameRate,check_prescreening_answers.started,check_prescreening_answers.stopped,Instructions.started,Instructions.stopped,instr_done_keyboard.keys,instr_done_keyboard.rt,instr_done_keyboard.duration,instr_done_touch.x,instr_done_touch.y,instr_done_touch.leftButton,instr_done_touch.midButton,instr_done_touch.rightButton,instruction_pages.thisRepN,instruction_pages.thisTrialN,instruction_pages.thisN,instruction_pages.thisIndex,instruction_pages.ran,pageN,phase,instruct_text,has_image,instruct_image,presentTrial.started,presentTrial.stopped,response.keys,response.corr,response.rt,response.duration,rt,corr,feedback.started,feedback.stopped,practice_trials.thisRepN,practice_trials.thisTrialN,practice_trials.thisN,practice_trials.thisIndex,practice_trials.ran,TrialID,Gender,StimulusType,Condition,PrimeDuration,Prime,len,Flanker,corrAns,Break.started,Break.stopped,break_done_touch.x,break_done_touch.y,break_done_touch.leftButton,break_done_touch.midButton,break_done_touch.rightButton,break_done_keyboard.keys,experiment_trials.thisRepN,experiment_trials.thisTrialN,experiment_trials.thisN,experiment_trials.thisIndex,experiment_trials.ran,PairedWith,break_done_keyboard.rt,break_done_keyboard.duration,End.started,End.stopped
3,"[""over_18"",""comfortable"",""read_info"",""consent_given""]",29,F,"[""none""]","[""spanish""]",613a563bf2e38ea679f50546,676192165fb32c2e1fb7aee6,67d1f423dac098723e3ac216,2025-03-12_14h57.16.371,Tarea de decisión léxica,2024.2.5,Win32,61.34969325,,,,,,,,,,,,,,,,,,,,,,,,,,,,,,,,,,,,,,,,,,,,,,,,,,,,,,,,,,,,,,,,
,,,,,,613a563bf2e38ea679f50546,676192165fb32c2e1fb7aee6,67d1f423dac098723e3ac216,2025-03-12_14h57.16.371,Tarea de decisión léxica,2024.2.5,Win32,61.34969325,24.266,24.2664,,,,,,,,,,,,,,,,,,,,,,,,,,,,,,,,,,,,,,,,,,,,,,,,,,,,,,,,,,,,,,
,,,,,,613a563bf2e38ea679f50546,676192165fb32c2e1fb7aee6,67d1f423dac098723e3ac216,2025-03-12_14h57.16.371,Tarea de decisión léxica,2024.2.5,Win32,61.34969325,,,24.2854,53.1658,space,28.8486,,-0.226851852,-0.37037037,0,0,0,0,0,0,0,1,1,instructions,"INSTRUCCIONES
Va a realizar una prueba de decisión léxica. Desde el comienzo de la prueba mire siempre al centro de la pantalla. Se presentará una serie de cadenas de letras, una a la vez, en la pantalla. Su tarea consiste en determinar si cada cadena de letras constituye una palabra real en español o una no-palabra (una secuencia de letras que no constituye una palabra real). 

Pulse la tecla ESPACIO para continuar.",0,keyboardresponseNW.png,,,,,,,,,,,,,,,,,,,,,,,,,,,,,,,,,,,,,,,,,,
,,,,,,613a563bf2e38ea679f50546,676192165fb32c2e1fb7aee6,67d1f423dac098723e3ac216,2025-03-12_14h57.16.371,Tarea de decisión léxica,2024.2.5,Win32,61.34969325,,,53.1757,63.5245,space,10.3231,,0.016666667,0.272222222,0,0,0,0,1,1,1,1,2,instructions,"El procedimiento es el siguiente: Aparecerán dos barras verticales posicionadas en el centro de la pantalla, separadas por un pequeño espacio.Por favor, enfoque su atención en el espacio entre las barras. Esto preparará sus ojos para la siguiente cadena de letras, que aparecerá entre las dos barras durante un instante.

Pulse la tecla ESPACIO para continuar.",0,keyboardresponseNW.png,,,,,,,,,,,,,,,,,,,,,,,,,,,,,,,,,,,,,,,,,,
,,,,,,613a563bf2e38ea679f50546,676192165fb32c2e1fb7aee6,67d1f423dac098723e3ac216,2025-03-12_14h57.16.371,Tarea de decisión léxica,2024.2.5,Win32,61.34969325,,,63.5297,79.8133,space,16.2149,,0.183333333,0.215740741,0,0,0,0,2,2,2,1,3,instructions,"En el teclado de su dispositivo, pulse la tecla ""L"" si la cadena de letras es una palabra real en español (por ejemplo: ""mano"") y la tecla ""A"" si la cadena de letras es una no-palabra (por ejemplo: ""minu"").
Pulse la tecla ESPACIO para continuar.",1,keyboardresponseNW.png,,,,,,,,,,,,,,,,,,,,,,,,,,,,,,,,,,,,,,,,,,
,,,,,,613a563bf2e38ea679f50546,676192165fb32c2e1fb7aee6,67d1f423dac098723e3ac216,2025-03-12_14h57.16.371,Tarea de decisión léxica,2024.2.5,Win32,61.34969325,,,79.8211,93.5033,space,13.6594,,0.183333333,0.215740741,0,0,0,0,3,3,3,1,4,instructions,"Es muy importante que responda con la mayor rapidez y precisión posibles. Si no responde dentro de 2 segundos, aparecerá el mensaje ""Muy lento"" y el experimento pasará a la siguiente palabra. Inmediatamente después de su respuesta se indicará si fue correcta o no. Los primeros 15 intentos serán de práctica y habrá dos descansos durante la prueba.

Pulse la tecla ESPACIO  para iniciar la parte de práctica.",0,keyboardresponseNW.png,,,,,,,,,,,,,,,,,,,,,,,,,,,,,,,,,,,,,,,,,,
,,,,,,613a563bf2e38ea679f50546,676192165fb32c2e1fb7aee6,67d1f423dac098723e3ac216,2025-03-12_14h57.16.371,Tarea de decisión léxica,2024.2.5,Win32,61.34969325,,,,,,,,,,,,,,,,,,,,,,,93.5243,96.1186,l,1,1.9176,,1.9176,1,96.1191,96.6168,0,0,0,7,1,1008,MAS,WORD,DIS,150,frío,4,la,l,,,,,,,,,,,,,,,,,,
,,,,,,613a563bf2e38ea679f50546,676192165fb32c2e1fb7aee6,67d1f423dac098723e3ac216,2025-03-12_14h57.16.371,Tarea de decisión léxica,2024.2.5,Win32,61.34969325,,,,,,,,,,,,,,,,,,,,,,,96.6183,98.3499,a,0,1.0502,,1.0502,0,98.3525,98.8495,0,1,1,8,1,1009,FEM,WORD,AGR,150,viejo,5,la,l,,,,,,,,,,,,,,,,,,
,,,,,,613a563bf2e38ea679f50546,676192165fb32c2e1fb7aee6,67d1f423dac098723e3ac216,2025-03-12_14h57.16.371,Tarea de decisión léxica,2024.2.5,Win32,61.34969325,,,,,,,,,,,,,,,,,,,,,,,98.8532,101.3638,a,1,1.8365,,1.8365,1,101.3644,101.8641,0,2,2,1,1,1002,FEM,NOWORD,DIS,150,mabo,4,el,a,,,,,,,,,,,,,,,,,,
,,,,,,613a563bf2e38ea679f50546,676192165fb32c2e1fb7aee6,67d1f423dac098723e3ac216,2025-03-12_14h57.16.371,Tarea de decisión léxica,2024.2.5,Win32,61.34969325,,,,,,,,,,,,,,,,,,,,,,,101.8665,103.0633,l,1,0.5168,,0.5168,1,103.0635,103.5625,0,3,3,6,1,1007,MAS,WORD,DIS,150,masa,4,la,l,,,,,,,,,,,,,,,,,,
,,,,,,613a563bf2e38ea679f50546,676192165fb32c2e1fb7aee6,67d1f423dac098723e3ac216,2025-03-12_14h57.16.371,Tarea de decisión léxica,2024.2.5,Win32,61.34969325,,,,,,,,,,,,,,,,,,,,,,,103.5651,104.9286,a,1,0.683,,0.683,1,104.9288,105.4282,0,4,4,4,1,1005,MAS,NOWORD,DIS,150,nobad,5,la,a,,,,,,,,,,,,,,,,,,
,,,,,,613a563bf2e38ea679f50546,676192165fb32c2e1fb7aee6,67d1f423dac098723e3ac216,2025-03-12_14h57.16.371,Tarea de decisión léxica,2024.2.5,Win32,61.34969325,,,,,,,,,,,,,,,,,,,,,,,105.4299,106.9439,a,1,0.8358,,0.8358,1,106.9441,107.4433,0,5,5,3,1,1004,FEM,NOWORD,AGR,150,bireo,5,la,a,,,,,,,,,,,,,,,,,,
,,,,,,613a563bf2e38ea679f50546,676192165fb32c2e1fb7aee6,67d1f423dac098723e3ac216,2025-03-12_14h57.16.371,Tarea de decisión léxica,2024.2.5,Win32,61.34969325,,,,,,,,,,,,,,,,,,,,,,,107.4463,108.9091,a,1,0.7881,,0.7881,1,108.9092,109.4086,0,6,6,0,1,1001,FEM,NOWORD,AGR,150,croz,4,la,a,,,,,,,,,,,,,,,,,,
,,,,,,613a563bf2e38ea679f50546,676192165fb32c2e1fb7aee6,67d1f423dac098723e3ac216,2025-03-12_14h57.16.371,Tarea de decisión léxica,2024.2.5,Win32,61.34969325,,,,,,,,,,,,,,,,,,,,,,,109.4109,110.7912,a,1,0.6998,,0.6998,1,110.7913,111.2906,0,7,7,2,1,1003,FEM,NOWORD,DIS,150,muvor,5,el,a,,,,,,,,,,,,,,,,,,
,,,,,,613a563bf2e38ea679f50546,676192165fb32c2e1fb7aee6,67d1f423dac098723e3ac216,2025-03-12_14h57.16.371,Tarea de decisión léxica,2024.2.5,Win32,61.34969325,,,,,,,,,,,,,,,,,,,,,,,111.2921,112.3562,l,1,0.3844,,0.3844,1,112.3563,112.8563,0,8,8,5,1,1006,FEM,WORD,AGR,150,cara,4,la,l,,,,,,,,,,,,,,,,,,
,,,,,,613a563bf2e38ea679f50546,676192165fb32c2e1fb7aee6,67d1f423dac098723e3ac216,2025-03-12_14h57.16.371,Tarea de decisión léxica,2024.2.5,Win32,61.34969325,,,,,,,,,,,,,,,,,,,,,,,112.8579,114.0723,l,1,0.5336,,0.5336,1,114.0725,114.5719,0,9,9,9,1,1010,MAS,WORD,DIS,150,video,5,la,l,,,,,,,,,,,,,,,,,,
,,,,,,613a563bf2e38ea679f50546,676192165fb32c2e1fb7aee6,67d1f423dac098723e3ac216,2025-03-12_14h57.16.371,Tarea de decisión léxica,2024.2.5,Win32,61.34969325,,,119.3415,131.7434,space,12.3751,,0.183333333,0.215740741,0,0,0,,,,,,,,,,,131.7925,133.2251,a,1,0.7648,,0.7648,1,133.2251,133.7253,,,,,,344,FEM,NOWORD,DIS,150,trada,,el,,133.7259,133.7384,0.183333333,0.215740741,0,0,0,,0,0,0,343,1,plata,,,,
,,,,,,613a563bf2e38ea679f50546,676192165fb32c2e1fb7aee6,67d1f423dac098723e3ac216,2025-03-12_14h57.16.371,Tarea de decisión léxica,2024.2.5,Win32,61.34969325,,,,,,,,,,,,,,,,,,,,,,,133.74,135.191,a,1,0.786,,0.786,1,135.1912,135.6906,,,,,,44,FEM,NOWORD,DIS,150,meda,,el,,135.6907,135.691,0.183333333,0.215740741,0,0,0,,0,1,1,43,1,pena,,,,
,,,,,,613a563bf2e38ea679f50546,676192165fb32c2e1fb7aee6,67d1f423dac098723e3ac216,2025-03-12_14h57.16.371,Tarea de decisión léxica,2024.2.5,Win32,61.34969325,,,,,,,,,,,,,,,,,,,,,,,135.6928,136.923,l,1,0.5577,,0.5577,1,136.9232,137.4226,,,,,,125,MAS,WORD,AGR,150,lujo,,el,,137.4253,137.4269,0.183333333,0.215740741,0,0,0,,0,2,2,124,1,vudo,,,,
,,,,,,613a563bf2e38ea679f50546,676192165fb32c2e1fb7aee6,67d1f423dac098723e3ac216,2025-03-12_14h57.16.371,Tarea de decisión léxica,2024.2.5,Win32,61.34969325,,,,,,,,,,,,,,,,,,,,,,,137.4285,138.7555,l,0,0.6576,,0.6576,0,138.7573,139.2548,,,,,,242,MAS,NOWORD,AGR,150,mirdo,,el,,139.255,139.2552,0.183333333,0.215740741,0,0,0,,0,3,3,241,1,mundo,,,,
,,,,,,613a563bf2e38ea679f50546,676192165fb32c2e1fb7aee6,67d1f423dac098723e3ac216,2025-03-12_14h57.16.371,Tarea de decisión léxica,2024.2.5,Win32,61.34969325,,,,,,,,,,,,,,,,,,,,,,,139.2582,140.8537,a,1,0.9211,,0.9211,1,140.8552,141.3535,,,,,,458,MAS,NOWORD,AGR,150,glaco,,el,,141.3536,141.3538,0.183333333,0.215740741,0,0,0,,0,4,4,457,1,plato,,,,
,,,,,,613a563bf2e38ea679f50546,676192165fb32c2e1fb7aee6,67d1f423dac098723e3ac216,2025-03-12_14h57.16.371,Tarea de decisión léxica,2024.2.5,Win32,61.34969325,,,,,,,,,,,,,,,,,,,,,,,141.3567,142.8523,l,1,0.8229,,0.8229,1,142.8525,143.3523,,,,,,381,MAS,WORD,AGR,150,humor,,el,,143.3523,143.3526,0.183333333,0.215740741,0,0,0,,0,5,5,380,1,nusor,,,,
,,,,,,613a563bf2e38ea679f50546,676192165fb32c2e1fb7aee6,67d1f423dac098723e3ac216,2025-03-12_14h57.16.371,Tarea de decisión léxica,2024.2.5,Win32,61.34969325,,,,,,,,,,,,,,,,,,,,,,,143.3546,144.884,a,1,0.8554,,0.8554,1,144.8842,145.3841,,,,,,422,MAS,NOWORD,AGR,150,griso,,el,,145.3842,145.3845,0.183333333,0.215740741,0,0,0,,0,6,6,421,1,primo,,,,
,,,,,,613a563bf2e38ea679f50546,676192165fb32c2e1fb7aee6,67d1f423dac098723e3ac216,2025-03-12_14h57.16.371,Tarea de decisión léxica,2024.2.5,Win32,61.34969325,,,,,,,,,,,,,,,,,,,,,,,145.3866,146.5999,l,1,0.5433,,0.5433,1,146.6001,147.0995,,,,,,369,MAS,WORD,AGR,150,ruido,,el,,147.1026,147.1041,0.183333333,0.215740741,0,0,0,,0,7,7,368,1,rioco,,,,
,,,,,,613a563bf2e38ea679f50546,676192165fb32c2e1fb7aee6,67d1f423dac098723e3ac216,2025-03-12_14h57.16.371,Tarea de decisión léxica,2024.2.5,Win32,61.34969325,,,,,,,,,,,,,,,,,,,,,,,147.1057,148.815,a,1,1.0364,,1.0364,1,148.8152,149.3144,,,,,,152,MAS,NOWORD,DIS,150,sogo,,la,,149.3146,149.3148,0.183333333,0.215740741,0,0,0,,0,8,8,151,1,tomo,,,,
,,,,,,613a563bf2e38ea679f50546,676192165fb32c2e1fb7aee6,67d1f423dac098723e3ac216,2025-03-12_14h57.16.371,Tarea de decisión léxica,2024.2.5,Win32,61.34969325,,,,,,,,,,,,,,,,,,,,,,,149.3178,150.6635,a,1,0.6669,,0.6669,1,150.6637,151.163,,,,,,468,MAS,NOWORD,DIS,150,peiso,,la,,151.1632,151.1634,0.183333333,0.215740741,0,0,0,,0,9,9,467,1,piano,,,,
,,,,,,613a563bf2e38ea679f50546,676192165fb32c2e1fb7aee6,67d1f423dac098723e3ac216,2025-03-12_14h57.16.371,Tarea de decisión léxica,2024.2.5,Win32,61.34969325,,,,,,,,,,,,,,,,,,,,,,,151.1654,152.6288,a,1,0.7885,,0.7885,1,152.629,153.1286,,,,,,296,MAS,NOWORD,DIS,150,goler,,la,,153.1287,153.129,0.183333333,0.215740741,0,0,0,,0,10,10,295,1,dolor,,,,
,,,,,,613a563bf2e38ea679f50546,676192165fb32c2e1fb7aee6,67d1f423dac098723e3ac216,2025-03-12_14h57.16.371,Tarea de decisión léxica,2024.2.5,Win32,61.34969325,,,,,,,,,,,,,,,,,,,,,,,153.1308,154.2108,a,1,0.4077,,0.4077,1,154.2109,154.7107,,,,,,456,MAS,NOWORD,DIS,150,riaso,,la,,154.7137,154.7152,0.183333333,0.215740741,0,0,0,,0,11,11,455,1,reino,,,,
,,,,,,613a563bf2e38ea679f50546,676192165fb32c2e1fb7aee6,67d1f423dac098723e3ac216,2025-03-12_14h57.16.371,Tarea de decisión léxica,2024.2.5,Win32,61.34969325,,,,,,,,,,,,,,,,,,,,,,,154.7167,156.0264,a,1,0.6339,,0.6339,1,156.0265,156.5263,,,,,,274,FEM,NOWORD,AGR,150,frosa,,la,,156.5263,156.5266,0.183333333,0.215740741,0,0,0,,0,12,12,273,1,broma,,,,
,,,,,,613a563bf2e38ea679f50546,676192165fb32c2e1fb7aee6,67d1f423dac098723e3ac216,2025-03-12_14h57.16.371,Tarea de decisión léxica,2024.2.5,Win32,61.34969325,,,,,,,,,,,,,,,,,,,,,,,156.5284,157.9918,a,1,0.7851,,0.7851,1,157.9919,158.4915,,,,,,116,FEM,NOWORD,DIS,150,haca,,el,,158.4916,158.4918,0.183333333,0.215740741,0,0,0,,0,13,13,115,1,pata,,,,
,,,,,,613a563bf2e38ea679f50546,676192165fb32c2e1fb7aee6,67d1f423dac098723e3ac216,2025-03-12_14h57.16.371,Tarea de decisión léxica,2024.2.5,Win32,61.34969325,,,,,,,,,,,,,,,,,,,,,,,158.4937,159.6408,a,1,0.4768,,0.4768,1,159.6409,160.1402,,,,,,222,FEM,NOWORD,AGR,150,puca,,la,,160.1403,160.1405,0.183333333,0.215740741,0,0,0,,0,14,14,221,1,mula,,,,
,,,,,,613a563bf2e38ea679f50546,676192165fb32c2e1fb7aee6,67d1f423dac098723e3ac216,2025-03-12_14h57.16.371,Tarea de decisión léxica,2024.2.5,Win32,61.34969325,,,,,,,,,,,,,,,,,,,,,,,160.1426,161.3389,a,1,0.5171,,0.5171,1,161.339,161.8387,,,,,,30,MAS,NOWORD,AGR,150,pono,,el,,161.8387,161.8387,0.183333333,0.215740741,0,0,0,,0,15,15,29,1,modo,,,,
,,,,,,613a563bf2e38ea679f50546,676192165fb32c2e1fb7aee6,67d1f423dac098723e3ac216,2025-03-12_14h57.16.371,Tarea de decisión léxica,2024.2.5,Win32,61.34969325,,,,,,,,,,,,,,,,,,,,,,,161.84,163.0383,l,1,0.5202,,0.5202,1,163.0385,163.5379,,,,,,203,FEM,WORD,DIS,150,leña,,el,,163.5428,163.5449,0.183333333,0.215740741,0,0,0,,0,16,16,202,1,beja,,,,
,,,,,,613a563bf2e38ea679f50546,676192165fb32c2e1fb7aee6,67d1f423dac098723e3ac216,2025-03-12_14h57.16.371,Tarea de decisión léxica,2024.2.5,Win32,61.34969325,,,,,,,,,,,,,,,,,,,,,,,163.547,164.637,a,1,0.4218,,0.4218,1,164.6371,165.1369,,,,,,6,FEM,NOWORD,AGR,150,poga,,la,,165.137,165.1371,0.183333333,0.215740741,0,0,0,,0,17,17,5,1,cosa,,,,
,,,,,,613a563bf2e38ea679f50546,676192165fb32c2e1fb7aee6,67d1f423dac098723e3ac216,2025-03-12_14h57.16.371,Tarea de decisión léxica,2024.2.5,Win32,61.34969325,,,,,,,,,,,,,,,,,,,,,,,165.1393,166.2859,a,0,0.4681,,0.4681,0,166.2874,166.7857,,,,,,83,FEM,WORD,DIS,150,bala,,el,,166.7858,166.786,0.183333333,0.215740741,0,0,0,,0,18,18,82,1,taga,,,,
,,,,,,613a563bf2e38ea679f50546,676192165fb32c2e1fb7aee6,67d1f423dac098723e3ac216,2025-03-12_14h57.16.371,Tarea de decisión léxica,2024.2.5,Win32,61.34969325,,,,,,,,,,,,,,,,,,,,,,,166.7878,168.1511,a,1,0.683,,0.683,1,168.1523,168.6508,,,,,,414,FEM,NOWORD,AGR,150,bieda,,la,,168.6509,168.651,0.183333333,0.215740741,0,0,0,,0,19,19,413,1,rueda,,,,
,,,,,,613a563bf2e38ea679f50546,676192165fb32c2e1fb7aee6,67d1f423dac098723e3ac216,2025-03-12_14h57.16.371,Tarea de decisión léxica,2024.2.5,Win32,61.34969325,,,,,,,,,,,,,,,,,,,,,,,168.6524,170.1162,l,0,0.7837,,0.7837,0,170.1173,170.6162,,,,,,64,FEM,NOWORD,DIS,150,funa,,el,,170.6163,170.6163,0.183333333,0.215740741,0,0,0,,0,20,20,63,1,luna,,,,
,,,,,,613a563bf2e38ea679f50546,676192165fb32c2e1fb7aee6,67d1f423dac098723e3ac216,2025-03-12_14h57.16.371,Tarea de decisión léxica,2024.2.5,Win32,61.34969325,,,,,,,,,,,,,,,,,,,,,,,170.6185,172.3488,l,1,1.0558,,1.0558,1,172.3504,172.8483,,,,,,239,MAS,WORD,DIS,150,mozo,,la,,172.8513,172.8527,0.183333333,0.215740741,0,0,0,,0,21,21,238,1,poño,,,,
,,,,,,613a563bf2e38ea679f50546,676192165fb32c2e1fb7aee6,67d1f423dac098723e3ac216,2025-03-12_14h57.16.371,Tarea de decisión léxica,2024.2.5,Win32,61.34969325,,,,,,,,,,,,,,,,,,,,,,,172.8544,174.1642,a,1,0.6336,,0.6336,1,174.1643,174.6638,,,,,,190,MAS,NOWORD,AGR,150,muvo,,el,,174.6639,174.6641,0.183333333,0.215740741,0,0,0,,0,22,22,189,1,puño,,,,
,,,,,,613a563bf2e38ea679f50546,676192165fb32c2e1fb7aee6,67d1f423dac098723e3ac216,2025-03-12_14h57.16.371,Tarea de decisión léxica,2024.2.5,Win32,61.34969325,,,,,,,,,,,,,,,,,,,,,,,174.6662,176.2125,a,1,0.8671,,0.8671,1,176.2126,176.7123,,,,,,406,FEM,NOWORD,AGR,150,rarra,,la,,176.7125,176.7127,0.183333333,0.215740741,0,0,0,,0,23,23,405,1,barra,,,,
,,,,,,613a563bf2e38ea679f50546,676192165fb32c2e1fb7aee6,67d1f423dac098723e3ac216,2025-03-12_14h57.16.371,Tarea de decisión léxica,2024.2.5,Win32,61.34969325,,,,,,,,,,,,,,,,,,,,,,,176.7145,178.2274,a,1,0.8395,,0.8395,1,178.2276,178.7272,,,,,,18,FEM,NOWORD,AGR,150,paba,,la,,178.7272,178.7274,0.183333333,0.215740741,0,0,0,,0,24,24,17,1,mamá,,,,
,,,,,,613a563bf2e38ea679f50546,676192165fb32c2e1fb7aee6,67d1f423dac098723e3ac216,2025-03-12_14h57.16.371,Tarea de decisión léxica,2024.2.5,Win32,61.34969325,,,,,,,,,,,,,,,,,,,,,,,178.7294,180.1601,l,1,0.7598,,0.7598,1,180.1603,180.6595,,,,,,319,MAS,WORD,DIS,150,suelo,,la,,180.6595,180.6597,0.183333333,0.215740741,0,0,0,,0,25,25,318,1,tuero,,,,
,,,,,,613a563bf2e38ea679f50546,676192165fb32c2e1fb7aee6,67d1f423dac098723e3ac216,2025-03-12_14h57.16.371,Tarea de decisión léxica,2024.2.5,Win32,61.34969325,,,,,,,,,,,,,,,,,,,,,,,180.6614,182.0748,l,1,0.7401,,0.7401,1,182.0749,182.5743,,,,,,361,FEM,WORD,AGR,150,torre,,la,,182.5764,182.5776,0.183333333,0.215740741,0,0,0,,0,26,26,360,1,solle,,,,
,,,,,,613a563bf2e38ea679f50546,676192165fb32c2e1fb7aee6,67d1f423dac098723e3ac216,2025-03-12_14h57.16.371,Tarea de decisión léxica,2024.2.5,Win32,61.34969325,,,,,,,,,,,,,,,,,,,,,,,182.5786,183.9068,a,1,0.6566,,0.6566,1,183.9069,184.4067,,,,,,10,MAS,NOWORD,AGR,150,sibo,,el,,184.4067,184.4069,0.183333333,0.215740741,0,0,0,,0,27,27,9,1,tipo,,,,
,,,,,,613a563bf2e38ea679f50546,676192165fb32c2e1fb7aee6,67d1f423dac098723e3ac216,2025-03-12_14h57.16.371,Tarea de decisión léxica,2024.2.5,Win32,61.34969325,,,,,,,,,,,,,,,,,,,,,,,184.4088,186.0224,l,1,0.9331,,0.9331,1,186.0225,186.5224,,,,,,367,MAS,WORD,DIS,150,reloj,,la,,186.5224,186.5226,0.183333333,0.215740741,0,0,0,,0,28,28,366,1,rerob,,,,
,,,,,,613a563bf2e38ea679f50546,676192165fb32c2e1fb7aee6,67d1f423dac098723e3ac216,2025-03-12_14h57.16.371,Tarea de decisión léxica,2024.2.5,Win32,61.34969325,,,,,,,,,,,,,,,,,,,,,,,186.5245,187.8046,a,1,0.6005,,0.6005,1,187.8048,188.304,,,,,,416,FEM,NOWORD,DIS,150,juira,,el,,188.3041,188.3043,0.183333333,0.215740741,0,0,0,,0,29,29,415,1,jaula,,,,
,,,,,,613a563bf2e38ea679f50546,676192165fb32c2e1fb7aee6,67d1f423dac098723e3ac216,2025-03-12_14h57.16.371,Tarea de decisión léxica,2024.2.5,Win32,61.34969325,,,,,,,,,,,,,,,,,,,,,,,188.3062,189.6029,l,1,0.6235,,0.6235,1,189.603,190.1029,,,,,,167,FEM,WORD,DIS,150,jefa,,el,,190.1029,190.1032,0.183333333,0.215740741,0,0,0,,0,30,30,166,1,zifa,,,,
,,,,,,613a563bf2e38ea679f50546,676192165fb32c2e1fb7aee6,67d1f423dac098723e3ac216,2025-03-12_14h57.16.371,Tarea de decisión léxica,2024.2.5,Win32,61.34969325,,,,,,,,,,,,,,,,,,,,,,,190.1053,191.4853,a,1,0.7048,,0.7048,1,191.4856,191.9849,,,,,,56,MAS,NOWORD,DIS,150,jado,,la,,191.9878,191.9893,0.183333333,0.215740741,0,0,0,,0,31,31,55,1,gato,,,,
,,,,,,613a563bf2e38ea679f50546,676192165fb32c2e1fb7aee6,67d1f423dac098723e3ac216,2025-03-12_14h57.16.371,Tarea de decisión léxica,2024.2.5,Win32,61.34969325,,,,,,,,,,,,,,,,,,,,,,,191.9908,194.0003,a,1,1.3332,,1.3332,1,194.0004,194.5,,,,,,342,MAS,NOWORD,AGR,150,daror,,el,,194.5,194.5001,0.183333333,0.215740741,0,0,0,,0,32,32,341,1,valor,,,,
,,,,,,613a563bf2e38ea679f50546,676192165fb32c2e1fb7aee6,67d1f423dac098723e3ac216,2025-03-12_14h57.16.371,Tarea de decisión léxica,2024.2.5,Win32,61.34969325,,,,,,,,,,,,,,,,,,,,,,,194.5031,195.7156,l,1,0.534,,0.534,1,195.7157,196.2154,,,,,,477,MAS,WORD,AGR,150,botón,,el,,196.2155,196.2156,0.183333333,0.215740741,0,0,0,,0,33,33,476,1,hocon,,,,
,,,,,,613a563bf2e38ea679f50546,676192165fb32c2e1fb7aee6,67d1f423dac098723e3ac216,2025-03-12_14h57.16.371,Tarea de decisión léxica,2024.2.5,Win32,61.34969325,,,,,,,,,,,,,,,,,,,,,,,196.2174,197.8142,l,1,0.9168,,0.9168,1,197.8145,198.3141,,,,,,67,FEM,WORD,DIS,150,nena,,el,,198.3142,198.3143,0.183333333,0.215740741,0,0,0,,0,34,34,66,1,gesa,,,,
,,,,,,613a563bf2e38ea679f50546,676192165fb32c2e1fb7aee6,67d1f423dac098723e3ac216,2025-03-12_14h57.16.371,Tarea de decisión léxica,2024.2.5,Win32,61.34969325,,,,,,,,,,,,,,,,,,,,,,,198.3161,199.9128,l,0,0.9186,,0.9186,0,199.9144,200.4125,,,,,,102,MAS,NOWORD,AGR,150,gito,,el,,200.4157,200.4173,0.183333333,0.215740741,0,0,0,,0,35,35,101,1,tono,,,,
,,,,,,613a563bf2e38ea679f50546,676192165fb32c2e1fb7aee6,67d1f423dac098723e3ac216,2025-03-12_14h57.16.371,Tarea de decisión léxica,2024.2.5,Win32,61.34969325,,,,,,,,,,,,,,,,,,,,,,,200.4194,201.9115,a,1,0.8189,,0.8189,1,201.9132,202.4111,,,,,,330,MAS,NOWORD,AGR,150,nueno,,el,,202.4112,202.4114,0.183333333,0.215740741,0,0,0,,0,36,36,329,1,hueso,,,,
,,,,,,613a563bf2e38ea679f50546,676192165fb32c2e1fb7aee6,67d1f423dac098723e3ac216,2025-03-12_14h57.16.371,Tarea de decisión léxica,2024.2.5,Win32,61.34969325,,,,,,,,,,,,,,,,,,,,,,,202.4135,203.6433,l,1,0.5576,,0.5576,1,203.6434,204.1431,,,,,,437,FEM,WORD,AGR,150,plaza,,la,,204.1432,204.1433,0.183333333,0.215740741,0,0,0,,0,37,37,436,1,glava,,,,
,,,,,,613a563bf2e38ea679f50546,676192165fb32c2e1fb7aee6,67d1f423dac098723e3ac216,2025-03-12_14h57.16.371,Tarea de decisión léxica,2024.2.5,Win32,61.34969325,,,,,,,,,,,,,,,,,,,,,,,204.1453,205.6249,a,1,0.8085,,0.8085,1,205.6251,206.1251,,,,,,260,MAS,NOWORD,DIS,150,jaumo,,la,,206.1252,206.1254,0.183333333,0.215740741,0,0,0,,0,38,38,259,1,juego,,,,
,,,,,,613a563bf2e38ea679f50546,676192165fb32c2e1fb7aee6,67d1f423dac098723e3ac216,2025-03-12_14h57.16.371,Tarea de decisión léxica,2024.2.5,Win32,61.34969325,,,,,,,,,,,,,,,,,,,,,,,206.1272,207.6242,a,1,0.8266,,0.8266,1,207.6244,208.1238,,,,,,314,MAS,NOWORD,AGR,150,govio,,el,,208.1239,208.124,0.183333333,0.215740741,0,0,0,,0,39,39,313,1,novio,,,,
,,,,,,613a563bf2e38ea679f50546,676192165fb32c2e1fb7aee6,67d1f423dac098723e3ac216,2025-03-12_14h57.16.371,Tarea de decisión léxica,2024.2.5,Win32,61.34969325,,,,,,,,,,,,,,,,,,,,,,,208.1259,209.8226,a,1,1.016,,1.016,1,209.8229,210.3221,,,,,,206,FEM,NOWORD,AGR,150,bara,,la,,210.3253,210.3267,0.183333333,0.215740741,0,0,0,,0,40,40,205,1,rana,,,,
,,,,,,613a563bf2e38ea679f50546,676192165fb32c2e1fb7aee6,67d1f423dac098723e3ac216,2025-03-12_14h57.16.371,Tarea de decisión léxica,2024.2.5,Win32,61.34969325,,,,,,,,,,,,,,,,,,,,,,,210.3286,211.7876,a,1,0.7838,,0.7838,1,211.7877,212.2872,,,,,,34,FEM,NOWORD,AGR,150,loda,,la,,212.2873,212.2875,0.183333333,0.215740741,0,0,0,,0,41,41,33,1,boca,,,,
,,,,,,613a563bf2e38ea679f50546,676192165fb32c2e1fb7aee6,67d1f423dac098723e3ac216,2025-03-12_14h57.16.371,Tarea de decisión léxica,2024.2.5,Win32,61.34969325,,,,,,,,,,,,,,,,,,,,,,,212.2893,213.6698,a,1,0.7048,,0.7048,1,213.6699,214.1696,,,,,,248,FEM,NOWORD,DIS,150,trida,,el,,214.1698,214.1699,0.183333333,0.215740741,0,0,0,,0,42,42,247,1,chica,,,,
,,,,,,613a563bf2e38ea679f50546,676192165fb32c2e1fb7aee6,67d1f423dac098723e3ac216,2025-03-12_14h57.16.371,Tarea de decisión léxica,2024.2.5,Win32,61.34969325,,,,,,,,,,,,,,,,,,,,,,,214.1717,215.6016,l,0,0.7577,,0.7577,0,215.6031,216.1015,,,,,,72,FEM,NOWORD,DIS,150,urla,,el,,216.1015,216.1017,0.183333333,0.215740741,0,0,0,,0,43,43,71,1,isla,,,,
,,,,,,613a563bf2e38ea679f50546,676192165fb32c2e1fb7aee6,67d1f423dac098723e3ac216,2025-03-12_14h57.16.371,Tarea de decisión léxica,2024.2.5,Win32,61.34969325,,,,,,,,,,,,,,,,,,,,,,,216.1037,217.8166,a,1,1.0423,,1.0423,1,217.8183,218.3166,,,,,,340,MAS,NOWORD,DIS,150,plajo,,la,,218.3167,218.3168,0.183333333,0.215740741,0,0,0,,0,44,44,339,1,brazo,,,,
,,,,,,613a563bf2e38ea679f50546,676192165fb32c2e1fb7aee6,67d1f423dac098723e3ac216,2025-03-12_14h57.16.371,Tarea de decisión léxica,2024.2.5,Win32,61.34969325,,,,,,,,,,,,,,,,,,,,,,,218.3189,219.4994,a,1,0.5004,,0.5004,1,219.4995,219.9981,,,,,,66,MAS,NOWORD,AGR,150,nios,,el,,219.9987,219.9994,0.183333333,0.215740741,0,0,0,,0,45,45,65,1,dios,,,,
,,,,,,613a563bf2e38ea679f50546,676192165fb32c2e1fb7aee6,67d1f423dac098723e3ac216,2025-03-12_14h57.16.371,Tarea de decisión léxica,2024.2.5,Win32,61.34969325,,,,,,,,,,,,,,,,,,,,,,,220,221.5143,a,1,0.8335,,0.8335,1,221.5145,222.0137,,,,,,86,MAS,NOWORD,AGR,150,babo,,el,,222.0138,222.014,0.183333333,0.215740741,0,0,0,,0,46,46,85,1,lago,,,,
,,,,,,613a563bf2e38ea679f50546,676192165fb32c2e1fb7aee6,67d1f423dac098723e3ac216,2025-03-12_14h57.16.371,Tarea de decisión léxica,2024.2.5,Win32,61.34969325,,,,,,,,,,,,,,,,,,,,,,,222.0161,223.3962,l,1,0.7055,,0.7055,1,223.3963,223.8962,,,,,,435,MAS,WORD,DIS,150,ritmo,,la,,223.8963,223.8964,0.183333333,0.215740741,0,0,0,,0,47,47,434,1,ricno,,,,
,,,,,,613a563bf2e38ea679f50546,676192165fb32c2e1fb7aee6,67d1f423dac098723e3ac216,2025-03-12_14h57.16.371,Tarea de decisión léxica,2024.2.5,Win32,61.34969325,,,,,,,,,,,,,,,,,,,,,,,223.8983,225.145,a,1,0.5751,,0.5751,1,225.1452,225.6443,,,,,,360,MAS,NOWORD,DIS,150,cacer,,la,,225.6443,225.6444,0.183333333,0.215740741,0,0,0,,0,48,48,359,1,calor,,,,
,,,,,,613a563bf2e38ea679f50546,676192165fb32c2e1fb7aee6,67d1f423dac098723e3ac216,2025-03-12_14h57.16.371,Tarea de decisión léxica,2024.2.5,Win32,61.34969325,,,,,,,,,,,,,,,,,,,,,,,225.6451,227.327,l,1,0.9999,,0.9999,1,227.3272,227.8263,,,,,,431,MAS,WORD,DIS,150,motor,,la,,227.8264,227.8266,0.183333333,0.215740741,0,0,0,,0,49,49,430,1,tetor,,,,
,,,,,,613a563bf2e38ea679f50546,676192165fb32c2e1fb7aee6,67d1f423dac098723e3ac216,2025-03-12_14h57.16.371,Tarea de decisión léxica,2024.2.5,Win32,61.34969325,,,,,,,,,,,,,,,,,,,,,,,227.8283,229.192,a,1,0.6827,,0.6827,1,229.1922,229.6923,,,,,,480,MAS,NOWORD,DIS,150,rimpo,,la,,229.6944,229.6958,0.183333333,0.215740741,0,0,0,,0,50,50,479,1,rumbo,,,,
,,,,,,613a563bf2e38ea679f50546,676192165fb32c2e1fb7aee6,67d1f423dac098723e3ac216,2025-03-12_14h57.16.371,Tarea de decisión léxica,2024.2.5,Win32,61.34969325,,,,,,,,,,,,,,,,,,,,,,,229.6973,230.9745,l,1,0.6012,,0.6012,1,230.9746,231.4743,,,,,,73,MAS,WORD,AGR,150,odio,,el,,231.4743,231.4745,0.183333333,0.215740741,0,0,0,,0,51,51,72,1,omio,,,,
,,,,,,613a563bf2e38ea679f50546,676192165fb32c2e1fb7aee6,67d1f423dac098723e3ac216,2025-03-12_14h57.16.371,Tarea de decisión léxica,2024.2.5,Win32,61.34969325,,,,,,,,,,,,,,,,,,,,,,,231.4761,232.6902,a,1,0.5342,,0.5342,1,232.6902,233.1899,,,,,,132,FEM,NOWORD,DIS,150,fada,,el,,233.19,233.1901,0.183333333,0.215740741,0,0,0,,0,52,52,131,1,mina,,,,
,,,,,,613a563bf2e38ea679f50546,676192165fb32c2e1fb7aee6,67d1f423dac098723e3ac216,2025-03-12_14h57.16.371,Tarea de decisión léxica,2024.2.5,Win32,61.34969325,,,,,,,,,,,,,,,,,,,,,,,233.1919,234.4714,a,1,0.6091,,0.6091,1,234.4715,234.9719,,,,,,54,FEM,NOWORD,AGR,150,rora,,la,,234.9721,234.9721,0.183333333,0.215740741,0,0,0,,0,53,53,53,1,boda,,,,
,,,,,,613a563bf2e38ea679f50546,676192165fb32c2e1fb7aee6,67d1f423dac098723e3ac216,2025-03-12_14h57.16.371,Tarea de decisión léxica,2024.2.5,Win32,61.34969325,,,,,,,,,,,,,,,,,,,,,,,234.974,236.4043,l,1,0.7499,,0.7499,1,236.4045,236.9035,,,,,,291,FEM,WORD,DIS,150,pista,,el,,236.9036,236.9038,0.183333333,0.215740741,0,0,0,,0,54,54,290,1,mesta,,,,
,,,,,,613a563bf2e38ea679f50546,676192165fb32c2e1fb7aee6,67d1f423dac098723e3ac216,2025-03-12_14h57.16.371,Tarea de decisión léxica,2024.2.5,Win32,61.34969325,,,,,,,,,,,,,,,,,,,,,,,236.9056,238.0194,l,1,0.4395,,0.4395,1,238.0196,238.5192,,,,,,425,FEM,WORD,AGR,150,viuda,,la,,238.5213,238.5227,0.183333333,0.215740741,0,0,0,,0,55,55,424,1,virca,,,,
,,,,,,613a563bf2e38ea679f50546,676192165fb32c2e1fb7aee6,67d1f423dac098723e3ac216,2025-03-12_14h57.16.371,Tarea de decisión léxica,2024.2.5,Win32,61.34969325,,,,,,,,,,,,,,,,,,,,,,,238.5242,239.6519,l,1,0.4506,,0.4506,1,239.652,240.1516,,,,,,141,FEM,WORD,AGR,150,cruz,,la,,240.1516,240.1518,0.183333333,0.215740741,0,0,0,,0,56,56,140,1,sina,,,,
,,,,,,613a563bf2e38ea679f50546,676192165fb32c2e1fb7aee6,67d1f423dac098723e3ac216,2025-03-12_14h57.16.371,Tarea de decisión léxica,2024.2.5,Win32,61.34969325,,,,,,,,,,,,,,,,,,,,,,,240.1537,241.1841,l,1,0.3503,,0.3503,1,241.1843,241.6837,,,,,,313,MAS,WORD,AGR,150,novio,,el,,241.6838,241.684,0.183333333,0.215740741,0,0,0,,0,57,57,312,1,govio,,,,
,,,,,,613a563bf2e38ea679f50546,676192165fb32c2e1fb7aee6,67d1f423dac098723e3ac216,2025-03-12_14h57.16.371,Tarea de decisión léxica,2024.2.5,Win32,61.34969325,,,,,,,,,,,,,,,,,,,,,,,241.6858,242.8325,a,1,0.4743,,0.4743,1,242.8327,243.3324,,,,,,196,FEM,NOWORD,DIS,150,sira,,el,,243.3325,243.3327,0.183333333,0.215740741,0,0,0,,0,58,58,195,1,tela,,,,
,,,,,,613a563bf2e38ea679f50546,676192165fb32c2e1fb7aee6,67d1f423dac098723e3ac216,2025-03-12_14h57.16.371,Tarea de decisión léxica,2024.2.5,Win32,61.34969325,,,,,,,,,,,,,,,,,,,,,,,243.3344,245.1149,l,1,1.1001,,1.1001,1,245.115,245.6145,,,,,,357,FEM,WORD,AGR,150,bruja,,la,,245.6165,245.6181,0.183333333,0.215740741,0,0,0,,0,59,59,356,1,gruba,,,,
,,,,,,613a563bf2e38ea679f50546,676192165fb32c2e1fb7aee6,67d1f423dac098723e3ac216,2025-03-12_14h57.16.371,Tarea de decisión léxica,2024.2.5,Win32,61.34969325,,,,,,,,,,,,,,,,,,,,,,,245.6195,247.3634,a,1,1.0664,,1.0664,1,247.3636,247.8628,,,,,,338,MAS,NOWORD,AGR,150,nuejo,,el,,247.8628,247.863,0.183333333,0.215740741,0,0,0,,0,60,60,337,1,huevo,,,,
,,,,,,613a563bf2e38ea679f50546,676192165fb32c2e1fb7aee6,67d1f423dac098723e3ac216,2025-03-12_14h57.16.371,Tarea de decisión léxica,2024.2.5,Win32,61.34969325,,,,,,,,,,,,,,,,,,,,,,,247.8649,249.5117,a,1,0.9687,,0.9687,1,249.5119,250.0115,,,,,,350,MAS,NOWORD,AGR,150,cosir,,el,,250.0116,250.0118,0.183333333,0.215740741,0,0,0,,0,61,61,349,1,color,,,,
,,,,,,613a563bf2e38ea679f50546,676192165fb32c2e1fb7aee6,67d1f423dac098723e3ac216,2025-03-12_14h57.16.371,Tarea de decisión léxica,2024.2.5,Win32,61.34969325,,,,,,,,,,,,,,,,,,,,,,,250.0136,251.2769,l,1,0.588,,0.588,1,251.277,251.7763,,,,,,473,FEM,WORD,AGR,150,feria,,la,,251.7765,251.7767,0.183333333,0.215740741,0,0,0,,0,62,62,472,1,felia,,,,
,,,,,,613a563bf2e38ea679f50546,676192165fb32c2e1fb7aee6,67d1f423dac098723e3ac216,2025-03-12_14h57.16.371,Tarea de decisión léxica,2024.2.5,Win32,61.34969325,,,,,,,,,,,,,,,,,,,,,,,251.7789,253.0258,l,1,0.5672,,0.5672,1,253.026,253.5254,,,,,,227,MAS,WORD,DIS,150,faro,,la,,253.5255,253.5257,0.183333333,0.215740741,0,0,0,,0,63,63,226,1,laro,,,,
,,,,,,613a563bf2e38ea679f50546,676192165fb32c2e1fb7aee6,67d1f423dac098723e3ac216,2025-03-12_14h57.16.371,Tarea de decisión léxica,2024.2.5,Win32,61.34969325,,,,,,,,,,,,,,,,,,,,,,,253.5275,254.8078,a,1,0.6007,,0.6007,1,254.808,255.3073,,,,,,396,FEM,NOWORD,DIS,150,paeda,,el,,255.309,255.3101,0.183333333,0.215740741,0,0,0,,0,64,64,395,1,caída,,,,
,,,,,,613a563bf2e38ea679f50546,676192165fb32c2e1fb7aee6,67d1f423dac098723e3ac216,2025-03-12_14h57.16.371,Tarea de decisión léxica,2024.2.5,Win32,61.34969325,,,,,,,,,,,,,,,,,,,,,,,255.3115,257.1398,l,0,1.1502,,1.1502,0,257.1412,257.6396,,,,,,304,MAS,NOWORD,DIS,150,lanco,,la,,257.6396,257.6399,0.183333333,0.215740741,0,0,0,,0,65,65,303,1,barco,,,,
,,,,,,613a563bf2e38ea679f50546,676192165fb32c2e1fb7aee6,67d1f423dac098723e3ac216,2025-03-12_14h57.16.371,Tarea de decisión léxica,2024.2.5,Win32,61.34969325,,,,,,,,,,,,,,,,,,,,,,,257.6416,259.2048,a,1,0.8872,,0.8872,1,259.206,259.7045,,,,,,198,MAS,NOWORD,AGR,150,dade,,el,,259.7045,259.7047,0.183333333,0.215740741,0,0,0,,0,66,66,197,1,bate,,,,
,,,,,,613a563bf2e38ea679f50546,676192165fb32c2e1fb7aee6,67d1f423dac098723e3ac216,2025-03-12_14h57.16.371,Tarea de decisión léxica,2024.2.5,Win32,61.34969325,,,,,,,,,,,,,,,,,,,,,,,259.7068,261.2204,a,1,0.8388,,0.8388,1,261.2205,261.7201,,,,,,94,FEM,NOWORD,AGR,150,rona,,la,,261.7202,261.7203,0.183333333,0.215740741,0,0,0,,0,67,67,93,1,bola,,,,
,,,,,,613a563bf2e38ea679f50546,676192165fb32c2e1fb7aee6,67d1f423dac098723e3ac216,2025-03-12_14h57.16.371,Tarea de decisión léxica,2024.2.5,Win32,61.34969325,,,,,,,,,,,,,,,,,,,,,,,261.7221,263.2024,l,1,0.8004,,0.8004,1,263.2026,263.7018,,,,,,189,MAS,WORD,AGR,150,puño,,el,,263.7019,263.7021,0.183333333,0.215740741,0,0,0,,0,68,68,188,1,muvo,,,,
,,,,,,613a563bf2e38ea679f50546,676192165fb32c2e1fb7aee6,67d1f423dac098723e3ac216,2025-03-12_14h57.16.371,Tarea de decisión léxica,2024.2.5,Win32,61.34969325,,,,,,,,,,,,,,,,,,,,,,,263.704,265.3842,a,1,1.0098,,1.0098,1,265.3843,265.8838,,,,,,114,FEM,NOWORD,AGR,150,tada,,la,,265.8858,265.8873,0.183333333,0.215740741,0,0,0,,0,69,69,113,1,miel,,,,
,,,,,,613a563bf2e38ea679f50546,676192165fb32c2e1fb7aee6,67d1f423dac098723e3ac216,2025-03-12_14h57.16.371,Tarea de decisión léxica,2024.2.5,Win32,61.34969325,,,,,,,,,,,,,,,,,,,,,,,265.8894,267.199,a,1,0.6336,,0.6336,1,267.1992,267.6981,,,,,,306,MAS,NOWORD,AGR,150,adiol,,el,,267.6982,267.6983,0.183333333,0.215740741,0,0,0,,0,70,70,305,1,avión,,,,
,,,,,,613a563bf2e38ea679f50546,676192165fb32c2e1fb7aee6,67d1f423dac098723e3ac216,2025-03-12_14h57.16.371,Tarea de decisión léxica,2024.2.5,Win32,61.34969325,,,,,,,,,,,,,,,,,,,,,,,267.6989,269.0149,a,1,0.6365,,0.6365,1,269.015,269.5141,,,,,,2,FEM,NOWORD,AGR,150,mada,,la,,269.5142,269.5143,0.183333333,0.215740741,0,0,0,,0,71,71,1,1,casa,,,,
,,,,,,613a563bf2e38ea679f50546,676192165fb32c2e1fb7aee6,67d1f423dac098723e3ac216,2025-03-12_14h57.16.371,Tarea de decisión léxica,2024.2.5,Win32,61.34969325,,,,,,,,,,,,,,,,,,,,,,,269.516,270.7305,a,1,0.5341,,0.5341,1,270.7306,271.23,,,,,,14,FEM,NOWORD,AGR,150,nola,,la,,271.23,271.2302,0.183333333,0.215740741,0,0,0,,0,72,72,13,1,hora,,,,
,,,,,,613a563bf2e38ea679f50546,676192165fb32c2e1fb7aee6,67d1f423dac098723e3ac216,2025-03-12_14h57.16.371,Tarea de decisión léxica,2024.2.5,Win32,61.34969325,,,,,,,,,,,,,,,,,,,,,,,271.2321,272.3126,a,1,0.4111,,0.4111,1,272.3128,272.8124,,,,,,216,FEM,NOWORD,DIS,150,raua,,el,,272.8125,272.8126,0.183333333,0.215740741,0,0,0,,0,73,73,215,1,raíz,,,,
,,,,,,613a563bf2e38ea679f50546,676192165fb32c2e1fb7aee6,67d1f423dac098723e3ac216,2025-03-12_14h57.16.371,Tarea de decisión léxica,2024.2.5,Win32,61.34969325,,,,,,,,,,,,,,,,,,,,,,,272.8146,273.9944,l,1,0.5079,,0.5079,1,273.9945,274.4941,,,,,,343,FEM,WORD,DIS,150,plata,,el,,274.496,274.4973,0.183333333,0.215740741,0,0,0,,0,74,74,342,1,trada,,,,
,,,,,,613a563bf2e38ea679f50546,676192165fb32c2e1fb7aee6,67d1f423dac098723e3ac216,2025-03-12_14h57.16.371,Tarea de decisión léxica,2024.2.5,Win32,61.34969325,,,,,,,,,,,,,,,,,,,,,,,274.4988,275.8265,l,1,0.6572,,0.6572,1,275.8266,276.326,,,,,,129,MAS,WORD,AGR,150,oído,,el,,276.3261,276.3262,0.183333333,0.215740741,0,0,0,,0,75,75,128,1,pima,,,,
,,,,,,613a563bf2e38ea679f50546,676192165fb32c2e1fb7aee6,67d1f423dac098723e3ac216,2025-03-12_14h57.16.371,Tarea de decisión léxica,2024.2.5,Win32,61.34969325,,,,,,,,,,,,,,,,,,,,,,,276.3273,277.5091,l,1,0.5048,,0.5048,1,277.5092,278.0083,,,,,,345,FEM,WORD,AGR,150,arena,,la,,278.0084,278.0086,0.183333333,0.215740741,0,0,0,,0,76,76,344,1,anera,,,,
,,,,,,613a563bf2e38ea679f50546,676192165fb32c2e1fb7aee6,67d1f423dac098723e3ac216,2025-03-12_14h57.16.371,Tarea de decisión léxica,2024.2.5,Win32,61.34969325,,,,,,,,,,,,,,,,,,,,,,,278.0107,279.0575,l,1,0.375,,0.375,1,279.0576,279.5575,,,,,,15,FEM,WORD,DIS,150,idea,,el,,279.5577,279.558,0.183333333,0.215740741,0,0,0,,0,77,77,14,1,odea,,,,
,,,,,,613a563bf2e38ea679f50546,676192165fb32c2e1fb7aee6,67d1f423dac098723e3ac216,2025-03-12_14h57.16.371,Tarea de decisión léxica,2024.2.5,Win32,61.34969325,,,,,,,,,,,,,,,,,,,,,,,279.5599,280.673,l,1,0.4414,,0.4414,1,280.6731,281.1727,,,,,,221,FEM,WORD,AGR,150,mula,,la,,281.1728,281.173,0.183333333,0.215740741,0,0,0,,0,78,78,220,1,puca,,,,
,,,,,,613a563bf2e38ea679f50546,676192165fb32c2e1fb7aee6,67d1f423dac098723e3ac216,2025-03-12_14h57.16.371,Tarea de decisión léxica,2024.2.5,Win32,61.34969325,,,,,,,,,,,,,,,,,,,,,,,281.1746,282.3224,a,1,0.467,,0.467,1,282.3225,282.8213,,,,,,50,FEM,NOWORD,AGR,150,ecat,,la,,282.8221,282.8225,0.183333333,0.215740741,0,0,0,,0,79,79,49,1,edad,,,,
,,,,,,613a563bf2e38ea679f50546,676192165fb32c2e1fb7aee6,67d1f423dac098723e3ac216,2025-03-12_14h57.16.371,Tarea de decisión léxica,2024.2.5,Win32,61.34969325,,,,,,,,,,,,,,,,,,,,,,,282.8232,284.0043,a,1,0.5004,,0.5004,1,284.0046,284.5043,,,,,,368,MAS,NOWORD,DIS,150,rerob,,la,,284.5045,284.5047,0.183333333,0.215740741,0,0,0,,0,80,80,367,1,reloj,,,,
,,,,,,613a563bf2e38ea679f50546,676192165fb32c2e1fb7aee6,67d1f423dac098723e3ac216,2025-03-12_14h57.16.371,Tarea de decisión léxica,2024.2.5,Win32,61.34969325,,,,,,,,,,,,,,,,,,,,,,,284.5068,285.5697,a,1,0.3924,,0.3924,1,285.5698,286.0696,,,,,,402,MAS,NOWORD,AGR,150,pirvo,,el,,286.0697,286.0698,0.183333333,0.215740741,0,0,0,,0,81,81,401,1,polvo,,,,
,,,,,,613a563bf2e38ea679f50546,676192165fb32c2e1fb7aee6,67d1f423dac098723e3ac216,2025-03-12_14h57.16.371,Tarea de decisión léxica,2024.2.5,Win32,61.34969325,,,,,,,,,,,,,,,,,,,,,,,286.0716,287.119,a,0,0.367,,0.367,0,287.1205,287.6184,,,,,,99,MAS,WORD,DIS,150,lobo,,la,,287.6184,287.6185,0.183333333,0.215740741,0,0,0,,0,82,82,98,1,soro,,,,
,,,,,,613a563bf2e38ea679f50546,676192165fb32c2e1fb7aee6,67d1f423dac098723e3ac216,2025-03-12_14h57.16.371,Tarea de decisión léxica,2024.2.5,Win32,61.34969325,,,,,,,,,,,,,,,,,,,,,,,287.6202,288.8512,a,0,0.5501,,0.5501,0,288.8513,289.3508,,,,,,223,FEM,WORD,DIS,150,cera,,el,,289.3529,289.3543,0.183333333,0.215740741,0,0,0,,0,83,83,222,1,cira,,,,
,,,,,,613a563bf2e38ea679f50546,676192165fb32c2e1fb7aee6,67d1f423dac098723e3ac216,2025-03-12_14h57.16.371,Tarea de decisión léxica,2024.2.5,Win32,61.34969325,,,,,,,,,,,,,,,,,,,,,,,289.3559,291.0997,a,0,1.0666,,1.0666,0,291.1,291.5993,,,,,,131,FEM,WORD,DIS,150,mina,,el,,291.5994,291.5998,0.183333333,0.215740741,0,0,0,,0,84,84,130,1,fada,,,,
,,,,,,613a563bf2e38ea679f50546,676192165fb32c2e1fb7aee6,67d1f423dac098723e3ac216,2025-03-12_14h57.16.371,Tarea de decisión léxica,2024.2.5,Win32,61.34969325,,,,,,,,,,,,,,,,,,,,,,,291.6019,293.3645,a,1,1.089,,1.089,1,293.3659,293.8642,,,,,,42,FEM,NOWORD,AGR,150,haje,,la,,293.8642,293.8644,0.183333333,0.215740741,0,0,0,,0,85,85,41,1,nave,,,,
,,,,,,613a563bf2e38ea679f50546,676192165fb32c2e1fb7aee6,67d1f423dac098723e3ac216,2025-03-12_14h57.16.371,Tarea de decisión léxica,2024.2.5,Win32,61.34969325,,,,,,,,,,,,,,,,,,,,,,,293.8661,295.2801,a,1,0.735,,0.735,1,295.2802,295.7797,,,,,,412,MAS,NOWORD,DIS,150,mobro,,la,,295.7798,295.78,0.183333333,0.215740741,0,0,0,,0,86,86,411,1,pollo,,,,
,,,,,,613a563bf2e38ea679f50546,676192165fb32c2e1fb7aee6,67d1f423dac098723e3ac216,2025-03-12_14h57.16.371,Tarea de decisión léxica,2024.2.5,Win32,61.34969325,,,,,,,,,,,,,,,,,,,,,,,295.7818,297.5785,l,1,1.1165,,1.1165,1,297.5787,298.0778,,,,,,295,MAS,WORD,DIS,150,dolor,,la,,298.0779,298.078,0.183333333,0.215740741,0,0,0,,0,87,87,294,1,goler,,,,
,,,,,,613a563bf2e38ea679f50546,676192165fb32c2e1fb7aee6,67d1f423dac098723e3ac216,2025-03-12_14h57.16.371,Tarea de decisión léxica,2024.2.5,Win32,61.34969325,,,,,,,,,,,,,,,,,,,,,,,298.0798,299.3436,l,1,0.5833,,0.5833,1,299.3437,299.8431,,,,,,323,FEM,WORD,DIS,150,cinta,,el,,299.8447,299.8457,0.183333333,0.215740741,0,0,0,,0,88,88,322,1,certa,,,,
,,,,,,613a563bf2e38ea679f50546,676192165fb32c2e1fb7aee6,67d1f423dac098723e3ac216,2025-03-12_14h57.16.371,Tarea de decisión léxica,2024.2.5,Win32,61.34969325,,,,,,,,,,,,,,,,,,,,,,,299.8467,301.1585,a,1,0.6324,,0.6324,1,301.1586,301.6589,,,,,,168,FEM,NOWORD,DIS,150,zifa,,el,,301.659,301.6591,0.183333333,0.215740741,0,0,0,,0,89,89,167,1,jefa,,,,
,,,,,,613a563bf2e38ea679f50546,676192165fb32c2e1fb7aee6,67d1f423dac098723e3ac216,2025-03-12_14h57.16.371,Tarea de decisión léxica,2024.2.5,Win32,61.34969325,,,,,,,,,,,,,,,,,,,,,,,301.6609,302.925,a,1,0.5844,,0.5844,1,302.9251,303.4242,,,,,,68,FEM,NOWORD,DIS,150,gesa,,el,,303.4243,303.4244,0.183333333,0.215740741,0,0,0,,0,90,90,67,1,nena,,,,
,,,,,,613a563bf2e38ea679f50546,676192165fb32c2e1fb7aee6,67d1f423dac098723e3ac216,2025-03-12_14h57.16.371,Tarea de decisión léxica,2024.2.5,Win32,61.34969325,,,,,,,,,,,,,,,,,,,,,,,303.4265,305.2234,a,1,1.1168,,1.1168,1,305.2236,305.723,,,,,,310,FEM,NOWORD,AGR,150,tirra,,la,,305.7231,305.7234,0.183333333,0.215740741,0,0,0,,0,91,91,309,1,silla,,,,
,,,,,,613a563bf2e38ea679f50546,676192165fb32c2e1fb7aee6,67d1f423dac098723e3ac216,2025-03-12_14h57.16.371,Tarea de decisión léxica,2024.2.5,Win32,61.34969325,,,,,,,,,,,,,,,,,,,,,,,305.7252,307.2552,a,1,0.851,,0.851,1,307.2554,307.7542,,,,,,424,MAS,NOWORD,DIS,150,quigo,,la,,307.7542,307.7544,0.183333333,0.215740741,0,0,0,,0,92,92,423,1,queso,,,,
,,,,,,613a563bf2e38ea679f50546,676192165fb32c2e1fb7aee6,67d1f423dac098723e3ac216,2025-03-12_14h57.16.371,Tarea de decisión léxica,2024.2.5,Win32,61.34969325,,,,,,,,,,,,,,,,,,,,,,,307.7558,309.0706,a,1,0.637,,0.637,1,309.0707,309.5701,,,,,,82,FEM,NOWORD,AGR,150,vasa,,la,,309.5722,309.5737,0.183333333,0.215740741,0,0,0,,0,93,93,81,1,dama,,,,
,,,,,,613a563bf2e38ea679f50546,676192165fb32c2e1fb7aee6,67d1f423dac098723e3ac216,2025-03-12_14h57.16.371,Tarea de decisión léxica,2024.2.5,Win32,61.34969325,,,,,,,,,,,,,,,,,,,,,,,309.5752,310.9354,a,1,0.6831,,0.6831,1,310.9355,311.4353,,,,,,426,FEM,NOWORD,AGR,150,virca,,la,,311.4354,311.4355,0.183333333,0.215740741,0,0,0,,0,94,94,425,1,viuda,,,,
,,,,,,613a563bf2e38ea679f50546,676192165fb32c2e1fb7aee6,67d1f423dac098723e3ac216,2025-03-12_14h57.16.371,Tarea de decisión léxica,2024.2.5,Win32,61.34969325,,,,,,,,,,,,,,,,,,,,,,,311.4373,312.8679,a,1,0.7498,,0.7498,1,312.868,313.3666,,,,,,320,MAS,NOWORD,DIS,150,tuero,,la,,313.3666,313.3667,0.183333333,0.215740741,0,0,0,,0,95,95,319,1,suelo,,,,
,,,,,,613a563bf2e38ea679f50546,676192165fb32c2e1fb7aee6,67d1f423dac098723e3ac216,2025-03-12_14h57.16.371,Tarea de decisión léxica,2024.2.5,Win32,61.34969325,,,,,,,,,,,,,,,,,,,,,,,313.3674,314.5664,l,1,0.5167,,0.5167,1,314.5666,315.066,,,,,,309,FEM,WORD,AGR,150,silla,,la,,315.0661,315.0663,0.183333333,0.215740741,0,0,0,,0,96,96,308,1,tirra,,,,
,,,,,,613a563bf2e38ea679f50546,676192165fb32c2e1fb7aee6,67d1f423dac098723e3ac216,2025-03-12_14h57.16.371,Tarea de decisión léxica,2024.2.5,Win32,61.34969325,,,,,,,,,,,,,,,,,,,,,,,315.0681,316.2818,l,1,0.5414,,0.5414,1,316.2819,316.7816,,,,,,479,MAS,WORD,DIS,150,rumbo,,la,,316.7817,316.7818,0.183333333,0.215740741,0,0,0,,0,97,97,478,1,rimpo,,,,
,,,,,,613a563bf2e38ea679f50546,676192165fb32c2e1fb7aee6,67d1f423dac098723e3ac216,2025-03-12_14h57.16.371,Tarea de decisión léxica,2024.2.5,Win32,61.34969325,,,,,,,,,,,,,,,,,,,,,,,316.7838,317.9306,a,1,0.474,,0.474,1,317.9307,318.4307,,,,,,444,MAS,NOWORD,DIS,150,taron,,la,,318.4328,318.4366,0.183333333,0.215740741,0,0,0,,0,98,98,443,1,salón,,,,
,,,,,,613a563bf2e38ea679f50546,676192165fb32c2e1fb7aee6,67d1f423dac098723e3ac216,2025-03-12_14h57.16.371,Tarea de decisión léxica,2024.2.5,Win32,61.34969325,,,,,,,,,,,,,,,,,,,,,,,318.4383,319.8963,a,1,0.7851,,0.7851,1,319.8964,320.3959,,,,,,362,FEM,NOWORD,AGR,150,solle,,la,,320.396,320.3962,0.183333333,0.215740741,0,0,0,,0,99,99,361,1,torre,,,,
,,,,,,613a563bf2e38ea679f50546,676192165fb32c2e1fb7aee6,67d1f423dac098723e3ac216,2025-03-12_14h57.16.371,Tarea de decisión léxica,2024.2.5,Win32,61.34969325,,,,,,,,,,,,,,,,,,,,,,,320.398,321.661,a,1,0.5822,,0.5822,1,321.6611,322.1614,,,,,,160,MAS,NOWORD,DIS,150,bilo,,la,,322.1614,322.1616,0.183333333,0.215740741,0,0,0,,0,100,100,159,1,giro,,,,
,,,,,,613a563bf2e38ea679f50546,676192165fb32c2e1fb7aee6,67d1f423dac098723e3ac216,2025-03-12_14h57.16.371,Tarea de decisión léxica,2024.2.5,Win32,61.34969325,,,,,,,,,,,,,,,,,,,,,,,322.1634,323.2606,a,1,0.4225,,0.4225,1,323.2608,323.7598,,,,,,290,FEM,NOWORD,AGR,150,bumpa,,la,,323.7598,323.7598,0.183333333,0.215740741,0,0,0,,0,101,101,289,1,bomba,,,,
,,,,,,613a563bf2e38ea679f50546,676192165fb32c2e1fb7aee6,67d1f423dac098723e3ac216,2025-03-12_14h57.16.371,Tarea de decisión léxica,2024.2.5,Win32,61.34969325,,,,,,,,,,,,,,,,,,,,,,,323.7609,325.0262,l,1,0.5841,,0.5841,1,325.0264,325.5257,,,,,,403,FEM,WORD,DIS,150,prima,,el,,325.5258,325.5259,0.183333333,0.215740741,0,0,0,,0,102,102,402,1,grisa,,,,
,,,,,,613a563bf2e38ea679f50546,676192165fb32c2e1fb7aee6,67d1f423dac098723e3ac216,2025-03-12_14h57.16.371,Tarea de decisión léxica,2024.2.5,Win32,61.34969325,,,,,,,,,,,,,,,,,,,,,,,325.5289,326.9747,l,1,0.77,,0.77,1,326.9749,327.4743,,,,,,211,FEM,WORD,DIS,150,joya,,el,,327.4766,327.478,0.183333333,0.215740741,0,0,0,,0,103,103,210,1,joad,,,,
,,,,,,613a563bf2e38ea679f50546,676192165fb32c2e1fb7aee6,67d1f423dac098723e3ac216,2025-03-12_14h57.16.371,Tarea de decisión léxica,2024.2.5,Win32,61.34969325,,,,,,,,,,,,,,,,,,,,,,,327.4797,328.74,a,1,0.5895,,0.5895,1,328.7403,329.2397,,,,,,286,MAS,NOWORD,AGR,150,echor,,el,,329.2398,329.24,0.183333333,0.215740741,0,0,0,,0,104,104,285,1,error,,,,
,,,,,,613a563bf2e38ea679f50546,676192165fb32c2e1fb7aee6,67d1f423dac098723e3ac216,2025-03-12_14h57.16.371,Tarea de decisión léxica,2024.2.5,Win32,61.34969325,,,,,,,,,,,,,,,,,,,,,,,329.2418,330.4392,a,1,0.5216,,0.5216,1,330.4393,330.9388,,,,,,386,FEM,NOWORD,AGR,150,febra,,la,,330.9389,330.939,0.183333333,0.215740741,0,0,0,,0,105,105,385,1,letra,,,,
,,,,,,613a563bf2e38ea679f50546,676192165fb32c2e1fb7aee6,67d1f423dac098723e3ac216,2025-03-12_14h57.16.371,Tarea de decisión léxica,2024.2.5,Win32,61.34969325,,,,,,,,,,,,,,,,,,,,,,,330.9408,332.221,a,1,0.605,,0.605,1,332.2211,332.7205,,,,,,84,FEM,NOWORD,DIS,150,taga,,el,,332.7206,332.7208,0.183333333,0.215740741,0,0,0,,0,106,106,83,1,bala,,,,
,,,,,,613a563bf2e38ea679f50546,676192165fb32c2e1fb7aee6,67d1f423dac098723e3ac216,2025-03-12_14h57.16.371,Tarea de decisión léxica,2024.2.5,Win32,61.34969325,,,,,,,,,,,,,,,,,,,,,,,332.7227,333.8029,l,1,0.4073,,0.4073,1,333.8031,334.303,,,,,,97,MAS,WORD,AGR,150,mono,,el,,334.3052,334.3068,0.183333333,0.215740741,0,0,0,,0,107,107,96,1,fopo,,,,
,,,,,,613a563bf2e38ea679f50546,676192165fb32c2e1fb7aee6,67d1f423dac098723e3ac216,2025-03-12_14h57.16.371,Tarea de decisión léxica,2024.2.5,Win32,61.34969325,,,,,,,,,,,,,,,,,,,,,,,334.3083,335.4188,l,1,0.4332,,0.4332,1,335.4189,335.9186,,,,,,217,MAS,WORD,AGR,150,luto,,el,,335.9187,335.9188,0.183333333,0.215740741,0,0,0,,0,108,108,216,1,budo,,,,
,,,,,,613a563bf2e38ea679f50546,676192165fb32c2e1fb7aee6,67d1f423dac098723e3ac216,2025-03-12_14h57.16.371,Tarea de decisión léxica,2024.2.5,Win32,61.34969325,,,,,,,,,,,,,,,,,,,,,,,335.9209,336.8679,l,0,0.2675,,0.2675,0,336.8694,337.3676,,,,,,180,MAS,NOWORD,DIS,150,sono,,la,,337.3676,337.3679,0.183333333,0.215740741,0,0,0,,0,109,109,179,1,toro,,,,
,,,,,,613a563bf2e38ea679f50546,676192165fb32c2e1fb7aee6,67d1f423dac098723e3ac216,2025-03-12_14h57.16.371,Tarea de decisión léxica,2024.2.5,Win32,61.34969325,,,,,,,,,,,,,,,,,,,,,,,337.3697,339.2161,a,1,1.1659,,1.1659,1,339.2174,339.716,,,,,,366,FEM,NOWORD,AGR,150,gulla,,la,,339.7161,339.7163,0.183333333,0.215740741,0,0,0,,0,110,110,365,1,ducha,,,,
,,,,,,613a563bf2e38ea679f50546,676192165fb32c2e1fb7aee6,67d1f423dac098723e3ac216,2025-03-12_14h57.16.371,Tarea de decisión léxica,2024.2.5,Win32,61.34969325,,,,,,,,,,,,,,,,,,,,,,,339.718,340.9819,l,1,0.5895,,0.5895,1,340.982,341.4815,,,,,,59,FEM,WORD,DIS,150,sala,,el,,341.4815,341.4817,0.183333333,0.215740741,0,0,0,,0,111,111,58,1,tafa,,,,
,,,,,,613a563bf2e38ea679f50546,676192165fb32c2e1fb7aee6,67d1f423dac098723e3ac216,2025-03-12_14h57.16.371,Tarea de decisión léxica,2024.2.5,Win32,61.34969325,,,,,,,,,,,,,,,,,,,,,,,341.4835,342.8136,l,1,0.6501,,0.6501,1,342.8137,343.3134,,,,,,253,MAS,WORD,AGR,150,chico,,el,,343.3153,343.3166,0.183333333,0.215740741,0,0,0,,0,112,112,252,1,trido,,,,
,,,,,,613a563bf2e38ea679f50546,676192165fb32c2e1fb7aee6,67d1f423dac098723e3ac216,2025-03-12_14h57.16.371,Tarea de decisión léxica,2024.2.5,Win32,61.34969325,,,,,,,,,,,,,,,,,,,,,,,343.3179,344.5455,l,1,0.5585,,0.5585,1,344.5457,345.0455,,,,,,275,MAS,WORD,DIS,150,punto,,la,,345.0456,345.0458,0.183333333,0.215740741,0,0,0,,0,113,113,274,1,musto,,,,
,,,,,,613a563bf2e38ea679f50546,676192165fb32c2e1fb7aee6,67d1f423dac098723e3ac216,2025-03-12_14h57.16.371,Tarea de decisión léxica,2024.2.5,Win32,61.34969325,,,,,,,,,,,,,,,,,,,,,,,345.0475,346.2947,l,1,0.5664,,0.5664,1,346.2949,346.7941,,,,,,407,FEM,WORD,DIS,150,cueva,,el,,346.7942,346.7944,0.183333333,0.215740741,0,0,0,,0,114,114,406,1,cauba,,,,
,,,,,,613a563bf2e38ea679f50546,676192165fb32c2e1fb7aee6,67d1f423dac098723e3ac216,2025-03-12_14h57.16.371,Tarea de decisión léxica,2024.2.5,Win32,61.34969325,,,,,,,,,,,,,,,,,,,,,,,346.7964,347.9603,a,1,0.4934,,0.4934,1,347.9605,348.4598,,,,,,312,MAS,NOWORD,DIS,150,nosor,,la,,348.4599,348.46,0.183333333,0.215740741,0,0,0,,0,115,115,311,1,honor,,,,
,,,,,,613a563bf2e38ea679f50546,676192165fb32c2e1fb7aee6,67d1f423dac098723e3ac216,2025-03-12_14h57.16.371,Tarea de decisión léxica,2024.2.5,Win32,61.34969325,,,,,,,,,,,,,,,,,,,,,,,348.4617,350.0256,l,1,0.8825,,0.8825,1,350.0257,350.5251,,,,,,353,FEM,WORD,AGR,150,celda,,la,,350.5252,350.5253,0.183333333,0.215740741,0,0,0,,0,116,116,352,1,cezca,,,,
,,,,,,613a563bf2e38ea679f50546,676192165fb32c2e1fb7aee6,67d1f423dac098723e3ac216,2025-03-12_14h57.16.371,Tarea de decisión léxica,2024.2.5,Win32,61.34969325,,,,,,,,,,,,,,,,,,,,,,,350.5271,351.8242,l,1,0.6185,,0.6185,1,351.8244,352.3237,,,,,,439,FEM,WORD,DIS,150,presa,,el,,352.3252,352.3264,0.183333333,0.215740741,0,0,0,,0,117,117,438,1,prema,,,,
,,,,,,613a563bf2e38ea679f50546,676192165fb32c2e1fb7aee6,67d1f423dac098723e3ac216,2025-03-12_14h57.16.371,Tarea de decisión léxica,2024.2.5,Win32,61.34969325,,,,,,,,,,,,,,,,,,,,,,,352.3275,353.3563,l,1,0.3558,,0.3558,1,353.3564,353.8559,,,,,,103,FEM,WORD,DIS,150,ruta,,el,,353.856,353.8562,0.183333333,0.215740741,0,0,0,,0,118,118,102,1,rova,,,,
,,,,,,613a563bf2e38ea679f50546,676192165fb32c2e1fb7aee6,67d1f423dac098723e3ac216,2025-03-12_14h57.16.371,Tarea de decisión léxica,2024.2.5,Win32,61.34969325,,,,,,,,,,,,,,,,,,,,,,,353.858,355.3376,a,1,0.805,,0.805,1,355.3377,355.838,,,,,,36,MAS,NOWORD,DIS,150,meno,,la,,355.8382,355.8383,0.183333333,0.215740741,0,0,0,,0,119,119,35,1,pelo,,,,
,,,,,,613a563bf2e38ea679f50546,676192165fb32c2e1fb7aee6,67d1f423dac098723e3ac216,2025-03-12_14h57.16.371,Tarea de decisión léxica,2024.2.5,Win32,61.34969325,,,,,,,,,,,,,,,,,,,,,,,355.8403,357.1701,l,1,0.6575,,0.6575,1,357.1702,357.6701,,,,,,65,MAS,WORD,AGR,150,dios,,el,,357.6702,357.6704,0.183333333,0.215740741,0,0,0,,0,120,120,64,1,nios,,,,
,,,,,,613a563bf2e38ea679f50546,676192165fb32c2e1fb7aee6,67d1f423dac098723e3ac216,2025-03-12_14h57.16.371,Tarea de decisión léxica,2024.2.5,Win32,61.34969325,,,,,,,,,,,,,,,,,,,,,,,357.6722,358.8195,l,1,0.4684,,0.4684,1,358.8196,359.3189,,,,,,379,MAS,WORD,DIS,150,turno,,la,,359.319,359.3191,0.183333333,0.215740741,0,0,0,,0,121,121,378,1,tunso,,,,
,,,,,,613a563bf2e38ea679f50546,676192165fb32c2e1fb7aee6,67d1f423dac098723e3ac216,2025-03-12_14h57.16.371,Tarea de decisión léxica,2024.2.5,Win32,61.34969325,,,,,,,,,,,,,,,,,,,,,,,359.3209,360.5017,l,1,0.504,,0.504,1,360.5018,361.0012,,,,,,157,MAS,WORD,AGR,150,nido,,el,,361.0033,361.0046,0.183333333,0.215740741,0,0,0,,0,122,122,156,1,hico,,,,
,,,,,,613a563bf2e38ea679f50546,676192165fb32c2e1fb7aee6,67d1f423dac098723e3ac216,2025-03-12_14h57.16.371,Tarea de decisión léxica,2024.2.5,Win32,61.34969325,,,,,,,,,,,,,,,,,,,,,,,361.006,362.1,l,1,0.4233,,0.4233,1,362.1002,362.5999,,,,,,457,MAS,WORD,AGR,150,plato,,el,,362.6,362.6002,0.183333333,0.215740741,0,0,0,,0,123,123,456,1,glaco,,,,
,,,,,,613a563bf2e38ea679f50546,676192165fb32c2e1fb7aee6,67d1f423dac098723e3ac216,2025-03-12_14h57.16.371,Tarea de decisión léxica,2024.2.5,Win32,61.34969325,,,,,,,,,,,,,,,,,,,,,,,362.6024,363.816,a,1,0.544,,0.544,1,363.8162,364.3154,,,,,,460,MAS,NOWORD,DIS,150,fraco,,la,,364.3155,364.3157,0.183333333,0.215740741,0,0,0,,0,124,124,459,1,grado,,,,
,,,,,,613a563bf2e38ea679f50546,676192165fb32c2e1fb7aee6,67d1f423dac098723e3ac216,2025-03-12_14h57.16.371,Tarea de decisión léxica,2024.2.5,Win32,61.34969325,,,,,,,,,,,,,,,,,,,,,,,364.3174,365.7977,l,1,0.8041,,0.8041,1,365.7977,366.2975,,,,,,287,FEM,WORD,DIS,150,lista,,el,,366.2975,366.2978,0.183333333,0.215740741,0,0,0,,0,125,125,286,1,fosta,,,,
,,,,,,613a563bf2e38ea679f50546,676192165fb32c2e1fb7aee6,67d1f423dac098723e3ac216,2025-03-12_14h57.16.371,Tarea de decisión léxica,2024.2.5,Win32,61.34969325,,,,,,,,,,,,,,,,,,,,,,,366.2994,367.5801,l,1,0.6062,,0.6062,1,367.5802,368.0797,,,,,,39,MAS,WORD,DIS,150,voto,,la,,368.0798,368.0799,0.183333333,0.215740741,0,0,0,,0,126,126,38,1,redo,,,,
,,,,,,613a563bf2e38ea679f50546,676192165fb32c2e1fb7aee6,67d1f423dac098723e3ac216,2025-03-12_14h57.16.371,Tarea de decisión léxica,2024.2.5,Win32,61.34969325,,,,,,,,,,,,,,,,,,,,,,,368.0817,369.162,l,1,0.4005,,0.4005,1,369.1622,369.6617,,,,,,443,MAS,WORD,DIS,150,salón,,la,,369.6638,369.6651,0.183333333,0.215740741,0,0,0,,0,127,127,442,1,taron,,,,
,,,,,,613a563bf2e38ea679f50546,676192165fb32c2e1fb7aee6,67d1f423dac098723e3ac216,2025-03-12_14h57.16.371,Tarea de decisión léxica,2024.2.5,Win32,61.34969325,,,,,,,,,,,,,,,,,,,,,,,369.6666,370.6109,l,1,0.2736,,0.2736,1,370.611,371.1106,,,,,,421,MAS,WORD,AGR,150,primo,,el,,371.1107,371.1109,0.183333333,0.215740741,0,0,0,,0,128,128,420,1,griso,,,,
,,,,,,613a563bf2e38ea679f50546,676192165fb32c2e1fb7aee6,67d1f423dac098723e3ac216,2025-03-12_14h57.16.371,Tarea de decisión léxica,2024.2.5,Win32,61.34969325,,,,,,,,,,,,,,,,,,,,,,,371.1126,372.36,a,1,0.569,,0.569,1,372.3601,372.8592,,,,,,32,FEM,NOWORD,DIS,150,bova,,el,,372.8592,372.8593,0.183333333,0.215740741,0,0,0,,0,129,129,31,1,ropa,,,,
,,,,,,613a563bf2e38ea679f50546,676192165fb32c2e1fb7aee6,67d1f423dac098723e3ac216,2025-03-12_14h57.16.371,Tarea de decisión léxica,2024.2.5,Win32,61.34969325,,,,,,,,,,,,,,,,,,,,,,,372.8603,374.2083,a,1,0.6758,,0.6758,1,374.2084,374.7082,,,,,,420,MAS,NOWORD,DIS,150,chudo,,la,,374.7083,374.7084,0.183333333,0.215740741,0,0,0,,0,130,130,419,1,truco,,,,
,,,,,,613a563bf2e38ea679f50546,676192165fb32c2e1fb7aee6,67d1f423dac098723e3ac216,2025-03-12_14h57.16.371,Tarea de decisión léxica,2024.2.5,Win32,61.34969325,,,,,,,,,,,,,,,,,,,,,,,374.7102,375.8743,a,1,0.4835,,0.4835,1,375.8746,376.374,,,,,,110,MAS,NOWORD,AGR,150,suno,,el,,376.376,376.3773,0.183333333,0.215740741,0,0,0,,0,131,131,109,1,rayo,,,,
,,,,,,613a563bf2e38ea679f50546,676192165fb32c2e1fb7aee6,67d1f423dac098723e3ac216,2025-03-12_14h57.16.371,Tarea de decisión léxica,2024.2.5,Win32,61.34969325,,,,,,,,,,,,,,,,,,,,,,,376.3788,377.5894,a,1,0.5336,,0.5336,1,377.5895,378.0893,,,,,,106,FEM,NOWORD,AGR,150,vina,,la,,378.0894,378.0896,0.183333333,0.215740741,0,0,0,,0,132,132,105,1,sopa,,,,
,,,,,,613a563bf2e38ea679f50546,676192165fb32c2e1fb7aee6,67d1f423dac098723e3ac216,2025-03-12_14h57.16.371,Tarea de decisión léxica,2024.2.5,Win32,61.34969325,,,,,,,,,,,,,,,,,,,,,,,378.0913,379.3549,l,1,0.5849,,0.5849,1,379.3551,379.8545,,,,,,13,FEM,WORD,AGR,150,hora,,la,,379.8546,379.8548,0.183333333,0.215740741,0,0,0,,0,133,133,12,1,nola,,,,
,,,,,,613a563bf2e38ea679f50546,676192165fb32c2e1fb7aee6,67d1f423dac098723e3ac216,2025-03-12_14h57.16.371,Tarea de decisión léxica,2024.2.5,Win32,61.34969325,,,,,,,,,,,,,,,,,,,,,,,379.8567,380.9707,l,1,0.4337,,0.4337,1,380.9709,381.4701,,,,,,261,MAS,WORD,AGR,150,sitio,,el,,381.4702,381.4704,0.183333333,0.215740741,0,0,0,,0,134,134,260,1,titio,,,,
,,,,,,613a563bf2e38ea679f50546,676192165fb32c2e1fb7aee6,67d1f423dac098723e3ac216,2025-03-12_14h57.16.371,Tarea de decisión léxica,2024.2.5,Win32,61.34969325,,,,,,,,,,,,,,,,,,,,,,,381.4722,382.4531,l,1,0.3012,,0.3012,1,382.4532,382.9528,,,,,,5,FEM,WORD,AGR,150,cosa,,la,,382.9528,382.953,0.183333333,0.215740741,0,0,0,,0,135,135,4,1,poga,,,,
,,,,,,613a563bf2e38ea679f50546,676192165fb32c2e1fb7aee6,67d1f423dac098723e3ac216,2025-03-12_14h57.16.371,Tarea de decisión léxica,2024.2.5,Win32,61.34969325,,,,,,,,,,,,,,,,,,,,,,,382.9547,383.9187,l,1,0.2834,,0.2834,1,383.9188,384.4181,,,,,,153,MAS,WORD,AGR,150,pato,,el,,384.4202,384.4215,0.183333333,0.215740741,0,0,0,,0,136,136,152,1,tado,,,,
,,,,,,613a563bf2e38ea679f50546,676192165fb32c2e1fb7aee6,67d1f423dac098723e3ac216,2025-03-12_14h57.16.371,Tarea de decisión léxica,2024.2.5,Win32,61.34969325,,,,,,,,,,,,,,,,,,,,,,,384.4229,385.3167,l,1,0.2194,,0.2194,1,385.3167,385.817,,,,,,133,FEM,WORD,AGR,150,vaca,,la,,385.8171,385.8174,0.183333333,0.215740741,0,0,0,,0,137,137,132,1,vesa,,,,
,,,,,,613a563bf2e38ea679f50546,676192165fb32c2e1fb7aee6,67d1f423dac098723e3ac216,2025-03-12_14h57.16.371,Tarea de decisión léxica,2024.2.5,Win32,61.34969325,,,,,,,,,,,,,,,,,,,,,,,385.8202,386.6833,l,1,0.1838,,0.1838,1,386.6836,387.1827,,,,,,235,FEM,WORD,DIS,150,grúa,,el,,387.1828,387.183,0.183333333,0.215740741,0,0,0,,0,138,138,234,1,tria,,,,
,,,,,,613a563bf2e38ea679f50546,676192165fb32c2e1fb7aee6,67d1f423dac098723e3ac216,2025-03-12_14h57.16.371,Tarea de decisión léxica,2024.2.5,Win32,61.34969325,,,,,,,,,,,,,,,,,,,,,,,387.1848,388.0326,l,1,0.1767,,0.1767,1,388.0327,388.5318,,,,,,161,MAS,WORD,AGR,150,coro,,el,,388.532,388.5322,0.183333333,0.215740741,0,0,0,,0,139,139,160,1,bopo,,,,
,,,,,,613a563bf2e38ea679f50546,676192165fb32c2e1fb7aee6,67d1f423dac098723e3ac216,2025-03-12_14h57.16.371,Tarea de decisión léxica,2024.2.5,Win32,61.34969325,,,,,,,,,,,,,,,,,,,,,,,388.534,389.3647,l,1,0.1554,,0.1554,1,389.3649,389.8644,,,,,,419,MAS,WORD,DIS,150,truco,,la,,389.8645,389.8647,0.183333333,0.215740741,0,0,0,,0,140,140,418,1,chudo,,,,
,,,,,,613a563bf2e38ea679f50546,676192165fb32c2e1fb7aee6,67d1f423dac098723e3ac216,2025-03-12_14h57.16.371,Tarea de decisión léxica,2024.2.5,Win32,61.34969325,,,,,,,,,,,,,,,,,,,,,,,389.8667,390.8801,l,1,0.3339,,0.3339,1,390.8803,391.3801,,,,,,231,FEM,WORD,DIS,150,bota,,el,,391.3821,391.3837,0.183333333,0.215740741,0,0,0,,0,141,141,230,1,heta,,,,
,,,,,,613a563bf2e38ea679f50546,676192165fb32c2e1fb7aee6,67d1f423dac098723e3ac216,2025-03-12_14h57.16.371,Tarea de decisión léxica,2024.2.5,Win32,61.34969325,,,,,,,,,,,,,,,,,,,,,,,391.3851,392.2798,l,0,0.227,,0.227,0,392.2812,392.7791,,,,,,256,MAS,NOWORD,DIS,150,mauco,,la,,392.7792,392.7794,0.183333333,0.215740741,0,0,0,,0,142,142,255,1,miedo,,,,
,,,,,,613a563bf2e38ea679f50546,676192165fb32c2e1fb7aee6,67d1f423dac098723e3ac216,2025-03-12_14h57.16.371,Tarea de decisión léxica,2024.2.5,Win32,61.34969325,,,,,,,,,,,,,,,,,,,,,,,392.7812,393.8118,a,1,0.3499,,0.3499,1,393.8133,394.311,,,,,,352,MAS,NOWORD,DIS,150,duepo,,la,,394.311,394.3112,0.183333333,0.215740741,0,0,0,,0,143,143,351,1,vuelo,,,,
,,,,,,613a563bf2e38ea679f50546,676192165fb32c2e1fb7aee6,67d1f423dac098723e3ac216,2025-03-12_14h57.16.371,Tarea de decisión léxica,2024.2.5,Win32,61.34969325,,,,,,,,,,,,,,,,,,,,,,,394.3128,395.5104,l,1,0.5175,,0.5175,1,395.5104,396.0102,,,,,,391,MAS,WORD,DIS,150,dueño,,la,,396.0103,396.0105,0.183333333,0.215740741,0,0,0,,0,144,144,390,1,dievo,,,,
,,,,,,613a563bf2e38ea679f50546,676192165fb32c2e1fb7aee6,67d1f423dac098723e3ac216,2025-03-12_14h57.16.371,Tarea de decisión léxica,2024.2.5,Win32,61.34969325,,,,,,,,,,,,,,,,,,,,,,,396.0122,397.1255,l,1,0.4321,,0.4321,1,397.1256,397.6257,,,,,,423,MAS,WORD,DIS,150,queso,,la,,397.6259,397.626,0.183333333,0.215740741,0,0,0,,0,145,145,422,1,quigo,,,,
,,,,,,613a563bf2e38ea679f50546,676192165fb32c2e1fb7aee6,67d1f423dac098723e3ac216,2025-03-12_14h57.16.371,Tarea de decisión léxica,2024.2.5,Win32,61.34969325,,,,,,,,,,,,,,,,,,,,,,,397.6278,398.9416,a,1,0.634,,0.634,1,398.9418,399.4409,,,,,,334,FEM,NOWORD,AGR,150,dalea,,la,,399.4429,399.4444,0.183333333,0.215740741,0,0,0,,0,146,146,333,1,tarea,,,,
,,,,,,613a563bf2e38ea679f50546,676192165fb32c2e1fb7aee6,67d1f423dac098723e3ac216,2025-03-12_14h57.16.371,Tarea de decisión léxica,2024.2.5,Win32,61.34969325,,,,,,,,,,,,,,,,,,,,,,,399.4457,400.6566,a,1,0.5429,,0.5429,1,400.6567,401.1562,,,,,,268,MAS,NOWORD,DIS,150,figro,,la,,401.1563,401.1564,0.183333333,0.215740741,0,0,0,,0,147,147,267,1,libro,,,,
,,,,,,613a563bf2e38ea679f50546,676192165fb32c2e1fb7aee6,67d1f423dac098723e3ac216,2025-03-12_14h57.16.371,Tarea de decisión léxica,2024.2.5,Win32,61.34969325,,,,,,,,,,,,,,,,,,,,,,,401.1583,402.3387,l,0,0.5074,,0.5074,0,402.34,402.8386,,,,,,96,FEM,NOWORD,DIS,151,neda,,el,,402.8387,402.8389,0.183333333,0.215740741,0,0,0,,0,148,148,95,1,moda,,,,
,,,,,,613a563bf2e38ea679f50546,676192165fb32c2e1fb7aee6,67d1f423dac098723e3ac216,2025-03-12_14h57.16.371,Tarea de decisión léxica,2024.2.5,Win32,61.34969325,,,,,,,,,,,,,,,,,,,,,,,402.8407,404.4545,a,1,0.9332,,0.9332,1,404.4558,404.9538,,,,,,390,MAS,NOWORD,AGR,150,cenco,,el,,404.9539,404.9541,0.183333333,0.215740741,0,0,0,,0,149,149,389,1,cerdo,,,,
,,,,,,613a563bf2e38ea679f50546,676192165fb32c2e1fb7aee6,67d1f423dac098723e3ac216,2025-03-12_14h57.16.371,Tarea de decisión léxica,2024.2.5,Win32,61.34969325,,,,,,,,,,,,,,,,,,,,,,,404.9558,406.2699,a,1,0.6338,,0.6338,1,406.2701,406.7696,,,,,,234,FEM,NOWORD,AGR,150,fasa,,la,,406.7696,406.7698,0.183333333,0.215740741,0,0,0,,0,150,150,233,1,lana,,,,
,,,,,,613a563bf2e38ea679f50546,676192165fb32c2e1fb7aee6,67d1f423dac098723e3ac216,2025-03-12_14h57.16.371,Tarea de decisión léxica,2024.2.5,Win32,61.34969325,,,,,,,,,,,,,,,,,,,,,,,406.7715,408.052,a,1,0.6005,,0.6005,1,408.0521,408.5515,,,,,,288,FEM,NOWORD,DIS,150,fosta,,el,,408.5537,408.555,0.183333333,0.215740741,0,0,0,,0,151,151,287,1,lista,,,,
,,,,,,613a563bf2e38ea679f50546,676192165fb32c2e1fb7aee6,67d1f423dac098723e3ac216,2025-03-12_14h57.16.371,Tarea de decisión léxica,2024.2.5,Win32,61.34969325,,,,,,,,,,,,,,,,,,,,,,,408.5565,409.6502,a,1,0.4248,,0.4248,1,409.6504,410.1503,,,,,,258,FEM,NOWORD,AGR,150,asama,,la,,410.1503,410.1505,0.183333333,0.215740741,0,0,0,,0,152,152,257,1,amiga,,,,
,,,,,,613a563bf2e38ea679f50546,676192165fb32c2e1fb7aee6,67d1f423dac098723e3ac216,2025-03-12_14h57.16.371,Tarea de decisión léxica,2024.2.5,Win32,61.34969325,,,,,,,,,,,,,,,,,,,,,,,410.1524,411.2162,a,0,0.3848,,0.3848,0,411.2174,411.7159,,,,,,7,MAS,WORD,DIS,150,hijo,,la,,411.7159,411.7161,0.183333333,0.215740741,0,0,0,,0,153,153,6,1,nivo,,,,
,,,,,,613a563bf2e38ea679f50546,676192165fb32c2e1fb7aee6,67d1f423dac098723e3ac216,2025-03-12_14h57.16.371,Tarea de decisión léxica,2024.2.5,Win32,61.34969325,,,,,,,,,,,,,,,,,,,,,,,411.7178,412.932,a,1,0.5357,,0.5357,1,412.9333,413.4314,,,,,,176,FEM,NOWORD,DIS,150,hosa,,el,,413.4316,413.4317,0.183333333,0.215740741,0,0,0,,0,154,154,175,1,goma,,,,
,,,,,,613a563bf2e38ea679f50546,676192165fb32c2e1fb7aee6,67d1f423dac098723e3ac216,2025-03-12_14h57.16.371,Tarea de decisión léxica,2024.2.5,Win32,61.34969325,,,,,,,,,,,,,,,,,,,,,,,413.4335,414.6973,l,1,0.5855,,0.5855,1,414.6973,415.1968,,,,,,61,FEM,WORD,AGR,150,obra,,la,,415.1989,415.2004,0.183333333,0.215740741,0,0,0,,0,155,155,60,1,efla,,,,
,,,,,,613a563bf2e38ea679f50546,676192165fb32c2e1fb7aee6,67d1f423dac098723e3ac216,2025-03-12_14h57.16.371,Tarea de decisión léxica,2024.2.5,Win32,61.34969325,,,,,,,,,,,,,,,,,,,,,,,415.2021,416.3793,l,1,0.5076,,0.5076,1,416.3794,416.8791,,,,,,375,FEM,WORD,DIS,150,salsa,,el,,416.8792,416.8793,0.183333333,0.215740741,0,0,0,,0,156,156,374,1,sasna,,,,
,,,,,,613a563bf2e38ea679f50546,676192165fb32c2e1fb7aee6,67d1f423dac098723e3ac216,2025-03-12_14h57.16.371,Tarea de decisión léxica,2024.2.5,Win32,61.34969325,,,,,,,,,,,,,,,,,,,,,,,416.881,418.0949,a,1,0.5361,,0.5361,1,418.095,418.5939,,,,,,356,FEM,NOWORD,DIS,150,bepla,,el,,418.5939,418.594,0.183333333,0.215740741,0,0,0,,0,157,157,355,1,regla,,,,
,,,,,,613a563bf2e38ea679f50546,676192165fb32c2e1fb7aee6,67d1f423dac098723e3ac216,2025-03-12_14h57.16.371,Tarea de decisión léxica,2024.2.5,Win32,61.34969325,,,,,,,,,,,,,,,,,,,,,,,418.5947,419.8936,l,1,0.6208,,0.6208,1,419.8938,420.3935,,,,,,113,FEM,WORD,AGR,150,miel,,la,,420.3935,420.3937,0.183333333,0.215740741,0,0,0,,0,158,158,112,1,tada,,,,
,,,,,,613a563bf2e38ea679f50546,676192165fb32c2e1fb7aee6,67d1f423dac098723e3ac216,2025-03-12_14h57.16.371,Tarea de decisión léxica,2024.2.5,Win32,61.34969325,,,,,,,,,,,,,,,,,,,,,,,420.3957,421.5424,l,1,0.4671,,0.4671,1,421.5424,422.0421,,,,,,265,FEM,WORD,AGR,150,mitad,,la,,422.0421,422.0423,0.183333333,0.215740741,0,0,0,,0,159,159,264,1,pitat,,,,
,,,,,,613a563bf2e38ea679f50546,676192165fb32c2e1fb7aee6,67d1f423dac098723e3ac216,2025-03-12_14h57.16.371,Tarea de decisión léxica,2024.2.5,Win32,61.34969325,,,,,,,,,,,,,,,,,,,,,,,422.044,423.2742,a,1,0.5587,,0.5587,1,423.2743,423.7742,,,,,,210,MAS,NOWORD,AGR,150,dero,,el,,423.7763,447.358,0.183333333,0.215740741,0,0,0,space,0,160,160,209,1,velo,23.5539,,,
,,,,,,613a563bf2e38ea679f50546,676192165fb32c2e1fb7aee6,67d1f423dac098723e3ac216,2025-03-12_14h57.16.371,Tarea de decisión léxica,2024.2.5,Win32,61.34969325,,,,,,,,,,,,,,,,,,,,,,,447.3602,448.7738,a,1,0.7344,,0.7344,1,448.774,449.2733,,,,,,346,FEM,NOWORD,AGR,150,anera,,la,,449.2734,449.2735,0.183333333,0.215740741,0,0,0,,0,161,161,345,1,arena,,,,
,,,,,,613a563bf2e38ea679f50546,676192165fb32c2e1fb7aee6,67d1f423dac098723e3ac216,2025-03-12_14h57.16.371,Tarea de decisión léxica,2024.2.5,Win32,61.34969325,,,,,,,,,,,,,,,,,,,,,,,449.2753,450.506,l,1,0.5581,,0.5581,1,450.5061,451.0057,,,,,,277,MAS,WORD,AGR,150,fuego,,el,,451.0058,451.0059,0.183333333,0.215740741,0,0,0,,0,162,162,276,1,vuemo,,,,
,,,,,,613a563bf2e38ea679f50546,676192165fb32c2e1fb7aee6,67d1f423dac098723e3ac216,2025-03-12_14h57.16.371,Tarea de decisión léxica,2024.2.5,Win32,61.34969325,,,,,,,,,,,,,,,,,,,,,,,451.0077,452.1211,a,1,0.4414,,0.4414,1,452.1212,452.6208,,,,,,438,FEM,NOWORD,AGR,150,glava,,la,,452.6209,452.621,0.183333333,0.215740741,0,0,0,,0,163,163,437,1,plaza,,,,
,,,,,,613a563bf2e38ea679f50546,676192165fb32c2e1fb7aee6,67d1f423dac098723e3ac216,2025-03-12_14h57.16.371,Tarea de decisión léxica,2024.2.5,Win32,61.34969325,,,,,,,,,,,,,,,,,,,,,,,452.6228,453.8034,l,1,0.5004,,0.5004,1,453.8035,454.303,,,,,,263,FEM,WORD,DIS,150,vista,,el,,454.3031,454.3032,0.183333333,0.215740741,0,0,0,,0,164,164,262,1,dosta,,,,
,,,,,,613a563bf2e38ea679f50546,676192165fb32c2e1fb7aee6,67d1f423dac098723e3ac216,2025-03-12_14h57.16.371,Tarea de decisión léxica,2024.2.5,Win32,61.34969325,,,,,,,,,,,,,,,,,,,,,,,454.305,455.6023,a,1,0.6243,,0.6243,1,455.6023,456.1013,,,,,,148,FEM,NOWORD,DIS,150,pama,,el,,456.1021,456.1028,0.183333333,0.215740741,0,0,0,,0,165,165,147,1,hoja,,,,
,,,,,,613a563bf2e38ea679f50546,676192165fb32c2e1fb7aee6,67d1f423dac098723e3ac216,2025-03-12_14h57.16.371,Tarea de decisión léxica,2024.2.5,Win32,61.34969325,,,,,,,,,,,,,,,,,,,,,,,456.1033,457.2678,l,1,0.484,,0.484,1,457.2679,457.7673,,,,,,3,FEM,WORD,DIS,150,vida,,el,,457.7675,457.7676,0.183333333,0.215740741,0,0,0,,0,166,166,2,1,dica,,,,
,,,,,,613a563bf2e38ea679f50546,676192165fb32c2e1fb7aee6,67d1f423dac098723e3ac216,2025-03-12_14h57.16.371,Tarea de decisión léxica,2024.2.5,Win32,61.34969325,,,,,,,,,,,,,,,,,,,,,,,457.7693,459.0163,a,1,0.576,,0.576,1,459.0165,459.5161,,,,,,188,MAS,NOWORD,DIS,150,suto,,la,,459.5161,459.5163,0.183333333,0.215740741,0,0,0,,0,167,167,187,1,mito,,,,
,,,,,,613a563bf2e38ea679f50546,676192165fb32c2e1fb7aee6,67d1f423dac098723e3ac216,2025-03-12_14h57.16.371,Tarea de decisión léxica,2024.2.5,Win32,61.34969325,,,,,,,,,,,,,,,,,,,,,,,459.518,460.9151,l,1,0.7184,,0.7184,1,460.9152,461.4148,,,,,,219,FEM,WORD,DIS,150,pipa,,el,,461.4149,461.415,0.183333333,0.215740741,0,0,0,,0,168,168,218,1,miva,,,,
,,,,,,613a563bf2e38ea679f50546,676192165fb32c2e1fb7aee6,67d1f423dac098723e3ac216,2025-03-12_14h57.16.371,Tarea de decisión léxica,2024.2.5,Win32,61.34969325,,,,,,,,,,,,,,,,,,,,,,,461.417,462.514,l,1,0.4242,,0.4242,1,462.5142,463.0135,,,,,,467,MAS,WORD,DIS,150,piano,,la,,463.0136,463.0137,0.183333333,0.215740741,0,0,0,,0,169,169,466,1,peiso,,,,
,,,,,,613a563bf2e38ea679f50546,676192165fb32c2e1fb7aee6,67d1f423dac098723e3ac216,2025-03-12_14h57.16.371,Tarea de decisión léxica,2024.2.5,Win32,61.34969325,,,,,,,,,,,,,,,,,,,,,,,463.0155,464.1797,a,1,0.4846,,0.4846,1,464.1798,464.6793,,,,,,178,MAS,NOWORD,AGR,150,bito,,el,,464.6811,464.6823,0.183333333,0.215740741,0,0,0,,0,170,170,177,1,reto,,,,
,,,,,,613a563bf2e38ea679f50546,676192165fb32c2e1fb7aee6,67d1f423dac098723e3ac216,2025-03-12_14h57.16.371,Tarea de decisión léxica,2024.2.5,Win32,61.34969325,,,,,,,,,,,,,,,,,,,,,,,464.6846,465.8615,l,1,0.5004,,0.5004,1,465.8617,466.361,,,,,,331,MAS,WORD,DIS,150,éxito,,la,,466.3611,466.3612,0.183333333,0.215740741,0,0,0,,0,171,171,330,1,erato,,,,
,,,,,,613a563bf2e38ea679f50546,676192165fb32c2e1fb7aee6,67d1f423dac098723e3ac216,2025-03-12_14h57.16.371,Tarea de decisión léxica,2024.2.5,Win32,61.34969325,,,,,,,,,,,,,,,,,,,,,,,466.3627,467.5441,a,1,0.5007,,0.5007,1,467.5442,468.0436,,,,,,108,MAS,NOWORD,DIS,150,raot,,la,,468.0436,468.0438,0.183333333,0.215740741,0,0,0,,0,172,172,107,1,saco,,,,
,,,,,,613a563bf2e38ea679f50546,676192165fb32c2e1fb7aee6,67d1f423dac098723e3ac216,2025-03-12_14h57.16.371,Tarea de decisión léxica,2024.2.5,Win32,61.34969325,,,,,,,,,,,,,,,,,,,,,,,468.0455,469.3095,l,0,0.588,,0.588,0,469.3108,469.8092,,,,,,16,FEM,NOWORD,DIS,150,odea,,el,,469.8093,469.8094,0.183333333,0.215740741,0,0,0,,0,173,173,15,1,idea,,,,
,,,,,,613a563bf2e38ea679f50546,676192165fb32c2e1fb7aee6,67d1f423dac098723e3ac216,2025-03-12_14h57.16.371,Tarea de decisión léxica,2024.2.5,Win32,61.34969325,,,,,,,,,,,,,,,,,,,,,,,469.8112,470.9581,l,1,0.4704,,0.4704,1,470.9595,471.4579,,,,,,243,MAS,WORD,DIS,150,amigo,,la,,471.4581,471.4582,0.183333333,0.215740741,0,0,0,,0,174,174,242,1,asamo,,,,
,,,,,,613a563bf2e38ea679f50546,676192165fb32c2e1fb7aee6,67d1f423dac098723e3ac216,2025-03-12_14h57.16.371,Tarea de decisión léxica,2024.2.5,Win32,61.34969325,,,,,,,,,,,,,,,,,,,,,,,471.4602,472.5898,l,1,0.4498,,0.4498,1,472.5898,473.0904,,,,,,433,MAS,WORD,AGR,150,disco,,el,,473.0923,473.0936,0.183333333,0.215740741,0,0,0,,0,175,175,432,1,durco,,,,
,,,,,,613a563bf2e38ea679f50546,676192165fb32c2e1fb7aee6,67d1f423dac098723e3ac216,2025-03-12_14h57.16.371,Tarea de decisión léxica,2024.2.5,Win32,61.34969325,,,,,,,,,,,,,,,,,,,,,,,473.0951,474.3556,l,1,0.5907,,0.5907,1,474.3557,474.8556,,,,,,245,FEM,WORD,AGR,150,madre,,la,,474.8556,474.8558,0.183333333,0.215740741,0,0,0,,0,176,176,244,1,pafle,,,,
,,,,,,613a563bf2e38ea679f50546,676192165fb32c2e1fb7aee6,67d1f423dac098723e3ac216,2025-03-12_14h57.16.371,Tarea de decisión léxica,2024.2.5,Win32,61.34969325,,,,,,,,,,,,,,,,,,,,,,,474.8576,476.0215,l,1,0.4881,,0.4881,1,476.0216,476.5209,,,,,,63,FEM,WORD,DIS,150,luna,,el,,476.5209,476.5211,0.183333333,0.215740741,0,0,0,,0,177,177,62,1,funa,,,,
,,,,,,613a563bf2e38ea679f50546,676192165fb32c2e1fb7aee6,67d1f423dac098723e3ac216,2025-03-12_14h57.16.371,Tarea de decisión léxica,2024.2.5,Win32,61.34969325,,,,,,,,,,,,,,,,,,,,,,,476.5229,477.5205,l,1,0.318,,0.318,1,477.5207,478.02,,,,,,1,FEM,WORD,AGR,150,casa,,la,,478.0201,478.0203,0.183333333,0.215740741,0,0,0,,0,178,178,0,1,mada,,,,
,,,,,,613a563bf2e38ea679f50546,676192165fb32c2e1fb7aee6,67d1f423dac098723e3ac216,2025-03-12_14h57.16.371,Tarea de decisión léxica,2024.2.5,Win32,61.34969325,,,,,,,,,,,,,,,,,,,,,,,478.0221,479.0862,l,1,0.384,,0.384,1,479.0863,479.5856,,,,,,215,FEM,WORD,DIS,150,raíz,,el,,479.5877,479.589,0.183333333,0.215740741,0,0,0,,0,179,179,214,1,raua,,,,
,,,,,,613a563bf2e38ea679f50546,676192165fb32c2e1fb7aee6,67d1f423dac098723e3ac216,2025-03-12_14h57.16.371,Tarea de decisión léxica,2024.2.5,Win32,61.34969325,,,,,,,,,,,,,,,,,,,,,,,479.5904,480.7843,a,1,0.5258,,0.5258,1,480.7845,481.2845,,,,,,104,FEM,NOWORD,DIS,150,rova,,el,,481.2847,481.2849,0.183333333,0.215740741,0,0,0,,0,180,180,103,1,ruta,,,,
,,,,,,613a563bf2e38ea679f50546,676192165fb32c2e1fb7aee6,67d1f423dac098723e3ac216,2025-03-12_14h57.16.371,Tarea de decisión léxica,2024.2.5,Win32,61.34969325,,,,,,,,,,,,,,,,,,,,,,,481.287,482.5998,a,1,0.6423,,0.6423,1,482.5999,483.099,,,,,,12,MAS,NOWORD,DIS,150,bapo,,la,,483.099,483.099,0.183333333,0.215740741,0,0,0,,0,181,181,11,1,lado,,,,
,,,,,,613a563bf2e38ea679f50546,676192165fb32c2e1fb7aee6,67d1f423dac098723e3ac216,2025-03-12_14h57.16.371,Tarea de decisión léxica,2024.2.5,Win32,61.34969325,,,,,,,,,,,,,,,,,,,,,,,483.0997,484.1481,a,0,0.3669,,0.3669,0,484.1488,484.6479,,,,,,387,FEM,WORD,DIS,150,crema,,el,,484.6479,484.648,0.183333333,0.215740741,0,0,0,,0,182,182,386,1,bresa,,,,
,,,,,,613a563bf2e38ea679f50546,676192165fb32c2e1fb7aee6,67d1f423dac098723e3ac216,2025-03-12_14h57.16.371,Tarea de decisión léxica,2024.2.5,Win32,61.34969325,,,,,,,,,,,,,,,,,,,,,,,484.6488,485.848,l,1,0.5175,,0.5175,1,485.8493,486.3474,,,,,,415,FEM,WORD,DIS,150,jaula,,el,,486.3474,486.3476,0.183333333,0.215740741,0,0,0,,0,183,183,414,1,juira,,,,
,,,,,,613a563bf2e38ea679f50546,676192165fb32c2e1fb7aee6,67d1f423dac098723e3ac216,2025-03-12_14h57.16.371,Tarea de decisión léxica,2024.2.5,Win32,61.34969325,,,,,,,,,,,,,,,,,,,,,,,486.3495,487.4466,l,1,0.418,,0.418,1,487.4467,487.9462,,,,,,19,MAS,WORD,DIS,150,niño,,la,,487.9482,487.9496,0.183333333,0.215740741,0,0,0,,0,184,184,18,1,himo,,,,
,,,,,,613a563bf2e38ea679f50546,676192165fb32c2e1fb7aee6,67d1f423dac098723e3ac216,2025-03-12_14h57.16.371,Tarea de decisión léxica,2024.2.5,Win32,61.34969325,,,,,,,,,,,,,,,,,,,,,,,487.951,489.128,a,1,0.4989,,0.4989,1,489.128,489.6285,,,,,,124,FEM,NOWORD,DIS,150,maba,,el,,489.6287,489.6288,0.183333333,0.215740741,0,0,0,,0,185,185,123,1,flor,,,,
,,,,,,613a563bf2e38ea679f50546,676192165fb32c2e1fb7aee6,67d1f423dac098723e3ac216,2025-03-12_14h57.16.371,Tarea de decisión léxica,2024.2.5,Win32,61.34969325,,,,,,,,,,,,,,,,,,,,,,,489.6306,490.928,l,1,0.6271,,0.6271,1,490.9282,491.4271,,,,,,289,FEM,WORD,AGR,150,bomba,,la,,491.4272,491.4274,0.183333333,0.215740741,0,0,0,,0,186,186,288,1,bumpa,,,,
,,,,,,613a563bf2e38ea679f50546,676192165fb32c2e1fb7aee6,67d1f423dac098723e3ac216,2025-03-12_14h57.16.371,Tarea de decisión léxica,2024.2.5,Win32,61.34969325,,,,,,,,,,,,,,,,,,,,,,,491.4291,492.5264,l,1,0.4171,,0.4171,1,492.5266,493.0261,,,,,,51,FEM,WORD,DIS,150,caja,,el,,493.0262,493.0263,0.183333333,0.215740741,0,0,0,,0,187,187,50,1,mava,,,,
,,,,,,613a563bf2e38ea679f50546,676192165fb32c2e1fb7aee6,67d1f423dac098723e3ac216,2025-03-12_14h57.16.371,Tarea de decisión léxica,2024.2.5,Win32,61.34969325,,,,,,,,,,,,,,,,,,,,,,,493.0281,494.1088,a,1,0.4009,,0.4009,1,494.109,494.6086,,,,,,162,MAS,NOWORD,AGR,150,bopo,,el,,494.6088,494.609,0.183333333,0.215740741,0,0,0,,0,188,188,161,1,coro,,,,
,,,,,,613a563bf2e38ea679f50546,676192165fb32c2e1fb7aee6,67d1f423dac098723e3ac216,2025-03-12_14h57.16.371,Tarea de decisión léxica,2024.2.5,Win32,61.34969325,,,,,,,,,,,,,,,,,,,,,,,494.6107,495.7574,l,1,0.469,,0.469,1,495.7576,496.2571,,,,,,255,MAS,WORD,DIS,150,miedo,,la,,496.2592,496.2605,0.183333333,0.215740741,0,0,0,,0,189,189,254,1,mauco,,,,
,,,,,,613a563bf2e38ea679f50546,676192165fb32c2e1fb7aee6,67d1f423dac098723e3ac216,2025-03-12_14h57.16.371,Tarea de decisión léxica,2024.2.5,Win32,61.34969325,,,,,,,,,,,,,,,,,,,,,,,496.262,497.4562,a,1,0.5175,,0.5175,1,497.4563,497.9562,,,,,,300,FEM,NOWORD,DIS,150,bosga,,el,,497.9562,497.9564,0.183333333,0.215740741,0,0,0,,0,190,190,299,1,bolsa,,,,
,,,,,,613a563bf2e38ea679f50546,676192165fb32c2e1fb7aee6,67d1f423dac098723e3ac216,2025-03-12_14h57.16.371,Tarea de decisión léxica,2024.2.5,Win32,61.34969325,,,,,,,,,,,,,,,,,,,,,,,497.9581,499.2387,a,1,0.6027,,0.6027,1,499.2388,499.7383,,,,,,130,MAS,NOWORD,AGR,150,pima,,el,,499.7384,499.7385,0.183333333,0.215740741,0,0,0,,0,191,191,129,1,oído,,,,
,,,,,,613a563bf2e38ea679f50546,676192165fb32c2e1fb7aee6,67d1f423dac098723e3ac216,2025-03-12_14h57.16.371,Tarea de decisión léxica,2024.2.5,Win32,61.34969325,,,,,,,,,,,,,,,,,,,,,,,499.7403,500.8709,a,1,0.4507,,0.4507,1,500.871,501.3706,,,,,,466,FEM,NOWORD,AGR,150,asuba,,la,,501.3706,501.3709,0.183333333,0.215740741,0,0,0,,0,192,192,465,1,aguja,,,,
,,,,,,613a563bf2e38ea679f50546,676192165fb32c2e1fb7aee6,67d1f423dac098723e3ac216,2025-03-12_14h57.16.371,Tarea de decisión léxica,2024.2.5,Win32,61.34969325,,,,,,,,,,,,,,,,,,,,,,,501.3727,502.4364,a,1,0.3891,,0.3891,1,502.4365,502.9359,,,,,,272,FEM,NOWORD,DIS,150,refal,,el,,502.936,502.9363,0.183333333,0.215740741,0,0,0,,0,193,193,271,1,señal,,,,
,,,,,,613a563bf2e38ea679f50546,676192165fb32c2e1fb7aee6,67d1f423dac098723e3ac216,2025-03-12_14h57.16.371,Tarea de decisión léxica,2024.2.5,Win32,61.34969325,,,,,,,,,,,,,,,,,,,,,,,502.9382,504.0353,l,1,0.4187,,0.4187,1,504.0355,504.5351,,,,,,89,MAS,WORD,AGR,150,humo,,el,,504.5371,504.5385,0.183333333,0.215740741,0,0,0,,0,194,194,88,1,guso,,,,
,,,,,,613a563bf2e38ea679f50546,676192165fb32c2e1fb7aee6,67d1f423dac098723e3ac216,2025-03-12_14h57.16.371,Tarea de decisión léxica,2024.2.5,Win32,61.34969325,,,,,,,,,,,,,,,,,,,,,,,504.5399,505.6172,l,1,0.4005,,0.4005,1,505.6173,506.1171,,,,,,337,MAS,WORD,AGR,150,huevo,,el,,506.1171,506.1173,0.183333333,0.215740741,0,0,0,,0,195,195,336,1,nuejo,,,,
,,,,,,613a563bf2e38ea679f50546,676192165fb32c2e1fb7aee6,67d1f423dac098723e3ac216,2025-03-12_14h57.16.371,Tarea de decisión léxica,2024.2.5,Win32,61.34969325,,,,,,,,,,,,,,,,,,,,,,,506.1193,507.3495,a,1,0.5502,,0.5502,1,507.3496,507.8496,,,,,,126,MAS,NOWORD,AGR,150,vudo,,el,,507.8496,507.8499,0.183333333,0.215740741,0,0,0,,0,196,196,125,1,lujo,,,,
,,,,,,613a563bf2e38ea679f50546,676192165fb32c2e1fb7aee6,67d1f423dac098723e3ac216,2025-03-12_14h57.16.371,Tarea de decisión léxica,2024.2.5,Win32,61.34969325,,,,,,,,,,,,,,,,,,,,,,,507.8515,509.0647,l,1,0.5419,,0.5419,1,509.0648,509.565,,,,,,25,FEM,WORD,AGR,150,cama,,la,,509.5651,509.5652,0.183333333,0.215740741,0,0,0,,0,197,197,24,1,paza,,,,
,,,,,,613a563bf2e38ea679f50546,676192165fb32c2e1fb7aee6,67d1f423dac098723e3ac216,2025-03-12_14h57.16.371,Tarea de decisión léxica,2024.2.5,Win32,61.34969325,,,,,,,,,,,,,,,,,,,,,,,509.5671,510.6644,a,1,0.4269,,0.4269,1,510.6645,511.1637,,,,,,146,MAS,NOWORD,AGR,150,nobo,,el,,511.1638,511.164,0.183333333,0.215740741,0,0,0,,0,198,198,145,1,león,,,,
,,,,,,613a563bf2e38ea679f50546,676192165fb32c2e1fb7aee6,67d1f423dac098723e3ac216,2025-03-12_14h57.16.371,Tarea de decisión léxica,2024.2.5,Win32,61.34969325,,,,,,,,,,,,,,,,,,,,,,,511.1659,512.2629,a,1,0.4169,,0.4169,1,512.263,512.7625,,,,,,194,FEM,NOWORD,AGR,150,foda,,la,,512.7645,512.7659,0.183333333,0.215740741,0,0,0,,0,199,199,193,1,loca,,,,
,,,,,,613a563bf2e38ea679f50546,676192165fb32c2e1fb7aee6,67d1f423dac098723e3ac216,2025-03-12_14h57.16.371,Tarea de decisión léxica,2024.2.5,Win32,61.34969325,,,,,,,,,,,,,,,,,,,,,,,512.7674,514.0779,l,0,0.6352,,0.6352,0,514.0788,514.5779,,,,,,430,FEM,NOWORD,AGR,150,tenta,,la,,514.578,514.5782,0.183333333,0.215740741,0,0,0,,0,200,200,429,1,tarta,,,,
,,,,,,613a563bf2e38ea679f50546,676192165fb32c2e1fb7aee6,67d1f423dac098723e3ac216,2025-03-12_14h57.16.371,Tarea de decisión léxica,2024.2.5,Win32,61.34969325,,,,,,,,,,,,,,,,,,,,,,,514.5799,515.6439,l,1,0.3893,,0.3893,1,515.6453,516.1429,,,,,,171,MAS,WORD,DIS,150,hilo,,la,,516.143,516.143,0.183333333,0.215740741,0,0,0,,0,201,201,170,1,niro,,,,
,,,,,,613a563bf2e38ea679f50546,676192165fb32c2e1fb7aee6,67d1f423dac098723e3ac216,2025-03-12_14h57.16.371,Tarea de decisión léxica,2024.2.5,Win32,61.34969325,,,,,,,,,,,,,,,,,,,,,,,516.1436,517.4256,a,1,0.6077,,0.6077,1,517.4258,517.9257,,,,,,398,FEM,NOWORD,AGR,150,trigi,,la,,517.9257,517.9259,0.183333333,0.215740741,0,0,0,,0,202,202,397,1,tribu,,,,
,,,,,,613a563bf2e38ea679f50546,676192165fb32c2e1fb7aee6,67d1f423dac098723e3ac216,2025-03-12_14h57.16.371,Tarea de decisión léxica,2024.2.5,Win32,61.34969325,,,,,,,,,,,,,,,,,,,,,,,517.9276,519.0582,a,1,0.4511,,0.4511,1,519.0583,519.5579,,,,,,88,MAS,NOWORD,DIS,150,damo,,la,,519.5599,519.5612,0.183333333,0.215740741,0,0,0,,0,203,203,87,1,vaso,,,,
,,,,,,613a563bf2e38ea679f50546,676192165fb32c2e1fb7aee6,67d1f423dac098723e3ac216,2025-03-12_14h57.16.371,Tarea de decisión léxica,2024.2.5,Win32,61.34969325,,,,,,,,,,,,,,,,,,,,,,,519.5627,520.724,l,1,0.4853,,0.4853,1,520.7242,521.2236,,,,,,247,FEM,WORD,DIS,150,chica,,el,,521.2237,521.2239,0.183333333,0.215740741,0,0,0,,0,204,204,246,1,trida,,,,
,,,,,,613a563bf2e38ea679f50546,676192165fb32c2e1fb7aee6,67d1f423dac098723e3ac216,2025-03-12_14h57.16.371,Tarea de decisión léxica,2024.2.5,Win32,61.34969325,,,,,,,,,,,,,,,,,,,,,,,521.2256,522.4394,l,1,0.5338,,0.5338,1,522.4395,522.9389,,,,,,385,FEM,WORD,AGR,150,letra,,la,,522.939,522.9392,0.183333333,0.215740741,0,0,0,,0,205,205,384,1,febra,,,,
,,,,,,613a563bf2e38ea679f50546,676192165fb32c2e1fb7aee6,67d1f423dac098723e3ac216,2025-03-12_14h57.16.371,Tarea de decisión léxica,2024.2.5,Win32,61.34969325,,,,,,,,,,,,,,,,,,,,,,,522.9409,524.0548,l,1,0.4381,,0.4381,1,524.0549,524.5543,,,,,,469,MAS,WORD,AGR,150,patio,,el,,524.5544,524.5546,0.183333333,0.215740741,0,0,0,,0,206,206,468,1,matia,,,,
,,,,,,613a563bf2e38ea679f50546,676192165fb32c2e1fb7aee6,67d1f423dac098723e3ac216,2025-03-12_14h57.16.371,Tarea de decisión léxica,2024.2.5,Win32,61.34969325,,,,,,,,,,,,,,,,,,,,,,,524.5565,525.454,l,0,0.2178,,0.2178,0,525.4553,525.9535,,,,,,226,MAS,NOWORD,AGR,150,boco,,el,,525.9535,525.9537,0.183333333,0.215740741,0,0,0,,0,207,207,225,1,lodo,,,,
,,,,,,613a563bf2e38ea679f50546,676192165fb32c2e1fb7aee6,67d1f423dac098723e3ac216,2025-03-12_14h57.16.371,Tarea de decisión léxica,2024.2.5,Win32,61.34969325,,,,,,,,,,,,,,,,,,,,,,,525.9554,527.086,a,1,0.4503,,0.4503,1,527.0873,527.5854,,,,,,22,MAS,NOWORD,AGR,150,blan,,el,,527.5875,527.5887,0.183333333,0.215740741,0,0,0,,0,208,208,21,1,plan,,,,
,,,,,,613a563bf2e38ea679f50546,676192165fb32c2e1fb7aee6,67d1f423dac098723e3ac216,2025-03-12_14h57.16.371,Tarea de decisión léxica,2024.2.5,Win32,61.34969325,,,,,,,,,,,,,,,,,,,,,,,527.5902,528.6517,a,1,0.3841,,0.3841,1,528.6518,529.1511,,,,,,46,FEM,NOWORD,AGR,150,pema,,la,,529.1512,529.1514,0.183333333,0.215740741,0,0,0,,0,209,209,45,1,mesa,,,,
,,,,,,613a563bf2e38ea679f50546,676192165fb32c2e1fb7aee6,67d1f423dac098723e3ac216,2025-03-12_14h57.16.371,Tarea de decisión léxica,2024.2.5,Win32,61.34969325,,,,,,,,,,,,,,,,,,,,,,,529.1532,530.1839,a,1,0.3602,,0.3602,1,530.184,530.683,,,,,,418,FEM,NOWORD,AGR,150,banja,,la,,530.6831,530.6832,0.183333333,0.215740741,0,0,0,,0,210,210,417,1,barba,,,,
,,,,,,613a563bf2e38ea679f50546,676192165fb32c2e1fb7aee6,67d1f423dac098723e3ac216,2025-03-12_14h57.16.371,Tarea de decisión léxica,2024.2.5,Win32,61.34969325,,,,,,,,,,,,,,,,,,,,,,,530.6842,531.9493,a,1,0.5878,,0.5878,1,531.9494,532.4487,,,,,,266,FEM,NOWORD,AGR,150,pitat,,la,,532.4488,532.449,0.183333333,0.215740741,0,0,0,,0,211,211,265,1,mitad,,,,
,,,,,,613a563bf2e38ea679f50546,676192165fb32c2e1fb7aee6,67d1f423dac098723e3ac216,2025-03-12_14h57.16.371,Tarea de decisión léxica,2024.2.5,Win32,61.34969325,,,,,,,,,,,,,,,,,,,,,,,532.4507,533.6977,a,1,0.5742,,0.5742,1,533.6979,534.1975,,,,,,230,MAS,NOWORD,AGR,150,ador,,el,,534.1976,534.1978,0.183333333,0.215740741,0,0,0,,0,212,212,229,1,amor,,,,
,,,,,,613a563bf2e38ea679f50546,676192165fb32c2e1fb7aee6,67d1f423dac098723e3ac216,2025-03-12_14h57.16.371,Tarea de decisión léxica,2024.2.5,Win32,61.34969325,,,,,,,,,,,,,,,,,,,,,,,534.1999,535.6466,l,1,0.7678,,0.7678,1,535.6467,536.1463,,,,,,267,MAS,WORD,DIS,150,libro,,la,,536.1484,536.1498,0.183333333,0.215740741,0,0,0,,0,213,213,266,1,figro,,,,
,,,,,,613a563bf2e38ea679f50546,676192165fb32c2e1fb7aee6,67d1f423dac098723e3ac216,2025-03-12_14h57.16.371,Tarea de decisión léxica,2024.2.5,Win32,61.34969325,,,,,,,,,,,,,,,,,,,,,,,536.1512,537.2626,l,1,0.4385,,0.4385,1,537.2627,537.7619,,,,,,281,MAS,WORD,AGR,150,cielo,,el,,537.762,537.7621,0.183333333,0.215740741,0,0,0,,0,214,214,280,1,cauro,,,,
,,,,,,613a563bf2e38ea679f50546,676192165fb32c2e1fb7aee6,67d1f423dac098723e3ac216,2025-03-12_14h57.16.371,Tarea de decisión léxica,2024.2.5,Win32,61.34969325,,,,,,,,,,,,,,,,,,,,,,,537.7641,538.9108,a,1,0.4774,,0.4774,1,538.911,539.4108,,,,,,254,MAS,NOWORD,AGR,150,trido,,el,,539.4108,539.411,0.183333333,0.215740741,0,0,0,,0,215,215,253,1,chico,,,,
,,,,,,613a563bf2e38ea679f50546,676192165fb32c2e1fb7aee6,67d1f423dac098723e3ac216,2025-03-12_14h57.16.371,Tarea de decisión léxica,2024.2.5,Win32,61.34969325,,,,,,,,,,,,,,,,,,,,,,,539.4126,540.7935,a,1,0.7023,,0.7023,1,540.7937,541.2925,,,,,,144,MAS,NOWORD,DIS,150,pezo,,la,,541.2925,541.2928,0.183333333,0.215740741,0,0,0,,0,216,216,143,1,pavo,,,,
,,,,,,613a563bf2e38ea679f50546,676192165fb32c2e1fb7aee6,67d1f423dac098723e3ac216,2025-03-12_14h57.16.371,Tarea de decisión léxica,2024.2.5,Win32,61.34969325,,,,,,,,,,,,,,,,,,,,,,,541.2948,542.6084,l,1,0.6426,,0.6426,1,542.6085,543.1073,,,,,,463,FEM,WORD,DIS,150,cabra,,el,,543.1074,543.1075,0.183333333,0.215740741,0,0,0,,0,217,217,462,1,matla,,,,
,,,,,,613a563bf2e38ea679f50546,676192165fb32c2e1fb7aee6,67d1f423dac098723e3ac216,2025-03-12_14h57.16.371,Tarea de decisión léxica,2024.2.5,Win32,61.34969325,,,,,,,,,,,,,,,,,,,,,,,543.1081,544.2407,a,1,0.4507,,0.4507,1,544.2409,544.7405,,,,,,440,FEM,NOWORD,DIS,150,prema,,el,,544.7426,544.744,0.183333333,0.215740741,0,0,0,,0,218,218,439,1,presa,,,,
,,,,,,613a563bf2e38ea679f50546,676192165fb32c2e1fb7aee6,67d1f423dac098723e3ac216,2025-03-12_14h57.16.371,Tarea de decisión léxica,2024.2.5,Win32,61.34969325,,,,,,,,,,,,,,,,,,,,,,,544.7456,546.0231,a,1,0.5999,,0.5999,1,546.0232,546.5225,,,,,,202,FEM,NOWORD,AGR,150,cusa,,la,,546.5226,546.5227,0.183333333,0.215740741,0,0,0,,0,219,219,201,1,cuna,,,,
,,,,,,613a563bf2e38ea679f50546,676192165fb32c2e1fb7aee6,67d1f423dac098723e3ac216,2025-03-12_14h57.16.371,Tarea de decisión léxica,2024.2.5,Win32,61.34969325,,,,,,,,,,,,,,,,,,,,,,,546.5246,547.9216,l,0,0.719,,0.719,0,547.923,548.4213,,,,,,376,FEM,NOWORD,DIS,150,sasna,,el,,548.4215,548.4217,0.183333333,0.215740741,0,0,0,,0,220,220,375,1,salsa,,,,
,,,,,,613a563bf2e38ea679f50546,676192165fb32c2e1fb7aee6,67d1f423dac098723e3ac216,2025-03-12_14h57.16.371,Tarea de decisión léxica,2024.2.5,Win32,61.34969325,,,,,,,,,,,,,,,,,,,,,,,548.4234,549.7534,a,1,0.6601,,0.6601,1,549.7547,550.2531,,,,,,326,FEM,NOWORD,AGR,150,mabia,,la,,550.2531,550.2533,0.183333333,0.215740741,0,0,0,,0,221,221,325,1,magia,,,,
,,,,,,613a563bf2e38ea679f50546,676192165fb32c2e1fb7aee6,67d1f423dac098723e3ac216,2025-03-12_14h57.16.371,Tarea de decisión léxica,2024.2.5,Win32,61.34969325,,,,,,,,,,,,,,,,,,,,,,,550.2553,551.5191,l,1,0.5936,,0.5936,1,551.5193,552.0187,,,,,,465,FEM,WORD,AGR,150,aguja,,la,,552.0188,552.019,0.183333333,0.215740741,0,0,0,,0,222,222,464,1,asuba,,,,
,,,,,,613a563bf2e38ea679f50546,676192165fb32c2e1fb7aee6,67d1f423dac098723e3ac216,2025-03-12_14h57.16.371,Tarea de decisión léxica,2024.2.5,Win32,61.34969325,,,,,,,,,,,,,,,,,,,,,,,552.0207,553.2344,l,1,0.5405,,0.5405,1,553.2345,553.7341,,,,,,393,FEM,WORD,AGR,150,aldea,,la,,553.736,553.7374,0.183333333,0.215740741,0,0,0,,0,223,223,392,1,ashea,,,,
,,,,,,613a563bf2e38ea679f50546,676192165fb32c2e1fb7aee6,67d1f423dac098723e3ac216,2025-03-12_14h57.16.371,Tarea de decisión léxica,2024.2.5,Win32,61.34969325,,,,,,,,,,,,,,,,,,,,,,,553.7389,554.8167,l,1,0.4009,,0.4009,1,554.8169,555.3165,,,,,,177,MAS,WORD,AGR,150,reto,,el,,555.3166,555.3168,0.183333333,0.215740741,0,0,0,,0,224,224,176,1,bito,,,,
,,,,,,613a563bf2e38ea679f50546,676192165fb32c2e1fb7aee6,67d1f423dac098723e3ac216,2025-03-12_14h57.16.371,Tarea de decisión léxica,2024.2.5,Win32,61.34969325,,,,,,,,,,,,,,,,,,,,,,,555.3186,556.4486,a,1,0.4586,,0.4586,1,556.4486,556.9487,,,,,,200,MAS,NOWORD,DIS,150,fano,,la,,556.9487,556.9489,0.183333333,0.215740741,0,0,0,,0,225,225,199,1,lazo,,,,
,,,,,,613a563bf2e38ea679f50546,676192165fb32c2e1fb7aee6,67d1f423dac098723e3ac216,2025-03-12_14h57.16.371,Tarea de decisión léxica,2024.2.5,Win32,61.34969325,,,,,,,,,,,,,,,,,,,,,,,556.9509,558.1976,a,1,0.5673,,0.5673,1,558.1978,558.6977,,,,,,224,FEM,NOWORD,DIS,150,cira,,el,,558.6978,558.698,0.183333333,0.215740741,0,0,0,,0,226,226,223,1,cera,,,,
,,,,,,613a563bf2e38ea679f50546,676192165fb32c2e1fb7aee6,67d1f423dac098723e3ac216,2025-03-12_14h57.16.371,Tarea de decisión léxica,2024.2.5,Win32,61.34969325,,,,,,,,,,,,,,,,,,,,,,,558.6996,560.0467,l,1,0.6698,,0.6698,1,560.0468,560.5456,,,,,,285,MAS,WORD,AGR,150,error,,el,,560.5465,560.5472,0.183333333,0.215740741,0,0,0,,0,227,227,284,1,echor,,,,
,,,,,,613a563bf2e38ea679f50546,676192165fb32c2e1fb7aee6,67d1f423dac098723e3ac216,2025-03-12_14h57.16.371,Tarea de decisión léxica,2024.2.5,Win32,61.34969325,,,,,,,,,,,,,,,,,,,,,,,560.5477,561.6454,a,1,0.4165,,0.4165,1,561.6456,562.145,,,,,,250,FEM,NOWORD,AGR,150,plane,,la,,562.145,562.1453,0.183333333,0.215740741,0,0,0,,0,228,228,249,1,clase,,,,
,,,,,,613a563bf2e38ea679f50546,676192165fb32c2e1fb7aee6,67d1f423dac098723e3ac216,2025-03-12_14h57.16.371,Tarea de decisión léxica,2024.2.5,Win32,61.34969325,,,,,,,,,,,,,,,,,,,,,,,562.1471,563.3605,a,0,0.542,,0.542,0,563.3618,563.8605,,,,,,405,FEM,WORD,AGR,150,barra,,la,,563.8605,563.8607,0.183333333,0.215740741,0,0,0,,0,229,229,404,1,rarra,,,,
,,,,,,613a563bf2e38ea679f50546,676192165fb32c2e1fb7aee6,67d1f423dac098723e3ac216,2025-03-12_14h57.16.371,Tarea de decisión léxica,2024.2.5,Win32,61.34969325,,,,,,,,,,,,,,,,,,,,,,,563.8627,565.0426,a,1,0.5068,,0.5068,1,565.0439,565.5428,,,,,,236,FEM,NOWORD,DIS,150,tria,,el,,565.5428,565.543,0.183333333,0.215740741,0,0,0,,0,230,230,235,1,grúa,,,,
,,,,,,613a563bf2e38ea679f50546,676192165fb32c2e1fb7aee6,67d1f423dac098723e3ac216,2025-03-12_14h57.16.371,Tarea de decisión léxica,2024.2.5,Win32,61.34969325,,,,,,,,,,,,,,,,,,,,,,,565.5447,566.8415,l,1,0.6248,,0.6248,1,566.8416,567.3413,,,,,,123,FEM,WORD,DIS,150,flor,,el,,567.3413,567.3416,0.183333333,0.215740741,0,0,0,,0,231,231,122,1,maba,,,,
,,,,,,613a563bf2e38ea679f50546,676192165fb32c2e1fb7aee6,67d1f423dac098723e3ac216,2025-03-12_14h57.16.371,Tarea de decisión léxica,2024.2.5,Win32,61.34969325,,,,,,,,,,,,,,,,,,,,,,,567.3434,568.7731,a,1,0.7506,,0.7506,1,568.7731,569.2736,,,,,,370,MAS,NOWORD,AGR,150,rioco,,el,,569.2758,569.2772,0.183333333,0.215740741,0,0,0,,0,232,232,369,1,ruido,,,,
,,,,,,613a563bf2e38ea679f50546,676192165fb32c2e1fb7aee6,67d1f423dac098723e3ac216,2025-03-12_14h57.16.371,Tarea de decisión léxica,2024.2.5,Win32,61.34969325,,,,,,,,,,,,,,,,,,,,,,,569.2788,570.3727,l,1,0.4217,,0.4217,1,570.3728,570.8716,,,,,,269,MAS,WORD,AGR,150,perro,,el,,570.8716,570.8717,0.183333333,0.215740741,0,0,0,,0,233,233,268,1,mello,,,,
,,,,,,613a563bf2e38ea679f50546,676192165fb32c2e1fb7aee6,67d1f423dac098723e3ac216,2025-03-12_14h57.16.371,Tarea de decisión léxica,2024.2.5,Win32,61.34969325,,,,,,,,,,,,,,,,,,,,,,,570.8727,571.9385,a,0,0.3839,,0.3839,0,571.9398,572.4377,,,,,,11,MAS,WORD,DIS,150,lado,,la,,572.4377,572.438,0.183333333,0.215740741,0,0,0,,0,234,234,10,1,bapo,,,,
,,,,,,613a563bf2e38ea679f50546,676192165fb32c2e1fb7aee6,67d1f423dac098723e3ac216,2025-03-12_14h57.16.371,Tarea de decisión léxica,2024.2.5,Win32,61.34969325,,,,,,,,,,,,,,,,,,,,,,,572.4397,573.57,l,1,0.4574,,0.4574,1,573.5714,574.0702,,,,,,461,FEM,WORD,AGR,150,tabla,,la,,574.0703,574.0705,0.183333333,0.215740741,0,0,0,,0,235,235,460,1,pagra,,,,
,,,,,,613a563bf2e38ea679f50546,676192165fb32c2e1fb7aee6,67d1f423dac098723e3ac216,2025-03-12_14h57.16.371,Tarea de decisión léxica,2024.2.5,Win32,61.34969325,,,,,,,,,,,,,,,,,,,,,,,574.0722,575.0688,l,1,0.3151,,0.3151,1,575.0688,575.569,,,,,,101,MAS,WORD,AGR,150,tono,,el,,575.5692,575.5694,0.183333333,0.215740741,0,0,0,,0,236,236,100,1,gito,,,,
,,,,,,613a563bf2e38ea679f50546,676192165fb32c2e1fb7aee6,67d1f423dac098723e3ac216,2025-03-12_14h57.16.371,Tarea de decisión léxica,2024.2.5,Win32,61.34969325,,,,,,,,,,,,,,,,,,,,,,,575.571,576.5677,l,1,0.3271,,0.3271,1,576.5678,577.0677,,,,,,79,FEM,WORD,DIS,150,piel,,el,,577.0689,577.0698,0.183333333,0.215740741,0,0,0,,0,237,237,78,1,ciel,,,,
,,,,,,613a563bf2e38ea679f50546,676192165fb32c2e1fb7aee6,67d1f423dac098723e3ac216,2025-03-12_14h57.16.371,Tarea de decisión léxica,2024.2.5,Win32,61.34969325,,,,,,,,,,,,,,,,,,,,,,,577.0708,578.1838,a,1,0.4339,,0.4339,1,578.1839,578.6838,,,,,,150,MAS,NOWORD,AGR,150,pafo,,el,,578.6839,578.6841,0.183333333,0.215740741,0,0,0,,0,238,238,149,1,cabo,,,,
,,,,,,613a563bf2e38ea679f50546,676192165fb32c2e1fb7aee6,67d1f423dac098723e3ac216,2025-03-12_14h57.16.371,Tarea de decisión léxica,2024.2.5,Win32,61.34969325,,,,,,,,,,,,,,,,,,,,,,,578.6858,580.0327,l,1,0.668,,0.668,1,580.0328,580.5324,,,,,,173,FEM,WORD,AGR,150,rosa,,la,,580.5324,580.5326,0.183333333,0.215740741,0,0,0,,0,239,239,172,1,boma,,,,
,,,,,,613a563bf2e38ea679f50546,676192165fb32c2e1fb7aee6,67d1f423dac098723e3ac216,2025-03-12_14h57.16.371,Tarea de decisión léxica,2024.2.5,Win32,61.34969325,,,,,,,,,,,,,,,,,,,,,,,580.5347,581.6316,l,1,0.4275,,0.4275,1,581.6317,582.1315,,,,,,193,FEM,WORD,AGR,150,loca,,la,,582.1315,582.1318,0.183333333,0.215740741,0,0,0,,0,240,240,192,1,foda,,,,
,,,,,,613a563bf2e38ea679f50546,676192165fb32c2e1fb7aee6,67d1f423dac098723e3ac216,2025-03-12_14h57.16.371,Tarea de decisión léxica,2024.2.5,Win32,61.34969325,,,,,,,,,,,,,,,,,,,,,,,582.1337,583.197,l,1,0.3883,,0.3883,1,583.1972,583.697,,,,,,449,FEM,WORD,AGR,150,pluma,,la,,583.6971,583.6972,0.183333333,0.215740741,0,0,0,,0,241,241,448,1,crusa,,,,
,,,,,,613a563bf2e38ea679f50546,676192165fb32c2e1fb7aee6,67d1f423dac098723e3ac216,2025-03-12_14h57.16.371,Tarea de decisión léxica,2024.2.5,Win32,61.34969325,,,,,,,,,,,,,,,,,,,,,,,583.6989,584.8293,l,1,0.4522,,0.4522,1,584.8295,585.329,,,,,,71,FEM,WORD,DIS,150,isla,,el,,585.3312,585.3326,0.183333333,0.215740741,0,0,0,,0,242,242,70,1,urla,,,,
,,,,,,613a563bf2e38ea679f50546,676192165fb32c2e1fb7aee6,67d1f423dac098723e3ac216,2025-03-12_14h57.16.371,Tarea de decisión léxica,2024.2.5,Win32,61.34969325,,,,,,,,,,,,,,,,,,,,,,,585.334,586.4947,l,1,0.4863,,0.4863,1,586.4949,586.9944,,,,,,187,MAS,WORD,DIS,150,mito,,la,,586.9945,586.9947,0.183333333,0.215740741,0,0,0,,0,243,243,186,1,suto,,,,
,,,,,,613a563bf2e38ea679f50546,676192165fb32c2e1fb7aee6,67d1f423dac098723e3ac216,2025-03-12_14h57.16.371,Tarea de decisión léxica,2024.2.5,Win32,61.34969325,,,,,,,,,,,,,,,,,,,,,,,586.9964,588.1765,l,1,0.509,,0.509,1,588.1766,588.6763,,,,,,233,FEM,WORD,AGR,150,lana,,la,,588.6764,588.6767,0.183333333,0.215740741,0,0,0,,0,244,244,232,1,fasa,,,,
,,,,,,613a563bf2e38ea679f50546,676192165fb32c2e1fb7aee6,67d1f423dac098723e3ac216,2025-03-12_14h57.16.371,Tarea de decisión léxica,2024.2.5,Win32,61.34969325,,,,,,,,,,,,,,,,,,,,,,,588.6785,589.6423,l,1,0.2825,,0.2825,1,589.6424,590.1423,,,,,,149,MAS,WORD,AGR,150,cabo,,el,,590.1424,590.1426,0.183333333,0.215740741,0,0,0,,0,245,245,148,1,pafo,,,,
,,,,,,613a563bf2e38ea679f50546,676192165fb32c2e1fb7aee6,67d1f423dac098723e3ac216,2025-03-12_14h57.16.371,Tarea de decisión léxica,2024.2.5,Win32,61.34969325,,,,,,,,,,,,,,,,,,,,,,,590.1443,591.1414,l,0,0.3174,,0.3174,0,591.1427,591.6403,,,,,,336,FEM,NOWORD,DIS,150,pesta,,el,,591.6403,591.6404,0.183333333,0.215740741,0,0,0,,0,246,246,335,1,costa,,,,
,,,,,,613a563bf2e38ea679f50546,676192165fb32c2e1fb7aee6,67d1f423dac098723e3ac216,2025-03-12_14h57.16.371,Tarea de decisión léxica,2024.2.5,Win32,61.34969325,,,,,,,,,,,,,,,,,,,,,,,591.6411,592.9568,l,1,0.6377,,0.6377,1,592.9578,593.4566,,,,,,371,FEM,WORD,DIS,150,pasta,,el,,593.4586,593.46,0.183333333,0.215740741,0,0,0,,0,247,247,370,1,mosta,,,,
,,,,,,613a563bf2e38ea679f50546,676192165fb32c2e1fb7aee6,67d1f423dac098723e3ac216,2025-03-12_14h57.16.371,Tarea de decisión léxica,2024.2.5,Win32,61.34969325,,,,,,,,,,,,,,,,,,,,,,,593.4614,595.505,l,1,1.3746,,1.3746,1,595.5052,596.0047,,,,,,119,MAS,WORD,DIS,150,pozo,,la,,596.0048,596.005,0.183333333,0.215740741,0,0,0,,0,248,248,118,1,hooy,,,,
,,,,,,613a563bf2e38ea679f50546,676192165fb32c2e1fb7aee6,67d1f423dac098723e3ac216,2025-03-12_14h57.16.371,Tarea de decisión léxica,2024.2.5,Win32,61.34969325,,,,,,,,,,,,,,,,,,,,,,,596.0068,597.287,a,1,0.6001,,0.6001,1,597.2872,597.7872,,,,,,450,FEM,NOWORD,AGR,150,crusa,,la,,597.7872,597.7874,0.183333333,0.215740741,0,0,0,,0,249,249,449,1,pluma,,,,
,,,,,,613a563bf2e38ea679f50546,676192165fb32c2e1fb7aee6,67d1f423dac098723e3ac216,2025-03-12_14h57.16.371,Tarea de decisión léxica,2024.2.5,Win32,61.34969325,,,,,,,,,,,,,,,,,,,,,,,597.7894,599.1194,l,1,0.6511,,0.6511,1,599.1195,599.6191,,,,,,159,MAS,WORD,DIS,150,giro,,la,,599.6191,599.6193,0.183333333,0.215740741,0,0,0,,0,250,250,158,1,bilo,,,,
,,,,,,613a563bf2e38ea679f50546,676192165fb32c2e1fb7aee6,67d1f423dac098723e3ac216,2025-03-12_14h57.16.371,Tarea de decisión léxica,2024.2.5,Win32,61.34969325,,,,,,,,,,,,,,,,,,,,,,,599.621,600.8347,a,1,0.5403,,0.5403,1,600.8349,601.3345,,,,,,328,MAS,NOWORD,DIS,150,lendo,,la,,601.3366,601.338,0.183333333,0.215740741,0,0,0,,0,251,251,327,1,fondo,,,,
,,,,,,613a563bf2e38ea679f50546,676192165fb32c2e1fb7aee6,67d1f423dac098723e3ac216,2025-03-12_14h57.16.371,Tarea de decisión léxica,2024.2.5,Win32,61.34969325,,,,,,,,,,,,,,,,,,,,,,,601.3394,602.65,a,1,0.6416,,0.6416,1,602.6502,603.1499,,,,,,388,FEM,NOWORD,DIS,150,bresa,,el,,603.1499,603.1501,0.183333333,0.215740741,0,0,0,,0,252,252,387,1,crema,,,,
,,,,,,613a563bf2e38ea679f50546,676192165fb32c2e1fb7aee6,67d1f423dac098723e3ac216,2025-03-12_14h57.16.371,Tarea de decisión léxica,2024.2.5,Win32,61.34969325,,,,,,,,,,,,,,,,,,,,,,,603.1521,604.3326,l,1,0.5005,,0.5005,1,604.3328,604.8322,,,,,,75,MAS,WORD,DIS,150,olor,,la,,604.8322,604.8325,0.183333333,0.215740741,0,0,0,,0,253,253,74,1,ocer,,,,
,,,,,,613a563bf2e38ea679f50546,676192165fb32c2e1fb7aee6,67d1f423dac098723e3ac216,2025-03-12_14h57.16.371,Tarea de decisión léxica,2024.2.5,Win32,61.34969325,,,,,,,,,,,,,,,,,,,,,,,604.8342,605.9981,a,1,0.484,,0.484,1,605.9983,606.4967,,,,,,392,MAS,NOWORD,DIS,150,dievo,,la,,606.4968,606.4969,0.183333333,0.215740741,0,0,0,,0,254,254,391,1,dueño,,,,
,,,,,,613a563bf2e38ea679f50546,676192165fb32c2e1fb7aee6,67d1f423dac098723e3ac216,2025-03-12_14h57.16.371,Tarea de decisión léxica,2024.2.5,Win32,61.34969325,,,,,,,,,,,,,,,,,,,,,,,606.4976,607.6638,a,0,0.4854,,0.4854,0,607.6653,608.1628,,,,,,197,MAS,WORD,AGR,150,bate,,el,,608.1628,608.163,0.183333333,0.215740741,0,0,0,,0,255,255,196,1,dade,,,,
,,,,,,613a563bf2e38ea679f50546,676192165fb32c2e1fb7aee6,67d1f423dac098723e3ac216,2025-03-12_14h57.16.371,Tarea de decisión léxica,2024.2.5,Win32,61.34969325,,,,,,,,,,,,,,,,,,,,,,,608.165,609.9119,l,0,1.0664,,1.0664,0,609.9121,610.4111,,,,,,270,MAS,NOWORD,AGR,150,mello,,el,,610.412,610.4126,0.183333333,0.215740741,0,0,0,,0,256,256,269,1,perro,,,,
,,,,,,613a563bf2e38ea679f50546,676192165fb32c2e1fb7aee6,67d1f423dac098723e3ac216,2025-03-12_14h57.16.371,Tarea de decisión léxica,2024.2.5,Win32,61.34969325,,,,,,,,,,,,,,,,,,,,,,,610.4133,611.6772,a,1,0.584,,0.584,1,611.6785,612.1769,,,,,,476,FEM,NOWORD,DIS,150,mucta,,el,,612.177,612.1772,0.183333333,0.215740741,0,0,0,,0,257,257,475,1,manta,,,,
,,,,,,613a563bf2e38ea679f50546,676192165fb32c2e1fb7aee6,67d1f423dac098723e3ac216,2025-03-12_14h57.16.371,Tarea de decisión léxica,2024.2.5,Win32,61.34969325,,,,,,,,,,,,,,,,,,,,,,,612.1789,613.3264,l,1,0.4701,,0.4701,1,613.3266,613.8259,,,,,,81,FEM,WORD,AGR,150,dama,,la,,613.8259,613.8261,0.183333333,0.215740741,0,0,0,,0,258,258,80,1,vasa,,,,
,,,,,,613a563bf2e38ea679f50546,676192165fb32c2e1fb7aee6,67d1f423dac098723e3ac216,2025-03-12_14h57.16.371,Tarea de decisión léxica,2024.2.5,Win32,61.34969325,,,,,,,,,,,,,,,,,,,,,,,613.8281,615.2579,a,1,0.7587,,0.7587,1,615.2581,615.757,,,,,,464,FEM,NOWORD,DIS,150,matla,,el,,615.757,615.7571,0.183333333,0.215740741,0,0,0,,0,259,259,463,1,cabra,,,,
,,,,,,613a563bf2e38ea679f50546,676192165fb32c2e1fb7aee6,67d1f423dac098723e3ac216,2025-03-12_14h57.16.371,Tarea de decisión léxica,2024.2.5,Win32,61.34969325,,,,,,,,,,,,,,,,,,,,,,,615.7579,617.0904,l,1,0.65,,0.65,1,617.0905,617.59,,,,,,429,FEM,WORD,AGR,150,tarta,,la,,617.5901,617.5903,0.183333333,0.215740741,0,0,0,,0,260,260,428,1,tenta,,,,
,,,,,,613a563bf2e38ea679f50546,676192165fb32c2e1fb7aee6,67d1f423dac098723e3ac216,2025-03-12_14h57.16.371,Tarea de decisión léxica,2024.2.5,Win32,61.34969325,,,,,,,,,,,,,,,,,,,,,,,617.5922,618.7724,a,1,0.5,,0.5,1,618.7725,619.2722,,,,,,138,MAS,NOWORD,AGR,150,pamo,,el,,619.2741,619.2756,0.183333333,0.215740741,0,0,0,,0,261,261,137,1,nene,,,,
,,,,,,613a563bf2e38ea679f50546,676192165fb32c2e1fb7aee6,67d1f423dac098723e3ac216,2025-03-12_14h57.16.371,Tarea de decisión léxica,2024.2.5,Win32,61.34969325,,,,,,,,,,,,,,,,,,,,,,,619.2771,620.5215,a,1,0.567,,0.567,1,620.5216,621.0211,,,,,,212,FEM,NOWORD,DIS,150,joad,,el,,621.0212,621.0214,0.183333333,0.215740741,0,0,0,,0,262,262,211,1,joya,,,,
,,,,,,613a563bf2e38ea679f50546,676192165fb32c2e1fb7aee6,67d1f423dac098723e3ac216,2025-03-12_14h57.16.371,Tarea de decisión léxica,2024.2.5,Win32,61.34969325,,,,,,,,,,,,,,,,,,,,,,,621.0231,622.2534,l,1,0.5547,,0.5547,1,622.2535,622.7532,,,,,,145,MAS,WORD,AGR,150,león,,el,,622.7534,622.7537,0.183333333,0.215740741,0,0,0,,0,263,263,144,1,nobo,,,,
,,,,,,613a563bf2e38ea679f50546,676192165fb32c2e1fb7aee6,67d1f423dac098723e3ac216,2025-03-12_14h57.16.371,Tarea de decisión léxica,2024.2.5,Win32,61.34969325,,,,,,,,,,,,,,,,,,,,,,,622.7557,624.3682,l,1,0.9338,,0.9338,1,624.3684,624.8675,,,,,,339,MAS,WORD,DIS,150,brazo,,la,,624.8675,624.8675,0.183333333,0.215740741,0,0,0,,0,264,264,338,1,plajo,,,,
