counterbalancing_condition,consent_prescreening.block_1/declare_consent,consent_prescreening.block_1/age_years,consent_prescreening.block_1/gender,consent_prescreening.block_1/language_disorder,consent_prescreening.block_1/first_language,PROLIFIC_PID,STUDY_ID,SESSION_ID,date,expName,psychopyVersion,OS,frameRate,check_prescreening_answers.started,check_prescreening_answers.stopped,Instructions.started,Instructions.stopped,instr_done_keyboard.keys,instr_done_keyboard.rt,instr_done_keyboard.duration,instr_done_touch.x,instr_done_touch.y,instr_done_touch.leftButton,instr_done_touch.midButton,instr_done_touch.rightButton,instruction_pages.thisRepN,instruction_pages.thisTrialN,instruction_pages.thisN,instruction_pages.thisIndex,instruction_pages.ran,pageN,phase,instruct_text,has_image,instruct_image,presentTrial.started,presentTrial.stopped,response.keys,response.corr,rt,corr,feedback.started,feedback.stopped,practice_trials.thisRepN,practice_trials.thisTrialN,practice_trials.thisN,practice_trials.thisIndex,practice_trials.ran,TrialID,Gender,StimulusType,Condition,PrimeDuration,Prime,len,Flanker,corrAns,response.rt,response.duration,Break.started,Break.stopped,break_done_touch.x,break_done_touch.y,break_done_touch.leftButton,break_done_touch.midButton,break_done_touch.rightButton,break_done_keyboard.keys,experiment_trials.thisRepN,experiment_trials.thisTrialN,experiment_trials.thisN,experiment_trials.thisIndex,experiment_trials.ran,PairedWith,break_done_keyboard.rt,break_done_keyboard.duration,End.started,End.stopped
3,"[""over_18"",""comfortable"",""read_info"",""consent_given""]",27,F,"[""none""]","[""spanish""]",613cd682e3e2846c1afe2132,676192165fb32c2e1fb7aee6,67d1b5388b234ca44b108d44,2025-03-12_10h25.16.082,Tarea de decisión léxica,2024.2.5,Win32,59.88023952,,,,,,,,,,,,,,,,,,,,,,,,,,,,,,,,,,,,,,,,,,,,,,,,,,,,,,,,,,,,,,,,
,,,,,,613cd682e3e2846c1afe2132,676192165fb32c2e1fb7aee6,67d1b5388b234ca44b108d44,2025-03-12_10h25.16.082,Tarea de decisión léxica,2024.2.5,Win32,59.88023952,27.1054,27.1055,,,,,,,,,,,,,,,,,,,,,,,,,,,,,,,,,,,,,,,,,,,,,,,,,,,,,,,,,,,,,,
,,,,,,613cd682e3e2846c1afe2132,676192165fb32c2e1fb7aee6,67d1b5388b234ca44b108d44,2025-03-12_10h25.16.082,Tarea de decisión léxica,2024.2.5,Win32,59.88023952,,,27.1178,36.7585,space,9.6106,,0.171111111,-0.152222222,0,0,0,0,0,0,0,1,1,instructions,"INSTRUCCIONES
Va a realizar una prueba de decisión léxica. Desde el comienzo de la prueba mire siempre al centro de la pantalla. Se presentará una serie de cadenas de letras, una a la vez, en la pantalla. Su tarea consiste en determinar si cada cadena de letras constituye una palabra real en español o una no-palabra (una secuencia de letras que no constituye una palabra real). 

Pulse la tecla ESPACIO para continuar.",0,keyboardresponseWN.png,,,,,,,,,,,,,,,,,,,,,,,,,,,,,,,,,,,,,,,,,,
,,,,,,613cd682e3e2846c1afe2132,676192165fb32c2e1fb7aee6,67d1b5388b234ca44b108d44,2025-03-12_10h25.16.082,Tarea de decisión léxica,2024.2.5,Win32,59.88023952,,,36.7638,46.1582,space,9.3789,,0.171111111,-0.152222222,0,0,0,0,1,1,1,1,2,instructions,"El procedimiento es el siguiente: Aparecerán dos barras verticales posicionadas en el centro de la pantalla, separadas por un pequeño espacio.Por favor, enfoque su atención en el espacio entre las barras. Esto preparará sus ojos para la siguiente cadena de letras, que aparecerá entre las dos barras durante un instante.

Pulse la tecla ESPACIO para continuar.",0,keyboardresponseWN.png,,,,,,,,,,,,,,,,,,,,,,,,,,,,,,,,,,,,,,,,,,
,,,,,,613cd682e3e2846c1afe2132,676192165fb32c2e1fb7aee6,67d1b5388b234ca44b108d44,2025-03-12_10h25.16.082,Tarea de decisión léxica,2024.2.5,Win32,59.88023952,,,46.1619,57.9407,space,11.7332,,0.171111111,-0.152222222,0,0,0,0,2,2,2,1,3,instructions,"En el teclado de su dispositivo, pulse la tecla ""A"" si la cadena de letras es una palabra real en español (por ejemplo: ""mano"") y la tecla ""L"" si la cadena de letras es una no-palabra (por ejemplo: ""minu"").
Pulse la tecla ESPACIO para continuar.",1,keyboardresponseWN.png,,,,,,,,,,,,,,,,,,,,,,,,,,,,,,,,,,,,,,,,,,
,,,,,,613cd682e3e2846c1afe2132,676192165fb32c2e1fb7aee6,67d1b5388b234ca44b108d44,2025-03-12_10h25.16.082,Tarea de decisión léxica,2024.2.5,Win32,59.88023952,,,57.9438,65.7409,space,7.7857,,0.171111111,-0.152222222,0,0,0,0,3,3,3,1,4,instructions,"Es muy importante que responda con la mayor rapidez y precisión posibles. Si no responde dentro de 2 segundos, aparecerá el mensaje ""Muy lento"" y el experimento pasará a la siguiente palabra. Inmediatamente después de su respuesta se indicará si fue correcta o no. Los primeros 15 intentos serán de práctica y habrá dos descansos durante la prueba.

Pulse la tecla ESPACIO  para iniciar la parte de práctica.",0,keyboardresponseWN.png,,,,,,,,,,,,,,,,,,,,,,,,,,,,,,,,,,,,,,,,,,
,,,,,,613cd682e3e2846c1afe2132,676192165fb32c2e1fb7aee6,67d1b5388b234ca44b108d44,2025-03-12_10h25.16.082,Tarea de decisión léxica,2024.2.5,Win32,59.88023952,,,,,,,,,,,,,,,,,,,,,,,65.753,68.3933,,0,,-1,68.3938,68.8927,0,0,0,1,1,1002,FEM,NOWORD,DIS,150,mabo,4,el,a,,,,,,,,,,,,,,,,,,,,
,,,,,,613cd682e3e2846c1afe2132,676192165fb32c2e1fb7aee6,67d1b5388b234ca44b108d44,2025-03-12_10h25.16.082,Tarea de decisión léxica,2024.2.5,Win32,59.88023952,,,,,,,,,,,,,,,,,,,,,,,68.8955,71.5408,,0,,-1,71.5409,72.0408,0,1,1,0,1,1001,FEM,NOWORD,AGR,150,croz,4,la,a,,,,,,,,,,,,,,,,,,,,
,,,,,,613cd682e3e2846c1afe2132,676192165fb32c2e1fb7aee6,67d1b5388b234ca44b108d44,2025-03-12_10h25.16.082,Tarea de decisión léxica,2024.2.5,Win32,59.88023952,,,,,,,,,,,,,,,,,,,,,,,72.0439,73.4077,l,1,0.6883,1,73.4168,73.9074,0,2,2,3,1,1004,FEM,NOWORD,AGR,150,bireo,5,la,a,0.6883,,,,,,,,,,,,,,,,,,,
,,,,,,613cd682e3e2846c1afe2132,676192165fb32c2e1fb7aee6,67d1b5388b234ca44b108d44,2025-03-12_10h25.16.082,Tarea de decisión léxica,2024.2.5,Win32,59.88023952,,,,,,,,,,,,,,,,,,,,,,,73.9105,75.0448,a,1,0.4655,1,75.0449,75.5411,0,3,3,9,1,1010,MAS,WORD,DIS,150,video,5,la,l,0.4655,,,,,,,,,,,,,,,,,,,
,,,,,,613cd682e3e2846c1afe2132,676192165fb32c2e1fb7aee6,67d1b5388b234ca44b108d44,2025-03-12_10h25.16.082,Tarea de decisión léxica,2024.2.5,Win32,59.88023952,,,,,,,,,,,,,,,,,,,,,,,75.5437,76.9076,a,1,0.6922,1,76.9079,77.4075,0,4,4,5,1,1006,FEM,WORD,AGR,150,cara,4,la,l,0.6922,,,,,,,,,,,,,,,,,,,
,,,,,,613cd682e3e2846c1afe2132,676192165fb32c2e1fb7aee6,67d1b5388b234ca44b108d44,2025-03-12_10h25.16.082,Tarea de decisión léxica,2024.2.5,Win32,59.88023952,,,,,,,,,,,,,,,,,,,,,,,77.4103,78.4076,a,1,0.3179,1,78.4077,78.9084,0,5,5,7,1,1008,MAS,WORD,DIS,150,frío,4,la,l,0.3179,,,,,,,,,,,,,,,,,,,
,,,,,,613cd682e3e2846c1afe2132,676192165fb32c2e1fb7aee6,67d1b5388b234ca44b108d44,2025-03-12_10h25.16.082,Tarea de decisión léxica,2024.2.5,Win32,59.88023952,,,,,,,,,,,,,,,,,,,,,,,78.9108,80.2242,l,1,0.623,1,80.2242,80.7242,0,6,6,4,1,1005,MAS,NOWORD,DIS,150,nobad,5,la,a,0.623,,,,,,,,,,,,,,,,,,,
,,,,,,613cd682e3e2846c1afe2132,676192165fb32c2e1fb7aee6,67d1b5388b234ca44b108d44,2025-03-12_10h25.16.082,Tarea de decisión léxica,2024.2.5,Win32,59.88023952,,,,,,,,,,,,,,,,,,,,,,,80.7278,81.7743,a,1,0.3732,1,81.7746,82.2741,0,7,7,6,1,1007,MAS,WORD,DIS,150,masa,4,la,l,0.3732,,,,,,,,,,,,,,,,,,,
,,,,,,613cd682e3e2846c1afe2132,676192165fb32c2e1fb7aee6,67d1b5388b234ca44b108d44,2025-03-12_10h25.16.082,Tarea de decisión léxica,2024.2.5,Win32,59.88023952,,,,,,,,,,,,,,,,,,,,,,,82.277,83.5961,l,1,0.6497,1,83.5963,84.0906,0,8,8,2,1,1003,FEM,NOWORD,DIS,150,muvor,5,el,a,0.6497,,,,,,,,,,,,,,,,,,,
,,,,,,613cd682e3e2846c1afe2132,676192165fb32c2e1fb7aee6,67d1b5388b234ca44b108d44,2025-03-12_10h25.16.082,Tarea de decisión léxica,2024.2.5,Win32,59.88023952,,,,,,,,,,,,,,,,,,,,,,,84.0919,85.3579,a,1,0.5897,1,85.3583,85.8573,0,9,9,8,1,1009,FEM,WORD,AGR,150,viejo,5,la,l,0.5897,,,,,,,,,,,,,,,,,,,
,,,,,,613cd682e3e2846c1afe2132,676192165fb32c2e1fb7aee6,67d1b5388b234ca44b108d44,2025-03-12_10h25.16.082,Tarea de decisión léxica,2024.2.5,Win32,59.88023952,,,90.5447,91.6743,space,1.11,,0.171111111,-0.152222222,0,0,0,,,,,,,,,,,91.6955,92.9908,l,1,0.6224,1,92.9909,93.491,,,,,,68,FEM,NOWORD,DIS,150,gesa,,el,,0.6224,,93.4922,93.4974,0.171111111,-0.152222222,0,0,0,,0,0,0,67,1,nena,,,,
,,,,,,613cd682e3e2846c1afe2132,676192165fb32c2e1fb7aee6,67d1b5388b234ca44b108d44,2025-03-12_10h25.16.082,Tarea de decisión léxica,2024.2.5,Win32,59.88023952,,,,,,,,,,,,,,,,,,,,,,,93.4978,94.5576,a,1,0.3901,1,94.5579,95.0574,,,,,,11,MAS,WORD,DIS,150,lado,,la,,0.3901,,95.0576,95.0578,0.171111111,-0.152222222,0,0,0,,0,1,1,10,1,bapo,,,,
,,,,,,613cd682e3e2846c1afe2132,676192165fb32c2e1fb7aee6,67d1b5388b234ca44b108d44,2025-03-12_10h25.16.082,Tarea de decisión léxica,2024.2.5,Win32,59.88023952,,,,,,,,,,,,,,,,,,,,,,,95.0607,96.1575,a,0,0.4371,0,96.1602,96.6573,,,,,,368,MAS,NOWORD,DIS,150,rerob,,la,,0.4371,,96.6599,96.6604,0.171111111,-0.152222222,0,0,0,,0,2,2,367,1,reloj,,,,
,,,,,,613cd682e3e2846c1afe2132,676192165fb32c2e1fb7aee6,67d1b5388b234ca44b108d44,2025-03-12_10h25.16.082,Tarea de decisión léxica,2024.2.5,Win32,59.88023952,,,,,,,,,,,,,,,,,,,,,,,96.6612,97.9575,l,1,0.6161,1,97.96,98.4575,,,,,,356,FEM,NOWORD,DIS,150,bepla,,el,,0.6161,,98.4577,98.4579,0.171111111,-0.152222222,0,0,0,,0,3,3,355,1,regla,,,,
,,,,,,613cd682e3e2846c1afe2132,676192165fb32c2e1fb7aee6,67d1b5388b234ca44b108d44,2025-03-12_10h25.16.082,Tarea de decisión léxica,2024.2.5,Win32,59.88023952,,,,,,,,,,,,,,,,,,,,,,,98.4602,99.5409,a,1,0.3848,1,99.541,100.0409,,,,,,221,FEM,WORD,AGR,150,mula,,la,,0.3848,,100.0412,100.0417,0.171111111,-0.152222222,0,0,0,,0,4,4,220,1,puca,,,,
,,,,,,613cd682e3e2846c1afe2132,676192165fb32c2e1fb7aee6,67d1b5388b234ca44b108d44,2025-03-12_10h25.16.082,Tarea de decisión léxica,2024.2.5,Win32,59.88023952,,,,,,,,,,,,,,,,,,,,,,,100.0441,101.1242,a,1,0.4,1,101.1245,101.6241,,,,,,229,MAS,WORD,AGR,150,amor,,el,,0.4,,101.6242,101.6247,0.171111111,-0.152222222,0,0,0,,0,5,5,228,1,ador,,,,
,,,,,,613cd682e3e2846c1afe2132,676192165fb32c2e1fb7aee6,67d1b5388b234ca44b108d44,2025-03-12_10h25.16.082,Tarea de decisión léxica,2024.2.5,Win32,59.88023952,,,,,,,,,,,,,,,,,,,,,,,101.6272,102.728,a,1,0.4318,1,102.7281,103.2243,,,,,,131,FEM,WORD,DIS,150,mina,,el,,0.4318,,103.2245,103.2249,0.171111111,-0.152222222,0,0,0,,0,6,6,130,1,fada,,,,
,,,,,,613cd682e3e2846c1afe2132,676192165fb32c2e1fb7aee6,67d1b5388b234ca44b108d44,2025-03-12_10h25.16.082,Tarea de decisión léxica,2024.2.5,Win32,59.88023952,,,,,,,,,,,,,,,,,,,,,,,103.2278,104.4076,l,1,0.4841,1,104.4079,104.9123,,,,,,476,FEM,NOWORD,DIS,150,mucta,,el,,0.4841,,104.9133,104.9137,0.171111111,-0.152222222,0,0,0,,0,7,7,475,1,manta,,,,
,,,,,,613cd682e3e2846c1afe2132,676192165fb32c2e1fb7aee6,67d1b5388b234ca44b108d44,2025-03-12_10h25.16.082,Tarea de decisión léxica,2024.2.5,Win32,59.88023952,,,,,,,,,,,,,,,,,,,,,,,104.9141,105.9908,a,1,0.401,1,105.9911,106.4908,,,,,,345,FEM,WORD,AGR,150,arena,,la,,0.401,,106.4911,106.4913,0.171111111,-0.152222222,0,0,0,,0,8,8,344,1,anera,,,,
,,,,,,613cd682e3e2846c1afe2132,676192165fb32c2e1fb7aee6,67d1b5388b234ca44b108d44,2025-03-12_10h25.16.082,Tarea de decisión léxica,2024.2.5,Win32,59.88023952,,,,,,,,,,,,,,,,,,,,,,,106.4938,107.5074,a,1,0.3339,1,107.5076,108.0076,,,,,,343,FEM,WORD,DIS,150,plata,,el,,0.3339,,108.0079,108.0083,0.171111111,-0.152222222,0,0,0,,0,9,9,342,1,trada,,,,
,,,,,,613cd682e3e2846c1afe2132,676192165fb32c2e1fb7aee6,67d1b5388b234ca44b108d44,2025-03-12_10h25.16.082,Tarea de decisión léxica,2024.2.5,Win32,59.88023952,,,,,,,,,,,,,,,,,,,,,,,108.0112,109.5243,a,1,0.834,1,109.5246,110.0241,,,,,,89,MAS,WORD,AGR,150,humo,,el,,0.834,,110.0242,110.0246,0.171111111,-0.152222222,0,0,0,,0,10,10,88,1,guso,,,,
,,,,,,613cd682e3e2846c1afe2132,676192165fb32c2e1fb7aee6,67d1b5388b234ca44b108d44,2025-03-12_10h25.16.082,Tarea de decisión léxica,2024.2.5,Win32,59.88023952,,,,,,,,,,,,,,,,,,,,,,,110.027,111.042,a,1,0.3366,1,111.0424,111.5411,,,,,,423,MAS,WORD,DIS,150,queso,,la,,0.3366,,111.5442,111.5449,0.171111111,-0.152222222,0,0,0,,0,11,11,422,1,quigo,,,,
,,,,,,613cd682e3e2846c1afe2132,676192165fb32c2e1fb7aee6,67d1b5388b234ca44b108d44,2025-03-12_10h25.16.082,Tarea de decisión léxica,2024.2.5,Win32,59.88023952,,,,,,,,,,,,,,,,,,,,,,,111.5458,112.6242,a,0,0.4037,0,112.6264,113.1124,,,,,,270,MAS,NOWORD,AGR,150,mello,,el,,0.4037,,113.1124,113.1125,0.171111111,-0.152222222,0,0,0,,0,12,12,269,1,perro,,,,
,,,,,,613cd682e3e2846c1afe2132,676192165fb32c2e1fb7aee6,67d1b5388b234ca44b108d44,2025-03-12_10h25.16.082,Tarea de decisión léxica,2024.2.5,Win32,59.88023952,,,,,,,,,,,,,,,,,,,,,,,113.1136,114.5575,l,1,0.7734,1,114.5599,115.0575,,,,,,358,FEM,NOWORD,AGR,150,gruba,,la,,0.7734,,115.0575,115.0576,0.171111111,-0.152222222,0,0,0,,0,13,13,357,1,bruja,,,,
,,,,,,613cd682e3e2846c1afe2132,676192165fb32c2e1fb7aee6,67d1b5388b234ca44b108d44,2025-03-12_10h25.16.082,Tarea de decisión léxica,2024.2.5,Win32,59.88023952,,,,,,,,,,,,,,,,,,,,,,,115.0598,116.1741,a,1,0.4397,1,116.1742,116.6751,,,,,,385,FEM,WORD,AGR,150,letra,,la,,0.4397,,116.6755,116.6758,0.171111111,-0.152222222,0,0,0,,0,14,14,384,1,febra,,,,
,,,,,,613cd682e3e2846c1afe2132,676192165fb32c2e1fb7aee6,67d1b5388b234ca44b108d44,2025-03-12_10h25.16.082,Tarea de decisión léxica,2024.2.5,Win32,59.88023952,,,,,,,,,,,,,,,,,,,,,,,116.6776,117.8255,l,1,0.4713,1,117.8259,118.325,,,,,,186,MAS,NOWORD,AGR,150,raol,,el,,0.4713,,118.3252,118.3255,0.171111111,-0.152222222,0,0,0,,0,15,15,185,1,baúl,,,,
,,,,,,613cd682e3e2846c1afe2132,676192165fb32c2e1fb7aee6,67d1b5388b234ca44b108d44,2025-03-12_10h25.16.082,Tarea de decisión léxica,2024.2.5,Win32,59.88023952,,,,,,,,,,,,,,,,,,,,,,,118.3275,119.5409,a,1,0.5341,1,119.5413,120.041,,,,,,119,MAS,WORD,DIS,150,pozo,,la,,0.5341,,120.0438,120.0448,0.171111111,-0.152222222,0,0,0,,0,16,16,118,1,hooy,,,,
,,,,,,613cd682e3e2846c1afe2132,676192165fb32c2e1fb7aee6,67d1b5388b234ca44b108d44,2025-03-12_10h25.16.082,Tarea de decisión léxica,2024.2.5,Win32,59.88023952,,,,,,,,,,,,,,,,,,,,,,,120.0457,121.3419,l,1,0.6236,1,121.3423,121.842,,,,,,218,MAS,NOWORD,AGR,150,budo,,el,,0.6236,,121.8424,121.8426,0.171111111,-0.152222222,0,0,0,,0,17,17,217,1,luto,,,,
,,,,,,613cd682e3e2846c1afe2132,676192165fb32c2e1fb7aee6,67d1b5388b234ca44b108d44,2025-03-12_10h25.16.082,Tarea de decisión léxica,2024.2.5,Win32,59.88023952,,,,,,,,,,,,,,,,,,,,,,,121.8444,123.0577,l,1,0.5362,1,123.058,123.5459,,,,,,184,FEM,NOWORD,DIS,150,raad,,el,,0.5362,,123.5459,123.5461,0.171111111,-0.152222222,0,0,0,,0,18,18,183,1,raya,,,,
,,,,,,613cd682e3e2846c1afe2132,676192165fb32c2e1fb7aee6,67d1b5388b234ca44b108d44,2025-03-12_10h25.16.082,Tarea de decisión léxica,2024.2.5,Win32,59.88023952,,,,,,,,,,,,,,,,,,,,,,,123.5475,124.6921,a,1,0.4654,1,124.6926,125.1906,,,,,,381,MAS,WORD,AGR,150,humor,,el,,0.4654,,125.1907,125.1908,0.171111111,-0.152222222,0,0,0,,0,19,19,380,1,nusor,,,,
,,,,,,613cd682e3e2846c1afe2132,676192165fb32c2e1fb7aee6,67d1b5388b234ca44b108d44,2025-03-12_10h25.16.082,Tarea de decisión léxica,2024.2.5,Win32,59.88023952,,,,,,,,,,,,,,,,,,,,,,,125.1932,126.3575,a,1,0.5,1,126.3577,126.8575,,,,,,237,MAS,WORD,AGR,150,nudo,,el,,0.5,,126.8575,126.8576,0.171111111,-0.152222222,0,0,0,,0,20,20,236,1,huco,,,,
,,,,,,613cd682e3e2846c1afe2132,676192165fb32c2e1fb7aee6,67d1b5388b234ca44b108d44,2025-03-12_10h25.16.082,Tarea de decisión léxica,2024.2.5,Win32,59.88023952,,,,,,,,,,,,,,,,,,,,,,,126.861,127.9409,a,1,0.4004,1,127.9409,128.4408,,,,,,391,MAS,WORD,DIS,150,dueño,,la,,0.4004,,128.444,128.4453,0.171111111,-0.152222222,0,0,0,,0,21,21,390,1,dievo,,,,
,,,,,,613cd682e3e2846c1afe2132,676192165fb32c2e1fb7aee6,67d1b5388b234ca44b108d44,2025-03-12_10h25.16.082,Tarea de decisión léxica,2024.2.5,Win32,59.88023952,,,,,,,,,,,,,,,,,,,,,,,128.4464,129.441,a,1,0.3198,1,129.4413,129.941,,,,,,351,MAS,WORD,DIS,150,vuelo,,la,,0.3198,,129.9412,129.9415,0.171111111,-0.152222222,0,0,0,,0,22,22,350,1,duepo,,,,
,,,,,,613cd682e3e2846c1afe2132,676192165fb32c2e1fb7aee6,67d1b5388b234ca44b108d44,2025-03-12_10h25.16.082,Tarea de decisión léxica,2024.2.5,Win32,59.88023952,,,,,,,,,,,,,,,,,,,,,,,129.944,131.2073,l,1,0.5835,1,131.2074,131.7076,,,,,,234,FEM,NOWORD,AGR,150,fasa,,la,,0.5835,,131.7077,131.7077,0.171111111,-0.152222222,0,0,0,,0,23,23,233,1,lana,,,,
,,,,,,613cd682e3e2846c1afe2132,676192165fb32c2e1fb7aee6,67d1b5388b234ca44b108d44,2025-03-12_10h25.16.082,Tarea de decisión léxica,2024.2.5,Win32,59.88023952,,,,,,,,,,,,,,,,,,,,,,,131.7104,132.8742,a,0,0.4933,0,132.8766,133.3743,,,,,,336,FEM,NOWORD,DIS,150,pesta,,el,,0.4933,,133.3746,133.3748,0.171111111,-0.152222222,0,0,0,,0,24,24,335,1,costa,,,,
,,,,,,613cd682e3e2846c1afe2132,676192165fb32c2e1fb7aee6,67d1b5388b234ca44b108d44,2025-03-12_10h25.16.082,Tarea de decisión léxica,2024.2.5,Win32,59.88023952,,,,,,,,,,,,,,,,,,,,,,,133.3774,134.7075,a,0,0.6508,0,134.7078,135.2077,,,,,,460,MAS,NOWORD,DIS,150,fraco,,la,,0.6508,,135.2078,135.2081,0.171111111,-0.152222222,0,0,0,,0,25,25,459,1,grado,,,,
,,,,,,613cd682e3e2846c1afe2132,676192165fb32c2e1fb7aee6,67d1b5388b234ca44b108d44,2025-03-12_10h25.16.082,Tarea de decisión léxica,2024.2.5,Win32,59.88023952,,,,,,,,,,,,,,,,,,,,,,,135.2104,136.5251,l,1,0.642,1,136.5269,137.0241,,,,,,456,MAS,NOWORD,DIS,150,riaso,,la,,0.642,,137.0269,137.0279,0.171111111,-0.152222222,0,0,0,,0,26,26,455,1,reino,,,,
,,,,,,613cd682e3e2846c1afe2132,676192165fb32c2e1fb7aee6,67d1b5388b234ca44b108d44,2025-03-12_10h25.16.082,Tarea de decisión léxica,2024.2.5,Win32,59.88023952,,,,,,,,,,,,,,,,,,,,,,,137.029,138.1917,a,1,0.4888,1,138.1921,138.6908,,,,,,139,MAS,WORD,DIS,150,mago,,la,,0.4888,,138.6909,138.691,0.171111111,-0.152222222,0,0,0,,0,27,27,138,1,nila,,,,
,,,,,,613cd682e3e2846c1afe2132,676192165fb32c2e1fb7aee6,67d1b5388b234ca44b108d44,2025-03-12_10h25.16.082,Tarea de decisión léxica,2024.2.5,Win32,59.88023952,,,,,,,,,,,,,,,,,,,,,,,138.6933,139.7741,a,1,0.4061,1,139.7744,140.2741,,,,,,377,MAS,WORD,AGR,150,hielo,,el,,0.4061,,140.2742,140.2745,0.171111111,-0.152222222,0,0,0,,0,28,28,376,1,gaulo,,,,
,,,,,,613cd682e3e2846c1afe2132,676192165fb32c2e1fb7aee6,67d1b5388b234ca44b108d44,2025-03-12_10h25.16.082,Tarea de decisión léxica,2024.2.5,Win32,59.88023952,,,,,,,,,,,,,,,,,,,,,,,140.2769,141.4409,a,1,0.4861,1,141.4412,141.9419,,,,,,73,MAS,WORD,AGR,150,odio,,el,,0.4861,,141.9421,141.9424,0.171111111,-0.152222222,0,0,0,,0,29,29,72,1,omio,,,,
,,,,,,613cd682e3e2846c1afe2132,676192165fb32c2e1fb7aee6,67d1b5388b234ca44b108d44,2025-03-12_10h25.16.082,Tarea de decisión léxica,2024.2.5,Win32,59.88023952,,,,,,,,,,,,,,,,,,,,,,,141.944,143.1743,l,1,0.5516,1,143.1744,143.6745,,,,,,276,MAS,NOWORD,DIS,150,musto,,la,,0.5516,,143.6748,143.675,0.171111111,-0.152222222,0,0,0,,0,30,30,275,1,punto,,,,
,,,,,,613cd682e3e2846c1afe2132,676192165fb32c2e1fb7aee6,67d1b5388b234ca44b108d44,2025-03-12_10h25.16.082,Tarea de decisión léxica,2024.2.5,Win32,59.88023952,,,,,,,,,,,,,,,,,,,,,,,143.6772,145.2074,l,1,0.8494,1,145.2075,145.7075,,,,,,58,MAS,NOWORD,AGR,150,heco,,el,,0.8494,,145.7108,145.7119,0.171111111,-0.152222222,0,0,0,,0,31,31,57,1,dedo,,,,
,,,,,,613cd682e3e2846c1afe2132,676192165fb32c2e1fb7aee6,67d1b5388b234ca44b108d44,2025-03-12_10h25.16.082,Tarea de decisión léxica,2024.2.5,Win32,59.88023952,,,,,,,,,,,,,,,,,,,,,,,145.7126,147.1241,l,1,0.7339,1,147.1243,147.6252,,,,,,404,FEM,NOWORD,DIS,150,grisa,,el,,0.7339,,147.6254,147.6257,0.171111111,-0.152222222,0,0,0,,0,32,32,403,1,prima,,,,
,,,,,,613cd682e3e2846c1afe2132,676192165fb32c2e1fb7aee6,67d1b5388b234ca44b108d44,2025-03-12_10h25.16.082,Tarea de decisión léxica,2024.2.5,Win32,59.88023952,,,,,,,,,,,,,,,,,,,,,,,147.6276,148.8421,a,1,0.5447,1,148.8425,149.3407,,,,,,353,FEM,WORD,AGR,150,celda,,la,,0.5447,,149.3408,149.341,0.171111111,-0.152222222,0,0,0,,0,33,33,352,1,cezca,,,,
,,,,,,613cd682e3e2846c1afe2132,676192165fb32c2e1fb7aee6,67d1b5388b234ca44b108d44,2025-03-12_10h25.16.082,Tarea de decisión léxica,2024.2.5,Win32,59.88023952,,,,,,,,,,,,,,,,,,,,,,,149.3435,150.5409,l,1,0.5237,1,150.5412,151.0408,,,,,,28,MAS,NOWORD,DIS,150,ravo,,la,,0.5237,,151.041,151.0413,0.171111111,-0.152222222,0,0,0,,0,34,34,27,1,baño,,,,
,,,,,,613cd682e3e2846c1afe2132,676192165fb32c2e1fb7aee6,67d1b5388b234ca44b108d44,2025-03-12_10h25.16.082,Tarea de decisión léxica,2024.2.5,Win32,59.88023952,,,,,,,,,,,,,,,,,,,,,,,151.0439,152.3742,a,1,0.6508,1,152.3746,152.8742,,,,,,225,MAS,WORD,AGR,150,lodo,,el,,0.6508,,152.8771,152.8782,0.171111111,-0.152222222,0,0,0,,0,35,35,224,1,boco,,,,
,,,,,,613cd682e3e2846c1afe2132,676192165fb32c2e1fb7aee6,67d1b5388b234ca44b108d44,2025-03-12_10h25.16.082,Tarea de decisión léxica,2024.2.5,Win32,59.88023952,,,,,,,,,,,,,,,,,,,,,,,152.8791,154.1445,l,1,0.5907,1,154.1445,154.6417,,,,,,408,FEM,NOWORD,DIS,150,cauba,,el,,0.5907,,154.6419,154.6422,0.171111111,-0.152222222,0,0,0,,0,36,36,407,1,cueva,,,,
,,,,,,613cd682e3e2846c1afe2132,676192165fb32c2e1fb7aee6,67d1b5388b234ca44b108d44,2025-03-12_10h25.16.082,Tarea de decisión léxica,2024.2.5,Win32,59.88023952,,,,,,,,,,,,,,,,,,,,,,,154.6441,155.7409,a,1,0.4239,1,155.7412,156.2407,,,,,,181,FEM,WORD,AGR,150,seda,,la,,0.4239,,156.2408,156.2409,0.171111111,-0.152222222,0,0,0,,0,37,37,180,1,teda,,,,
,,,,,,613cd682e3e2846c1afe2132,676192165fb32c2e1fb7aee6,67d1b5388b234ca44b108d44,2025-03-12_10h25.16.082,Tarea de decisión léxica,2024.2.5,Win32,59.88023952,,,,,,,,,,,,,,,,,,,,,,,156.2436,157.4243,l,1,0.5038,1,157.4246,157.9129,,,,,,130,MAS,NOWORD,AGR,150,pima,,el,,0.5038,,157.913,157.9131,0.171111111,-0.152222222,0,0,0,,0,38,38,129,1,oído,,,,
,,,,,,613cd682e3e2846c1afe2132,676192165fb32c2e1fb7aee6,67d1b5388b234ca44b108d44,2025-03-12_10h25.16.082,Tarea de decisión léxica,2024.2.5,Win32,59.88023952,,,,,,,,,,,,,,,,,,,,,,,157.9143,159.1577,l,1,0.5673,1,159.1579,159.6584,,,,,,194,FEM,NOWORD,AGR,150,foda,,la,,0.5673,,159.6586,159.6589,0.171111111,-0.152222222,0,0,0,,0,39,39,193,1,loca,,,,
,,,,,,613cd682e3e2846c1afe2132,676192165fb32c2e1fb7aee6,67d1b5388b234ca44b108d44,2025-03-12_10h25.16.082,Tarea de decisión léxica,2024.2.5,Win32,59.88023952,,,,,,,,,,,,,,,,,,,,,,,159.6607,160.8074,l,1,0.4671,1,160.8075,161.3074,,,,,,448,MAS,NOWORD,DIS,150,buaso,,la,,0.4671,,161.31,161.3105,0.171111111,-0.152222222,0,0,0,,0,40,40,447,1,bolso,,,,
,,,,,,613cd682e3e2846c1afe2132,676192165fb32c2e1fb7aee6,67d1b5388b234ca44b108d44,2025-03-12_10h25.16.082,Tarea de decisión léxica,2024.2.5,Win32,59.88023952,,,,,,,,,,,,,,,,,,,,,,,161.3109,162.4416,a,1,0.4612,1,162.4419,162.9409,,,,,,263,FEM,WORD,DIS,150,vista,,el,,0.4612,,162.9411,162.9413,0.171111111,-0.152222222,0,0,0,,0,41,41,262,1,dosta,,,,
,,,,,,613cd682e3e2846c1afe2132,676192165fb32c2e1fb7aee6,67d1b5388b234ca44b108d44,2025-03-12_10h25.16.082,Tarea de decisión léxica,2024.2.5,Win32,59.88023952,,,,,,,,,,,,,,,,,,,,,,,162.9442,164.2244,l,1,0.604,1,164.2248,164.7244,,,,,,450,FEM,NOWORD,AGR,150,crusa,,la,,0.604,,164.7245,164.7247,0.171111111,-0.152222222,0,0,0,,0,42,42,449,1,pluma,,,,
,,,,,,613cd682e3e2846c1afe2132,676192165fb32c2e1fb7aee6,67d1b5388b234ca44b108d44,2025-03-12_10h25.16.082,Tarea de decisión léxica,2024.2.5,Win32,59.88023952,,,,,,,,,,,,,,,,,,,,,,,164.7279,165.9076,a,1,0.4986,1,165.9077,166.4073,,,,,,69,FEM,WORD,AGR,150,zona,,la,,0.4986,,166.4073,166.4074,0.171111111,-0.152222222,0,0,0,,0,43,43,68,1,ñola,,,,
,,,,,,613cd682e3e2846c1afe2132,676192165fb32c2e1fb7aee6,67d1b5388b234ca44b108d44,2025-03-12_10h25.16.082,Tarea de decisión léxica,2024.2.5,Win32,59.88023952,,,,,,,,,,,,,,,,,,,,,,,166.4092,167.5743,a,1,0.4841,1,167.5746,168.0745,,,,,,405,FEM,WORD,AGR,150,barra,,la,,0.4841,,168.0748,168.0751,0.171111111,-0.152222222,0,0,0,,0,44,44,404,1,rarra,,,,
,,,,,,613cd682e3e2846c1afe2132,676192165fb32c2e1fb7aee6,67d1b5388b234ca44b108d44,2025-03-12_10h25.16.082,Tarea de decisión léxica,2024.2.5,Win32,59.88023952,,,,,,,,,,,,,,,,,,,,,,,168.0775,169.274,l,1,0.5267,1,169.2742,169.7744,,,,,,128,MAS,NOWORD,DIS,150,itio,,la,,0.5267,,169.777,169.778,0.171111111,-0.152222222,0,0,0,,0,45,45,127,1,pico,,,,
,,,,,,613cd682e3e2846c1afe2132,676192165fb32c2e1fb7aee6,67d1b5388b234ca44b108d44,2025-03-12_10h25.16.082,Tarea de decisión léxica,2024.2.5,Win32,59.88023952,,,,,,,,,,,,,,,,,,,,,,,169.7788,170.8243,a,1,0.3678,1,170.8246,171.324,,,,,,55,MAS,WORD,DIS,150,gato,,la,,0.3678,,171.3241,171.3242,0.171111111,-0.152222222,0,0,0,,0,46,46,54,1,jado,,,,
,,,,,,613cd682e3e2846c1afe2132,676192165fb32c2e1fb7aee6,67d1b5388b234ca44b108d44,2025-03-12_10h25.16.082,Tarea de decisión léxica,2024.2.5,Win32,59.88023952,,,,,,,,,,,,,,,,,,,,,,,171.3267,172.4419,a,1,0.4447,1,172.4425,172.9419,,,,,,213,FEM,WORD,AGR,150,rama,,la,,0.4447,,172.9422,172.9425,0.171111111,-0.152222222,0,0,0,,0,47,47,212,1,bana,,,,
,,,,,,613cd682e3e2846c1afe2132,676192165fb32c2e1fb7aee6,67d1b5388b234ca44b108d44,2025-03-12_10h25.16.082,Tarea de decisión léxica,2024.2.5,Win32,59.88023952,,,,,,,,,,,,,,,,,,,,,,,172.9443,174.0908,l,1,0.4764,1,174.0909,174.5908,,,,,,414,FEM,NOWORD,AGR,150,bieda,,la,,0.4764,,174.591,174.5911,0.171111111,-0.152222222,0,0,0,,0,48,48,413,1,rueda,,,,
,,,,,,613cd682e3e2846c1afe2132,676192165fb32c2e1fb7aee6,67d1b5388b234ca44b108d44,2025-03-12_10h25.16.082,Tarea de decisión léxica,2024.2.5,Win32,59.88023952,,,,,,,,,,,,,,,,,,,,,,,174.5937,175.7573,l,1,0.4889,1,175.7574,176.2577,,,,,,328,MAS,NOWORD,DIS,150,lendo,,la,,0.4889,,176.2579,176.2581,0.171111111,-0.152222222,0,0,0,,0,49,49,327,1,fondo,,,,
,,,,,,613cd682e3e2846c1afe2132,676192165fb32c2e1fb7aee6,67d1b5388b234ca44b108d44,2025-03-12_10h25.16.082,Tarea de decisión léxica,2024.2.5,Win32,59.88023952,,,,,,,,,,,,,,,,,,,,,,,176.2612,177.5418,l,0,0.6004,0,177.5438,178.0409,,,,,,235,FEM,WORD,DIS,150,grúa,,el,,0.6004,,178.0435,178.0444,0.171111111,-0.152222222,0,0,0,,0,50,50,234,1,tria,,,,
,,,,,,613cd682e3e2846c1afe2132,676192165fb32c2e1fb7aee6,67d1b5388b234ca44b108d44,2025-03-12_10h25.16.082,Tarea de decisión léxica,2024.2.5,Win32,59.88023952,,,,,,,,,,,,,,,,,,,,,,,178.0452,179.2742,a,1,0.5607,1,179.2763,179.7741,,,,,,251,MAS,WORD,DIS,150,señor,,la,,0.5607,,179.7742,179.7744,0.171111111,-0.152222222,0,0,0,,0,51,51,250,1,refor,,,,
,,,,,,613cd682e3e2846c1afe2132,676192165fb32c2e1fb7aee6,67d1b5388b234ca44b108d44,2025-03-12_10h25.16.082,Tarea de decisión léxica,2024.2.5,Win32,59.88023952,,,,,,,,,,,,,,,,,,,,,,,179.7773,181.0407,l,1,0.5862,1,181.0408,181.5409,,,,,,302,FEM,NOWORD,AGR,150,ranga,,la,,0.5862,,181.5412,181.5414,0.171111111,-0.152222222,0,0,0,,0,52,52,301,1,banda,,,,
,,,,,,613cd682e3e2846c1afe2132,676192165fb32c2e1fb7aee6,67d1b5388b234ca44b108d44,2025-03-12_10h25.16.082,Tarea de decisión léxica,2024.2.5,Win32,59.88023952,,,,,,,,,,,,,,,,,,,,,,,181.5437,183.7576,l,0,1.5403,0,183.7598,184.2575,,,,,,129,MAS,WORD,AGR,150,oído,,el,,1.5403,,184.2576,184.2577,0.171111111,-0.152222222,0,0,0,,0,53,53,128,1,pima,,,,
,,,,,,613cd682e3e2846c1afe2132,676192165fb32c2e1fb7aee6,67d1b5388b234ca44b108d44,2025-03-12_10h25.16.082,Tarea de decisión léxica,2024.2.5,Win32,59.88023952,,,,,,,,,,,,,,,,,,,,,,,184.2602,185.6074,l,1,0.6668,1,185.6093,186.1076,,,,,,8,MAS,NOWORD,DIS,150,nivo,,la,,0.6668,,186.1077,186.1079,0.171111111,-0.152222222,0,0,0,,0,54,54,7,1,hijo,,,,
,,,,,,613cd682e3e2846c1afe2132,676192165fb32c2e1fb7aee6,67d1b5388b234ca44b108d44,2025-03-12_10h25.16.082,Tarea de decisión léxica,2024.2.5,Win32,59.88023952,,,,,,,,,,,,,,,,,,,,,,,186.1105,187.8241,l,1,1.0334,1,187.8243,188.3241,,,,,,154,MAS,NOWORD,AGR,150,tado,,el,,1.0334,,188.3265,188.3275,0.171111111,-0.152222222,0,0,0,,0,55,55,153,1,pato,,,,
,,,,,,613cd682e3e2846c1afe2132,676192165fb32c2e1fb7aee6,67d1b5388b234ca44b108d44,2025-03-12_10h25.16.082,Tarea de decisión léxica,2024.2.5,Win32,59.88023952,,,,,,,,,,,,,,,,,,,,,,,188.3283,189.3576,l,1,0.3567,1,189.3579,189.8572,,,,,,152,MAS,NOWORD,DIS,150,sogo,,la,,0.3567,,189.8573,189.8573,0.171111111,-0.152222222,0,0,0,,0,56,56,151,1,tomo,,,,
,,,,,,613cd682e3e2846c1afe2132,676192165fb32c2e1fb7aee6,67d1b5388b234ca44b108d44,2025-03-12_10h25.16.082,Tarea de decisión léxica,2024.2.5,Win32,59.88023952,,,,,,,,,,,,,,,,,,,,,,,189.8592,190.9576,l,1,0.4234,1,190.9577,191.4575,,,,,,54,FEM,NOWORD,AGR,150,rora,,la,,0.4234,,191.4577,191.4582,0.171111111,-0.152222222,0,0,0,,0,57,57,53,1,boda,,,,
,,,,,,613cd682e3e2846c1afe2132,676192165fb32c2e1fb7aee6,67d1b5388b234ca44b108d44,2025-03-12_10h25.16.082,Tarea de decisión léxica,2024.2.5,Win32,59.88023952,,,,,,,,,,,,,,,,,,,,,,,191.4606,192.541,l,0,0.4079,0,192.5432,193.0408,,,,,,277,MAS,WORD,AGR,150,fuego,,el,,0.4079,,193.0409,193.041,0.171111111,-0.152222222,0,0,0,,0,58,58,276,1,vuemo,,,,
,,,,,,613cd682e3e2846c1afe2132,676192165fb32c2e1fb7aee6,67d1b5388b234ca44b108d44,2025-03-12_10h25.16.082,Tarea de decisión léxica,2024.2.5,Win32,59.88023952,,,,,,,,,,,,,,,,,,,,,,,193.0437,194.1074,a,1,0.3916,1,194.1092,194.6075,,,,,,61,FEM,WORD,AGR,150,obra,,la,,0.3916,,194.61,194.6104,0.171111111,-0.152222222,0,0,0,,0,59,59,60,1,efla,,,,
,,,,,,613cd682e3e2846c1afe2132,676192165fb32c2e1fb7aee6,67d1b5388b234ca44b108d44,2025-03-12_10h25.16.082,Tarea de decisión léxica,2024.2.5,Win32,59.88023952,,,,,,,,,,,,,,,,,,,,,,,194.6108,195.7911,l,1,0.5053,1,195.7913,196.2909,,,,,,232,FEM,NOWORD,DIS,150,heta,,el,,0.5053,,196.2911,196.2914,0.171111111,-0.152222222,0,0,0,,0,60,60,231,1,bota,,,,
,,,,,,613cd682e3e2846c1afe2132,676192165fb32c2e1fb7aee6,67d1b5388b234ca44b108d44,2025-03-12_10h25.16.082,Tarea de decisión léxica,2024.2.5,Win32,59.88023952,,,,,,,,,,,,,,,,,,,,,,,196.2937,197.5245,l,1,0.5513,1,197.5247,198.0242,,,,,,308,MAS,NOWORD,DIS,150,holol,,la,,0.5513,,198.0243,198.0245,0.171111111,-0.152222222,0,0,0,,0,61,61,307,1,hotel,,,,
,,,,,,613cd682e3e2846c1afe2132,676192165fb32c2e1fb7aee6,67d1b5388b234ca44b108d44,2025-03-12_10h25.16.082,Tarea de decisión léxica,2024.2.5,Win32,59.88023952,,,,,,,,,,,,,,,,,,,,,,,198.0273,199.1242,a,1,0.4299,1,199.1242,199.6253,,,,,,455,MAS,WORD,DIS,150,reino,,la,,0.4299,,199.6255,199.6258,0.171111111,-0.152222222,0,0,0,,0,62,62,454,1,riaso,,,,
,,,,,,613cd682e3e2846c1afe2132,676192165fb32c2e1fb7aee6,67d1b5388b234ca44b108d44,2025-03-12_10h25.16.082,Tarea de decisión léxica,2024.2.5,Win32,59.88023952,,,,,,,,,,,,,,,,,,,,,,,199.628,200.7243,l,1,0.4174,1,200.7247,201.2241,,,,,,212,FEM,NOWORD,DIS,150,joad,,el,,0.4174,,201.2241,201.2241,0.171111111,-0.152222222,0,0,0,,0,63,63,211,1,joya,,,,
,,,,,,613cd682e3e2846c1afe2132,676192165fb32c2e1fb7aee6,67d1b5388b234ca44b108d44,2025-03-12_10h25.16.082,Tarea de decisión léxica,2024.2.5,Win32,59.88023952,,,,,,,,,,,,,,,,,,,,,,,201.2266,202.4743,l,1,0.577,1,202.4744,202.9745,,,,,,20,MAS,NOWORD,DIS,150,himo,,la,,0.577,,202.9769,202.9778,0.171111111,-0.152222222,0,0,0,,0,64,64,19,1,niño,,,,
,,,,,,613cd682e3e2846c1afe2132,676192165fb32c2e1fb7aee6,67d1b5388b234ca44b108d44,2025-03-12_10h25.16.082,Tarea de decisión léxica,2024.2.5,Win32,59.88023952,,,,,,,,,,,,,,,,,,,,,,,202.9784,204.0741,a,1,0.4266,1,204.0742,204.5743,,,,,,45,FEM,WORD,AGR,150,mesa,,la,,0.4266,,204.5744,204.5745,0.171111111,-0.152222222,0,0,0,,0,65,65,44,1,pema,,,,
,,,,,,613cd682e3e2846c1afe2132,676192165fb32c2e1fb7aee6,67d1b5388b234ca44b108d44,2025-03-12_10h25.16.082,Tarea de decisión léxica,2024.2.5,Win32,59.88023952,,,,,,,,,,,,,,,,,,,,,,,204.5771,205.7579,l,1,0.5062,1,205.7582,206.2573,,,,,,402,MAS,NOWORD,AGR,150,pirvo,,el,,0.5062,,206.2574,206.2574,0.171111111,-0.152222222,0,0,0,,0,66,66,401,1,polvo,,,,
,,,,,,613cd682e3e2846c1afe2132,676192165fb32c2e1fb7aee6,67d1b5388b234ca44b108d44,2025-03-12_10h25.16.082,Tarea de decisión léxica,2024.2.5,Win32,59.88023952,,,,,,,,,,,,,,,,,,,,,,,206.2596,207.3747,a,1,0.4399,1,207.375,207.8744,,,,,,249,FEM,WORD,AGR,150,clase,,la,,0.4399,,207.8747,207.8749,0.171111111,-0.152222222,0,0,0,,0,67,67,248,1,plane,,,,
,,,,,,613cd682e3e2846c1afe2132,676192165fb32c2e1fb7aee6,67d1b5388b234ca44b108d44,2025-03-12_10h25.16.082,Tarea de decisión léxica,2024.2.5,Win32,59.88023952,,,,,,,,,,,,,,,,,,,,,,,207.8776,209.0587,a,1,0.501,1,209.059,209.5578,,,,,,121,MAS,WORD,AGR,150,hoyo,,el,,0.501,,209.558,209.5583,0.171111111,-0.152222222,0,0,0,,0,68,68,120,1,bomo,,,,
,,,,,,613cd682e3e2846c1afe2132,676192165fb32c2e1fb7aee6,67d1b5388b234ca44b108d44,2025-03-12_10h25.16.082,Tarea de decisión léxica,2024.2.5,Win32,59.88023952,,,,,,,,,,,,,,,,,,,,,,,209.561,210.5745,a,1,0.3399,1,210.5748,211.0742,,,,,,91,FEM,WORD,DIS,150,taza,,el,,0.3399,,211.0768,211.0775,0.171111111,-0.152222222,0,0,0,,0,69,69,90,1,sava,,,,
,,,,,,613cd682e3e2846c1afe2132,676192165fb32c2e1fb7aee6,67d1b5388b234ca44b108d44,2025-03-12_10h25.16.082,Tarea de decisión léxica,2024.2.5,Win32,59.88023952,,,,,,,,,,,,,,,,,,,,,,,211.0782,212.0421,a,1,0.2952,1,212.0425,212.541,,,,,,155,FEM,WORD,DIS,150,fuga,,el,,0.2952,,212.541,212.5411,0.171111111,-0.152222222,0,0,0,,0,70,70,154,1,luma,,,,
,,,,,,613cd682e3e2846c1afe2132,676192165fb32c2e1fb7aee6,67d1b5388b234ca44b108d44,2025-03-12_10h25.16.082,Tarea de decisión léxica,2024.2.5,Win32,59.88023952,,,,,,,,,,,,,,,,,,,,,,,212.5442,213.5244,a,1,0.3135,1,213.5247,214.0242,,,,,,309,FEM,WORD,AGR,150,silla,,la,,0.3135,,214.0243,214.0244,0.171111111,-0.152222222,0,0,0,,0,71,71,308,1,tirra,,,,
,,,,,,613cd682e3e2846c1afe2132,676192165fb32c2e1fb7aee6,67d1b5388b234ca44b108d44,2025-03-12_10h25.16.082,Tarea de decisión léxica,2024.2.5,Win32,59.88023952,,,,,,,,,,,,,,,,,,,,,,,214.0271,214.9908,a,1,0.289,1,214.991,215.4908,,,,,,321,MAS,WORD,AGR,150,banco,,el,,0.289,,215.4908,215.491,0.171111111,-0.152222222,0,0,0,,0,72,72,320,1,rarco,,,,
,,,,,,613cd682e3e2846c1afe2132,676192165fb32c2e1fb7aee6,67d1b5388b234ca44b108d44,2025-03-12_10h25.16.082,Tarea de decisión léxica,2024.2.5,Win32,59.88023952,,,,,,,,,,,,,,,,,,,,,,,215.4935,216.3907,a,0,0.2174,0,216.3919,216.8911,,,,,,136,MAS,NOWORD,DIS,150,geso,,la,,0.2174,,216.8912,216.8914,0.171111111,-0.152222222,0,0,0,,0,73,73,135,1,tubo,,,,
,,,,,,613cd682e3e2846c1afe2132,676192165fb32c2e1fb7aee6,67d1b5388b234ca44b108d44,2025-03-12_10h25.16.082,Tarea de decisión léxica,2024.2.5,Win32,59.88023952,,,,,,,,,,,,,,,,,,,,,,,216.894,218.4417,a,0,0.8784,0,218.442,218.941,,,,,,418,FEM,NOWORD,AGR,150,banja,,la,,0.8784,,218.9435,218.9445,0.171111111,-0.152222222,0,0,0,,0,74,74,417,1,barba,,,,
,,,,,,613cd682e3e2846c1afe2132,676192165fb32c2e1fb7aee6,67d1b5388b234ca44b108d44,2025-03-12_10h25.16.082,Tarea de decisión léxica,2024.2.5,Win32,59.88023952,,,,,,,,,,,,,,,,,,,,,,,218.9455,220.2076,a,1,0.5871,1,220.2101,220.7076,,,,,,23,FEM,WORD,DIS,150,hija,,el,,0.5871,,220.7078,220.7081,0.171111111,-0.152222222,0,0,0,,0,75,75,22,1,giva,,,,
,,,,,,613cd682e3e2846c1afe2132,676192165fb32c2e1fb7aee6,67d1b5388b234ca44b108d44,2025-03-12_10h25.16.082,Tarea de decisión léxica,2024.2.5,Win32,59.88023952,,,,,,,,,,,,,,,,,,,,,,,220.7106,222.1409,l,1,0.758,1,222.141,222.6408,,,,,,346,FEM,NOWORD,AGR,150,anera,,la,,0.758,,222.6409,222.641,0.171111111,-0.152222222,0,0,0,,0,76,76,345,1,arena,,,,
,,,,,,613cd682e3e2846c1afe2132,676192165fb32c2e1fb7aee6,67d1b5388b234ca44b108d44,2025-03-12_10h25.16.082,Tarea de decisión léxica,2024.2.5,Win32,59.88023952,,,,,,,,,,,,,,,,,,,,,,,222.6437,223.924,l,1,0.6003,1,223.9241,224.4252,,,,,,310,FEM,NOWORD,AGR,150,tirra,,la,,0.6003,,224.4255,224.4258,0.171111111,-0.152222222,0,0,0,,0,77,77,309,1,silla,,,,
,,,,,,613cd682e3e2846c1afe2132,676192165fb32c2e1fb7aee6,67d1b5388b234ca44b108d44,2025-03-12_10h25.16.082,Tarea de decisión léxica,2024.2.5,Win32,59.88023952,,,,,,,,,,,,,,,,,,,,,,,224.4276,225.6408,l,1,0.5341,1,225.6409,226.1408,,,,,,246,FEM,NOWORD,AGR,150,pafle,,la,,0.5341,,226.1411,226.1413,0.171111111,-0.152222222,0,0,0,,0,78,78,245,1,madre,,,,
,,,,,,613cd682e3e2846c1afe2132,676192165fb32c2e1fb7aee6,67d1b5388b234ca44b108d44,2025-03-12_10h25.16.082,Tarea de decisión léxica,2024.2.5,Win32,59.88023952,,,,,,,,,,,,,,,,,,,,,,,226.1437,227.2573,a,1,0.4428,1,227.2574,227.7575,,,,,,141,FEM,WORD,AGR,150,cruz,,la,,0.4428,,227.76,227.7609,0.171111111,-0.152222222,0,0,0,,0,79,79,140,1,sina,,,,
,,,,,,613cd682e3e2846c1afe2132,676192165fb32c2e1fb7aee6,67d1b5388b234ca44b108d44,2025-03-12_10h25.16.082,Tarea de decisión léxica,2024.2.5,Win32,59.88023952,,,,,,,,,,,,,,,,,,,,,,,227.7616,228.9909,l,1,0.5547,1,228.991,229.4909,,,,,,248,FEM,NOWORD,DIS,150,trida,,el,,0.5547,,229.4909,229.491,0.171111111,-0.152222222,0,0,0,,0,80,80,247,1,chica,,,,
,,,,,,613cd682e3e2846c1afe2132,676192165fb32c2e1fb7aee6,67d1b5388b234ca44b108d44,2025-03-12_10h25.16.082,Tarea de decisión léxica,2024.2.5,Win32,59.88023952,,,,,,,,,,,,,,,,,,,,,,,229.4937,230.7085,l,1,0.534,1,230.7089,231.2086,,,,,,284,MAS,NOWORD,DIS,150,tuevo,,la,,0.534,,231.2088,231.2091,0.171111111,-0.152222222,0,0,0,,0,81,81,283,1,sueño,,,,
,,,,,,613cd682e3e2846c1afe2132,676192165fb32c2e1fb7aee6,67d1b5388b234ca44b108d44,2025-03-12_10h25.16.082,Tarea de decisión léxica,2024.2.5,Win32,59.88023952,,,,,,,,,,,,,,,,,,,,,,,231.2109,232.4742,l,1,0.5935,1,232.4743,232.9781,,,,,,110,MAS,NOWORD,AGR,150,suno,,el,,0.5935,,232.9782,232.9784,0.171111111,-0.152222222,0,0,0,,0,82,82,109,1,rayo,,,,
,,,,,,613cd682e3e2846c1afe2132,676192165fb32c2e1fb7aee6,67d1b5388b234ca44b108d44,2025-03-12_10h25.16.082,Tarea de decisión léxica,2024.2.5,Win32,59.88023952,,,,,,,,,,,,,,,,,,,,,,,232.981,234.1085,l,1,0.4584,1,234.109,234.6076,,,,,,190,MAS,NOWORD,AGR,150,muvo,,el,,0.4584,,234.6102,234.6112,0.171111111,-0.152222222,0,0,0,,0,83,83,189,1,puño,,,,
,,,,,,613cd682e3e2846c1afe2132,676192165fb32c2e1fb7aee6,67d1b5388b234ca44b108d44,2025-03-12_10h25.16.082,Tarea de decisión léxica,2024.2.5,Win32,59.88023952,,,,,,,,,,,,,,,,,,,,,,,234.6121,235.8078,a,1,0.521,1,235.8084,236.3129,,,,,,433,MAS,WORD,AGR,150,disco,,el,,0.521,,236.313,236.3131,0.171111111,-0.152222222,0,0,0,,0,84,84,432,1,durco,,,,
,,,,,,613cd682e3e2846c1afe2132,676192165fb32c2e1fb7aee6,67d1b5388b234ca44b108d44,2025-03-12_10h25.16.082,Tarea de decisión léxica,2024.2.5,Win32,59.88023952,,,,,,,,,,,,,,,,,,,,,,,236.3143,237.3911,a,1,0.4048,1,237.3912,237.8909,,,,,,457,MAS,WORD,AGR,150,plato,,el,,0.4048,,237.891,237.8911,0.171111111,-0.152222222,0,0,0,,0,85,85,456,1,glaco,,,,
,,,,,,613cd682e3e2846c1afe2132,676192165fb32c2e1fb7aee6,67d1b5388b234ca44b108d44,2025-03-12_10h25.16.082,Tarea de decisión léxica,2024.2.5,Win32,59.88023952,,,,,,,,,,,,,,,,,,,,,,,237.8936,238.9743,a,1,0.4056,1,238.9744,239.4741,,,,,,451,FEM,WORD,DIS,150,fruta,,el,,0.4056,,239.4741,239.4741,0.171111111,-0.152222222,0,0,0,,0,86,86,450,1,clita,,,,
,,,,,,613cd682e3e2846c1afe2132,676192165fb32c2e1fb7aee6,67d1b5388b234ca44b108d44,2025-03-12_10h25.16.082,Tarea de decisión léxica,2024.2.5,Win32,59.88023952,,,,,,,,,,,,,,,,,,,,,,,239.4752,240.6575,a,1,0.5024,1,240.6577,241.1575,,,,,,291,FEM,WORD,DIS,150,pista,,el,,0.5024,,241.1576,241.1579,0.171111111,-0.152222222,0,0,0,,0,87,87,290,1,mesta,,,,
,,,,,,613cd682e3e2846c1afe2132,676192165fb32c2e1fb7aee6,67d1b5388b234ca44b108d44,2025-03-12_10h25.16.082,Tarea de decisión léxica,2024.2.5,Win32,59.88023952,,,,,,,,,,,,,,,,,,,,,,,241.1604,242.1241,a,1,0.2909,1,242.1241,242.6253,,,,,,349,MAS,WORD,AGR,150,color,,el,,0.2909,,242.6276,242.6284,0.171111111,-0.152222222,0,0,0,,0,88,88,348,1,cosir,,,,
,,,,,,613cd682e3e2846c1afe2132,676192165fb32c2e1fb7aee6,67d1b5388b234ca44b108d44,2025-03-12_10h25.16.082,Tarea de decisión léxica,2024.2.5,Win32,59.88023952,,,,,,,,,,,,,,,,,,,,,,,242.6292,243.6243,a,1,0.3174,1,243.6245,244.124,,,,,,479,MAS,WORD,DIS,150,rumbo,,la,,0.3174,,244.124,244.1241,0.171111111,-0.152222222,0,0,0,,0,89,89,478,1,rimpo,,,,
,,,,,,613cd682e3e2846c1afe2132,676192165fb32c2e1fb7aee6,67d1b5388b234ca44b108d44,2025-03-12_10h25.16.082,Tarea de decisión léxica,2024.2.5,Win32,59.88023952,,,,,,,,,,,,,,,,,,,,,,,244.1259,245.3076,l,1,0.5082,1,245.3076,245.8077,,,,,,76,MAS,NOWORD,DIS,150,ocer,,la,,0.5082,,245.8077,245.8078,0.171111111,-0.152222222,0,0,0,,0,90,90,75,1,olor,,,,
,,,,,,613cd682e3e2846c1afe2132,676192165fb32c2e1fb7aee6,67d1b5388b234ca44b108d44,2025-03-12_10h25.16.082,Tarea de decisión léxica,2024.2.5,Win32,59.88023952,,,,,,,,,,,,,,,,,,,,,,,245.8106,246.991,l,1,0.5055,1,246.9911,247.4911,,,,,,216,FEM,NOWORD,DIS,150,raua,,el,,0.5055,,247.4912,247.4916,0.171111111,-0.152222222,0,0,0,,0,91,91,215,1,raíz,,,,
,,,,,,613cd682e3e2846c1afe2132,676192165fb32c2e1fb7aee6,67d1b5388b234ca44b108d44,2025-03-12_10h25.16.082,Tarea de decisión léxica,2024.2.5,Win32,59.88023952,,,,,,,,,,,,,,,,,,,,,,,247.494,248.8574,a,1,0.6924,1,248.8575,249.3578,,,,,,95,FEM,WORD,DIS,151,moda,,el,,0.6924,,249.3579,249.3581,0.171111111,-0.152222222,0,0,0,,0,92,92,94,1,neda,,,,
,,,,,,613cd682e3e2846c1afe2132,676192165fb32c2e1fb7aee6,67d1b5388b234ca44b108d44,2025-03-12_10h25.16.082,Tarea de decisión léxica,2024.2.5,Win32,59.88023952,,,,,,,,,,,,,,,,,,,,,,,249.3606,250.4077,a,1,0.3677,1,250.4079,250.9077,,,,,,97,MAS,WORD,AGR,150,mono,,el,,0.3677,,250.9105,250.9112,0.171111111,-0.152222222,0,0,0,,0,93,93,96,1,fopo,,,,
,,,,,,613cd682e3e2846c1afe2132,676192165fb32c2e1fb7aee6,67d1b5388b234ca44b108d44,2025-03-12_10h25.16.082,Tarea de decisión léxica,2024.2.5,Win32,59.88023952,,,,,,,,,,,,,,,,,,,,,,,250.9119,251.9618,a,1,0.382,1,251.9619,252.4573,,,,,,195,FEM,WORD,DIS,150,tela,,el,,0.382,,252.4573,252.4574,0.171111111,-0.152222222,0,0,0,,0,94,94,194,1,sira,,,,
,,,,,,613cd682e3e2846c1afe2132,676192165fb32c2e1fb7aee6,67d1b5388b234ca44b108d44,2025-03-12_10h25.16.082,Tarea de decisión léxica,2024.2.5,Win32,59.88023952,,,,,,,,,,,,,,,,,,,,,,,252.4589,253.3743,a,0,0.255,0,253.3766,253.8743,,,,,,192,FEM,NOWORD,DIS,150,bila,,el,,0.255,,253.8745,253.8747,0.171111111,-0.152222222,0,0,0,,0,95,95,191,1,pila,,,,
,,,,,,613cd682e3e2846c1afe2132,676192165fb32c2e1fb7aee6,67d1b5388b234ca44b108d44,2025-03-12_10h25.16.082,Tarea de decisión léxica,2024.2.5,Win32,59.88023952,,,,,,,,,,,,,,,,,,,,,,,253.8771,255.191,l,1,0.6491,1,255.1933,255.691,,,,,,326,FEM,NOWORD,AGR,150,mabia,,la,,0.6491,,255.691,255.6911,0.171111111,-0.152222222,0,0,0,,0,96,96,325,1,magia,,,,
,,,,,,613cd682e3e2846c1afe2132,676192165fb32c2e1fb7aee6,67d1b5388b234ca44b108d44,2025-03-12_10h25.16.082,Tarea de decisión léxica,2024.2.5,Win32,59.88023952,,,,,,,,,,,,,,,,,,,,,,,255.6941,256.8572,l,0,0.4931,0,256.8603,257.3578,,,,,,37,MAS,WORD,AGR,150,rato,,el,,0.4931,,257.3579,257.3581,0.171111111,-0.152222222,0,0,0,,0,97,97,36,1,gaco,,,,
,,,,,,613cd682e3e2846c1afe2132,676192165fb32c2e1fb7aee6,67d1b5388b234ca44b108d44,2025-03-12_10h25.16.082,Tarea de decisión léxica,2024.2.5,Win32,59.88023952,,,,,,,,,,,,,,,,,,,,,,,257.3606,258.5751,a,1,0.5363,1,258.577,259.0743,,,,,,285,MAS,WORD,AGR,150,error,,el,,0.5363,,259.0768,259.0778,0.171111111,-0.152222222,0,0,0,,0,98,98,284,1,echor,,,,
,,,,,,613cd682e3e2846c1afe2132,676192165fb32c2e1fb7aee6,67d1b5388b234ca44b108d44,2025-03-12_10h25.16.082,Tarea de decisión léxica,2024.2.5,Win32,59.88023952,,,,,,,,,,,,,,,,,,,,,,,259.0786,260.2408,l,1,0.4861,1,260.2408,260.7409,,,,,,118,MAS,NOWORD,AGR,150,movo,,el,,0.4861,,260.7411,260.7414,0.171111111,-0.152222222,0,0,0,,0,99,99,117,1,palo,,,,
,,,,,,613cd682e3e2846c1afe2132,676192165fb32c2e1fb7aee6,67d1b5388b234ca44b108d44,2025-03-12_10h25.16.082,Tarea de decisión léxica,2024.2.5,Win32,59.88023952,,,,,,,,,,,,,,,,,,,,,,,260.7438,262.1742,l,1,0.7564,1,262.1744,262.6743,,,,,,424,MAS,NOWORD,DIS,150,quigo,,la,,0.7564,,262.6743,262.6744,0.171111111,-0.152222222,0,0,0,,0,100,100,423,1,queso,,,,
,,,,,,613cd682e3e2846c1afe2132,676192165fb32c2e1fb7aee6,67d1b5388b234ca44b108d44,2025-03-12_10h25.16.082,Tarea de decisión léxica,2024.2.5,Win32,59.88023952,,,,,,,,,,,,,,,,,,,,,,,262.6771,263.8244,a,1,0.4711,1,263.8247,264.3243,,,,,,473,FEM,WORD,AGR,150,feria,,la,,0.4711,,264.3245,264.3247,0.171111111,-0.152222222,0,0,0,,0,101,101,472,1,felia,,,,
,,,,,,613cd682e3e2846c1afe2132,676192165fb32c2e1fb7aee6,67d1b5388b234ca44b108d44,2025-03-12_10h25.16.082,Tarea de decisión léxica,2024.2.5,Win32,59.88023952,,,,,,,,,,,,,,,,,,,,,,,264.3275,265.5418,l,1,0.5336,1,265.5422,266.041,,,,,,72,FEM,NOWORD,DIS,150,urla,,el,,0.5336,,266.0412,266.0415,0.171111111,-0.152222222,0,0,0,,0,102,102,71,1,isla,,,,
,,,,,,613cd682e3e2846c1afe2132,676192165fb32c2e1fb7aee6,67d1b5388b234ca44b108d44,2025-03-12_10h25.16.082,Tarea de decisión léxica,2024.2.5,Win32,59.88023952,,,,,,,,,,,,,,,,,,,,,,,266.0438,267.2742,l,1,0.5602,1,267.2743,267.7744,,,,,,428,FEM,NOWORD,DIS,150,oseva,,el,,0.5602,,267.7768,267.7779,0.171111111,-0.152222222,0,0,0,,0,103,103,427,1,oreja,,,,
,,,,,,613cd682e3e2846c1afe2132,676192165fb32c2e1fb7aee6,67d1b5388b234ca44b108d44,2025-03-12_10h25.16.082,Tarea de decisión léxica,2024.2.5,Win32,59.88023952,,,,,,,,,,,,,,,,,,,,,,,267.7788,269.8743,l,1,1.4225,1,269.8745,270.3743,,,,,,390,MAS,NOWORD,AGR,150,cenco,,el,,1.4225,,270.3744,270.3746,0.171111111,-0.152222222,0,0,0,,0,104,104,389,1,cerdo,,,,
,,,,,,613cd682e3e2846c1afe2132,676192165fb32c2e1fb7aee6,67d1b5388b234ca44b108d44,2025-03-12_10h25.16.082,Tarea de decisión léxica,2024.2.5,Win32,59.88023952,,,,,,,,,,,,,,,,,,,,,,,270.3772,271.8076,l,1,0.754,1,271.8079,272.3089,,,,,,206,FEM,NOWORD,AGR,150,bara,,la,,0.754,,272.3091,272.3094,0.171111111,-0.152222222,0,0,0,,0,105,105,205,1,rana,,,,
,,,,,,613cd682e3e2846c1afe2132,676192165fb32c2e1fb7aee6,67d1b5388b234ca44b108d44,2025-03-12_10h25.16.082,Tarea de decisión léxica,2024.2.5,Win32,59.88023952,,,,,,,,,,,,,,,,,,,,,,,272.311,273.624,a,1,0.634,1,273.624,274.1242,,,,,,163,FEM,WORD,DIS,150,fama,,el,,0.634,,274.1243,274.1243,0.171111111,-0.152222222,0,0,0,,0,106,106,162,1,laga,,,,
,,,,,,613cd682e3e2846c1afe2132,676192165fb32c2e1fb7aee6,67d1b5388b234ca44b108d44,2025-03-12_10h25.16.082,Tarea de decisión léxica,2024.2.5,Win32,59.88023952,,,,,,,,,,,,,,,,,,,,,,,274.1269,275.5917,l,1,0.7834,1,275.592,276.0919,,,,,,10,MAS,NOWORD,AGR,150,sibo,,el,,0.7834,,276.0937,276.0942,0.171111111,-0.152222222,0,0,0,,0,107,107,9,1,tipo,,,,
,,,,,,613cd682e3e2846c1afe2132,676192165fb32c2e1fb7aee6,67d1b5388b234ca44b108d44,2025-03-12_10h25.16.082,Tarea de decisión léxica,2024.2.5,Win32,59.88023952,,,,,,,,,,,,,,,,,,,,,,,276.0947,277.2462,l,1,0.4834,1,277.2462,277.741,,,,,,268,MAS,NOWORD,DIS,150,figro,,la,,0.4834,,277.7413,277.7415,0.171111111,-0.152222222,0,0,0,,0,108,108,267,1,libro,,,,
,,,,,,613cd682e3e2846c1afe2132,676192165fb32c2e1fb7aee6,67d1b5388b234ca44b108d44,2025-03-12_10h25.16.082,Tarea de decisión léxica,2024.2.5,Win32,59.88023952,,,,,,,,,,,,,,,,,,,,,,,277.7441,278.9245,a,1,0.5078,1,278.9249,279.4274,,,,,,87,MAS,WORD,DIS,150,vaso,,la,,0.5078,,279.4275,279.4275,0.171111111,-0.152222222,0,0,0,,0,109,109,86,1,damo,,,,
,,,,,,613cd682e3e2846c1afe2132,676192165fb32c2e1fb7aee6,67d1b5388b234ca44b108d44,2025-03-12_10h25.16.082,Tarea de decisión léxica,2024.2.5,Win32,59.88023952,,,,,,,,,,,,,,,,,,,,,,,279.4285,280.6241,l,1,0.5186,1,280.6241,281.1242,,,,,,254,MAS,NOWORD,AGR,150,trido,,el,,0.5186,,281.1243,281.1245,0.171111111,-0.152222222,0,0,0,,0,110,110,253,1,chico,,,,
,,,,,,613cd682e3e2846c1afe2132,676192165fb32c2e1fb7aee6,67d1b5388b234ca44b108d44,2025-03-12_10h25.16.082,Tarea de decisión léxica,2024.2.5,Win32,59.88023952,,,,,,,,,,,,,,,,,,,,,,,281.1271,282.2073,a,1,0.4036,1,282.2073,282.7074,,,,,,293,MAS,WORD,AGR,150,campo,,el,,0.4036,,282.7075,282.7075,0.171111111,-0.152222222,0,0,0,,0,111,111,292,1,cacso,,,,
,,,,,,613cd682e3e2846c1afe2132,676192165fb32c2e1fb7aee6,67d1b5388b234ca44b108d44,2025-03-12_10h25.16.082,Tarea de decisión léxica,2024.2.5,Win32,59.88023952,,,,,,,,,,,,,,,,,,,,,,,282.7102,283.7909,l,1,0.405,1,283.7911,284.2918,,,,,,238,MAS,NOWORD,AGR,150,huco,,el,,0.405,,284.294,284.2947,0.171111111,-0.152222222,0,0,0,,0,112,112,237,1,nudo,,,,
,,,,,,613cd682e3e2846c1afe2132,676192165fb32c2e1fb7aee6,67d1b5388b234ca44b108d44,2025-03-12_10h25.16.082,Tarea de decisión léxica,2024.2.5,Win32,59.88023952,,,,,,,,,,,,,,,,,,,,,,,284.2956,285.4244,a,1,0.454,1,285.4246,285.9242,,,,,,75,MAS,WORD,DIS,150,olor,,la,,0.454,,285.9245,285.9247,0.171111111,-0.152222222,0,0,0,,0,113,113,74,1,ocer,,,,
,,,,,,613cd682e3e2846c1afe2132,676192165fb32c2e1fb7aee6,67d1b5388b234ca44b108d44,2025-03-12_10h25.16.082,Tarea de decisión léxica,2024.2.5,Win32,59.88023952,,,,,,,,,,,,,,,,,,,,,,,285.927,287.2241,l,1,0.6275,1,287.2242,287.7244,,,,,,94,FEM,NOWORD,AGR,150,rona,,la,,0.6275,,287.7247,287.7249,0.171111111,-0.152222222,0,0,0,,0,114,114,93,1,bola,,,,
,,,,,,613cd682e3e2846c1afe2132,676192165fb32c2e1fb7aee6,67d1b5388b234ca44b108d44,2025-03-12_10h25.16.082,Tarea de decisión léxica,2024.2.5,Win32,59.88023952,,,,,,,,,,,,,,,,,,,,,,,287.7273,288.9409,l,1,0.5404,1,288.941,289.446,,,,,,24,FEM,NOWORD,DIS,150,giva,,el,,0.5404,,289.446,289.4461,0.171111111,-0.152222222,0,0,0,,0,115,115,23,1,hija,,,,
,,,,,,613cd682e3e2846c1afe2132,676192165fb32c2e1fb7aee6,67d1b5388b234ca44b108d44,2025-03-12_10h25.16.082,Tarea de decisión léxica,2024.2.5,Win32,59.88023952,,,,,,,,,,,,,,,,,,,,,,,289.4475,290.5413,a,1,0.4243,1,290.5416,291.0411,,,,,,147,FEM,WORD,DIS,150,hoja,,el,,0.4243,,291.0414,291.0416,0.171111111,-0.152222222,0,0,0,,0,116,116,146,1,pama,,,,
,,,,,,613cd682e3e2846c1afe2132,676192165fb32c2e1fb7aee6,67d1b5388b234ca44b108d44,2025-03-12_10h25.16.082,Tarea de decisión léxica,2024.2.5,Win32,59.88023952,,,,,,,,,,,,,,,,,,,,,,,291.044,292.2909,l,1,0.5651,1,292.2912,292.7916,,,,,,400,MAS,NOWORD,DIS,150,serro,,la,,0.5651,,292.7938,292.7948,0.171111111,-0.152222222,0,0,0,,0,117,117,399,1,techo,,,,
,,,,,,613cd682e3e2846c1afe2132,676192165fb32c2e1fb7aee6,67d1b5388b234ca44b108d44,2025-03-12_10h25.16.082,Tarea de decisión léxica,2024.2.5,Win32,59.88023952,,,,,,,,,,,,,,,,,,,,,,,292.7957,294.1079,l,1,0.6397,1,294.1082,294.6076,,,,,,34,FEM,NOWORD,AGR,150,loda,,la,,0.6397,,294.6076,294.6078,0.171111111,-0.152222222,0,0,0,,0,118,118,33,1,boca,,,,
,,,,,,613cd682e3e2846c1afe2132,676192165fb32c2e1fb7aee6,67d1b5388b234ca44b108d44,2025-03-12_10h25.16.082,Tarea de decisión léxica,2024.2.5,Win32,59.88023952,,,,,,,,,,,,,,,,,,,,,,,294.6105,295.8576,l,1,0.5697,1,295.8578,296.3577,,,,,,30,MAS,NOWORD,AGR,150,pono,,el,,0.5697,,296.3579,296.3581,0.171111111,-0.152222222,0,0,0,,0,119,119,29,1,modo,,,,
,,,,,,613cd682e3e2846c1afe2132,676192165fb32c2e1fb7aee6,67d1b5388b234ca44b108d44,2025-03-12_10h25.16.082,Tarea de decisión léxica,2024.2.5,Win32,59.88023952,,,,,,,,,,,,,,,,,,,,,,,296.3605,297.3239,l,1,0.29,1,297.324,297.8243,,,,,,150,MAS,NOWORD,AGR,150,pafo,,el,,0.29,,297.8244,297.8246,0.171111111,-0.152222222,0,0,0,,0,120,120,149,1,cabo,,,,
,,,,,,613cd682e3e2846c1afe2132,676192165fb32c2e1fb7aee6,67d1b5388b234ca44b108d44,2025-03-12_10h25.16.082,Tarea de decisión léxica,2024.2.5,Win32,59.88023952,,,,,,,,,,,,,,,,,,,,,,,297.827,298.8749,l,1,0.3721,1,298.8752,299.3745,,,,,,306,MAS,NOWORD,AGR,150,adiol,,el,,0.3721,,299.3747,299.3748,0.171111111,-0.152222222,0,0,0,,0,121,121,305,1,avión,,,,
,,,,,,613cd682e3e2846c1afe2132,676192165fb32c2e1fb7aee6,67d1b5388b234ca44b108d44,2025-03-12_10h25.16.082,Tarea de decisión léxica,2024.2.5,Win32,59.88023952,,,,,,,,,,,,,,,,,,,,,,,299.3771,300.4917,l,1,0.4427,1,300.4921,300.9917,,,,,,364,FEM,NOWORD,DIS,150,veida,,el,,0.4427,,300.9941,300.9953,0.171111111,-0.152222222,0,0,0,,0,122,122,363,1,deuda,,,,
,,,,,,613cd682e3e2846c1afe2132,676192165fb32c2e1fb7aee6,67d1b5388b234ca44b108d44,2025-03-12_10h25.16.082,Tarea de decisión léxica,2024.2.5,Win32,59.88023952,,,,,,,,,,,,,,,,,,,,,,,300.9962,302.0076,l,1,0.3343,1,302.0079,302.5076,,,,,,452,FEM,NOWORD,DIS,150,clita,,el,,0.3343,,302.5078,302.508,0.171111111,-0.152222222,0,0,0,,0,123,123,451,1,fruta,,,,
,,,,,,613cd682e3e2846c1afe2132,676192165fb32c2e1fb7aee6,67d1b5388b234ca44b108d44,2025-03-12_10h25.16.082,Tarea de decisión léxica,2024.2.5,Win32,59.88023952,,,,,,,,,,,,,,,,,,,,,,,302.5107,303.4742,l,1,0.2851,1,303.4743,303.9745,,,,,,324,FEM,NOWORD,DIS,150,certa,,el,,0.2851,,303.9747,303.9749,0.171111111,-0.152222222,0,0,0,,0,124,124,323,1,cinta,,,,
,,,,,,613cd682e3e2846c1afe2132,676192165fb32c2e1fb7aee6,67d1b5388b234ca44b108d44,2025-03-12_10h25.16.082,Tarea de decisión léxica,2024.2.5,Win32,59.88023952,,,,,,,,,,,,,,,,,,,,,,,303.9772,304.9089,l,1,0.2589,1,304.9094,305.4076,,,,,,314,MAS,NOWORD,AGR,150,govio,,el,,0.2589,,305.4076,305.4079,0.171111111,-0.152222222,0,0,0,,0,125,125,313,1,novio,,,,
,,,,,,613cd682e3e2846c1afe2132,676192165fb32c2e1fb7aee6,67d1b5388b234ca44b108d44,2025-03-12_10h25.16.082,Tarea de decisión léxica,2024.2.5,Win32,59.88023952,,,,,,,,,,,,,,,,,,,,,,,305.4104,306.3741,l,1,0.2836,1,306.3742,306.8741,,,,,,278,MAS,NOWORD,AGR,150,vuemo,,el,,0.2836,,306.8741,306.8741,0.171111111,-0.152222222,0,0,0,,0,126,126,277,1,fuego,,,,
,,,,,,613cd682e3e2846c1afe2132,676192165fb32c2e1fb7aee6,67d1b5388b234ca44b108d44,2025-03-12_10h25.16.082,Tarea de decisión léxica,2024.2.5,Win32,59.88023952,,,,,,,,,,,,,,,,,,,,,,,306.8756,307.7909,l,0,0.2393,0,307.7931,308.291,,,,,,369,MAS,WORD,AGR,150,ruido,,el,,0.2393,,308.2936,308.2945,0.171111111,-0.152222222,0,0,0,,0,127,127,368,1,rioco,,,,
,,,,,,613cd682e3e2846c1afe2132,676192165fb32c2e1fb7aee6,67d1b5388b234ca44b108d44,2025-03-12_10h25.16.082,Tarea de decisión léxica,2024.2.5,Win32,59.88023952,,,,,,,,,,,,,,,,,,,,,,,308.2953,309.7243,l,1,0.7576,1,309.7264,310.2241,,,,,,258,FEM,NOWORD,AGR,150,asama,,la,,0.7576,,310.2241,310.2243,0.171111111,-0.152222222,0,0,0,,0,128,128,257,1,amiga,,,,
,,,,,,613cd682e3e2846c1afe2132,676192165fb32c2e1fb7aee6,67d1b5388b234ca44b108d44,2025-03-12_10h25.16.082,Tarea de decisión léxica,2024.2.5,Win32,59.88023952,,,,,,,,,,,,,,,,,,,,,,,310.2266,311.391,a,1,0.4885,1,311.3912,311.8911,,,,,,365,FEM,WORD,AGR,150,ducha,,la,,0.4885,,311.8912,311.8914,0.171111111,-0.152222222,0,0,0,,0,129,129,364,1,gulla,,,,
,,,,,,613cd682e3e2846c1afe2132,676192165fb32c2e1fb7aee6,67d1b5388b234ca44b108d44,2025-03-12_10h25.16.082,Tarea de decisión léxica,2024.2.5,Win32,59.88023952,,,,,,,,,,,,,,,,,,,,,,,311.8937,312.8908,a,1,0.326,1,312.891,313.391,,,,,,371,FEM,WORD,DIS,150,pasta,,el,,0.326,,313.3911,313.3913,0.171111111,-0.152222222,0,0,0,,0,130,130,370,1,mosta,,,,
,,,,,,613cd682e3e2846c1afe2132,676192165fb32c2e1fb7aee6,67d1b5388b234ca44b108d44,2025-03-12_10h25.16.082,Tarea de decisión léxica,2024.2.5,Win32,59.88023952,,,,,,,,,,,,,,,,,,,,,,,313.3937,314.358,a,1,0.2979,1,314.3585,314.8575,,,,,,261,MAS,WORD,AGR,150,sitio,,el,,0.2979,,314.8598,314.8605,0.171111111,-0.152222222,0,0,0,,0,131,131,260,1,titio,,,,
,,,,,,613cd682e3e2846c1afe2132,676192165fb32c2e1fb7aee6,67d1b5388b234ca44b108d44,2025-03-12_10h25.16.082,Tarea de decisión léxica,2024.2.5,Win32,59.88023952,,,,,,,,,,,,,,,,,,,,,,,314.8613,316.041,l,1,0.5015,1,316.0412,316.5417,,,,,,260,MAS,NOWORD,DIS,150,jaumo,,la,,0.5015,,316.5419,316.5422,0.171111111,-0.152222222,0,0,0,,0,132,132,259,1,juego,,,,
,,,,,,613cd682e3e2846c1afe2132,676192165fb32c2e1fb7aee6,67d1b5388b234ca44b108d44,2025-03-12_10h25.16.082,Tarea de decisión léxica,2024.2.5,Win32,59.88023952,,,,,,,,,,,,,,,,,,,,,,,316.5441,317.7073,l,1,0.4908,1,317.7073,318.2076,,,,,,74,MAS,NOWORD,AGR,150,omio,,el,,0.4908,,318.2077,318.208,0.171111111,-0.152222222,0,0,0,,0,133,133,73,1,odio,,,,
,,,,,,613cd682e3e2846c1afe2132,676192165fb32c2e1fb7aee6,67d1b5388b234ca44b108d44,2025-03-12_10h25.16.082,Tarea de decisión léxica,2024.2.5,Win32,59.88023952,,,,,,,,,,,,,,,,,,,,,,,318.2105,319.3243,a,1,0.4416,1,319.3243,319.8242,,,,,,265,FEM,WORD,AGR,150,mitad,,la,,0.4416,,319.8243,319.8244,0.171111111,-0.152222222,0,0,0,,0,134,134,264,1,pitat,,,,
,,,,,,613cd682e3e2846c1afe2132,676192165fb32c2e1fb7aee6,67d1b5388b234ca44b108d44,2025-03-12_10h25.16.082,Tarea de decisión léxica,2024.2.5,Win32,59.88023952,,,,,,,,,,,,,,,,,,,,,,,319.827,320.841,a,1,0.3339,1,320.841,321.3419,,,,,,279,FEM,WORD,DIS,150,prisa,,el,,0.3339,,321.3421,321.3424,0.171111111,-0.152222222,0,0,0,,0,135,135,278,1,grina,,,,
,,,,,,613cd682e3e2846c1afe2132,676192165fb32c2e1fb7aee6,67d1b5388b234ca44b108d44,2025-03-12_10h25.16.082,Tarea de decisión léxica,2024.2.5,Win32,59.88023952,,,,,,,,,,,,,,,,,,,,,,,321.3441,322.291,a,1,0.2681,1,322.2913,322.791,,,,,,247,FEM,WORD,DIS,150,chica,,el,,0.2681,,322.7934,322.7945,0.171111111,-0.152222222,0,0,0,,0,136,136,246,1,trida,,,,
,,,,,,613cd682e3e2846c1afe2132,676192165fb32c2e1fb7aee6,67d1b5388b234ca44b108d44,2025-03-12_10h25.16.082,Tarea de decisión léxica,2024.2.5,Win32,59.88023952,,,,,,,,,,,,,,,,,,,,,,,322.7954,323.9797,l,1,0.5167,1,323.9797,324.4744,,,,,,466,FEM,NOWORD,AGR,150,asuba,,la,,0.5167,,324.4746,324.4749,0.171111111,-0.152222222,0,0,0,,0,137,137,465,1,aguja,,,,
,,,,,,613cd682e3e2846c1afe2132,676192165fb32c2e1fb7aee6,67d1b5388b234ca44b108d44,2025-03-12_10h25.16.082,Tarea de decisión léxica,2024.2.5,Win32,59.88023952,,,,,,,,,,,,,,,,,,,,,,,324.4776,326.1744,a,1,1.0223,1,326.1747,326.6742,,,,,,335,FEM,WORD,DIS,150,costa,,el,,1.0223,,326.6744,326.6746,0.171111111,-0.152222222,0,0,0,,0,138,138,334,1,pesta,,,,
,,,,,,613cd682e3e2846c1afe2132,676192165fb32c2e1fb7aee6,67d1b5388b234ca44b108d44,2025-03-12_10h25.16.082,Tarea de decisión léxica,2024.2.5,Win32,59.88023952,,,,,,,,,,,,,,,,,,,,,,,326.6773,327.9409,l,1,0.5833,1,327.941,328.441,,,,,,250,FEM,NOWORD,AGR,150,plane,,la,,0.5833,,328.441,328.4412,0.171111111,-0.152222222,0,0,0,,0,139,139,249,1,clase,,,,
,,,,,,613cd682e3e2846c1afe2132,676192165fb32c2e1fb7aee6,67d1b5388b234ca44b108d44,2025-03-12_10h25.16.082,Tarea de decisión léxica,2024.2.5,Win32,59.88023952,,,,,,,,,,,,,,,,,,,,,,,328.4443,329.4744,a,1,0.3509,1,329.4745,329.9742,,,,,,467,MAS,WORD,DIS,150,piano,,la,,0.3509,,329.9743,329.9744,0.171111111,-0.152222222,0,0,0,,0,140,140,466,1,peiso,,,,
,,,,,,613cd682e3e2846c1afe2132,676192165fb32c2e1fb7aee6,67d1b5388b234ca44b108d44,2025-03-12_10h25.16.082,Tarea de decisión léxica,2024.2.5,Win32,59.88023952,,,,,,,,,,,,,,,,,,,,,,,329.9769,330.9244,a,1,0.275,1,330.9245,331.4244,,,,,,43,FEM,WORD,DIS,150,pena,,el,,0.275,,331.4273,331.4283,0.171111111,-0.152222222,0,0,0,,0,141,141,42,1,meda,,,,
,,,,,,613cd682e3e2846c1afe2132,676192165fb32c2e1fb7aee6,67d1b5388b234ca44b108d44,2025-03-12_10h25.16.082,Tarea de decisión léxica,2024.2.5,Win32,59.88023952,,,,,,,,,,,,,,,,,,,,,,,331.4292,332.4575,a,1,0.3605,1,332.4576,332.9577,,,,,,397,FEM,WORD,AGR,150,tribu,,la,,0.3605,,332.9577,332.9579,0.171111111,-0.152222222,0,0,0,,0,142,142,396,1,trigi,,,,
,,,,,,613cd682e3e2846c1afe2132,676192165fb32c2e1fb7aee6,67d1b5388b234ca44b108d44,2025-03-12_10h25.16.082,Tarea de decisión léxica,2024.2.5,Win32,59.88023952,,,,,,,,,,,,,,,,,,,,,,,332.9604,333.9743,a,1,0.3327,1,333.9745,334.4751,,,,,,143,MAS,WORD,DIS,150,pavo,,la,,0.3327,,334.4754,334.4756,0.171111111,-0.152222222,0,0,0,,0,143,143,142,1,pezo,,,,
,,,,,,613cd682e3e2846c1afe2132,676192165fb32c2e1fb7aee6,67d1b5388b234ca44b108d44,2025-03-12_10h25.16.082,Tarea de decisión léxica,2024.2.5,Win32,59.88023952,,,,,,,,,,,,,,,,,,,,,,,334.4769,335.4076,a,0,0.2546,0,335.4097,335.9087,,,,,,158,MAS,NOWORD,AGR,150,hico,,el,,0.2546,,335.9089,335.9098,0.171111111,-0.152222222,0,0,0,,0,144,144,157,1,nido,,,,
,,,,,,613cd682e3e2846c1afe2132,676192165fb32c2e1fb7aee6,67d1b5388b234ca44b108d44,2025-03-12_10h25.16.082,Tarea de decisión léxica,2024.2.5,Win32,59.88023952,,,,,,,,,,,,,,,,,,,,,,,335.9118,337.1081,a,1,0.5181,1,337.1106,337.609,,,,,,109,MAS,WORD,AGR,150,rayo,,el,,0.5181,,337.6092,337.6097,0.171111111,-0.152222222,0,0,0,,0,145,145,108,1,suno,,,,
,,,,,,613cd682e3e2846c1afe2132,676192165fb32c2e1fb7aee6,67d1b5388b234ca44b108d44,2025-03-12_10h25.16.082,Tarea de decisión léxica,2024.2.5,Win32,59.88023952,,,,,,,,,,,,,,,,,,,,,,,337.6112,339.1076,l,1,0.8173,1,339.1078,339.6078,,,,,,320,MAS,NOWORD,DIS,150,tuero,,la,,0.8173,,339.6106,339.6114,0.171111111,-0.152222222,0,0,0,,0,146,146,319,1,suelo,,,,
,,,,,,613cd682e3e2846c1afe2132,676192165fb32c2e1fb7aee6,67d1b5388b234ca44b108d44,2025-03-12_10h25.16.082,Tarea de decisión léxica,2024.2.5,Win32,59.88023952,,,,,,,,,,,,,,,,,,,,,,,339.612,340.7297,l,1,0.4639,1,340.7297,341.2244,,,,,,344,FEM,NOWORD,DIS,150,trada,,el,,0.4639,,341.2246,341.2247,0.171111111,-0.152222222,0,0,0,,0,147,147,343,1,plata,,,,
,,,,,,613cd682e3e2846c1afe2132,676192165fb32c2e1fb7aee6,67d1b5388b234ca44b108d44,2025-03-12_10h25.16.082,Tarea de decisión léxica,2024.2.5,Win32,59.88023952,,,,,,,,,,,,,,,,,,,,,,,341.2277,342.3074,l,1,0.3974,1,342.3074,342.8078,,,,,,282,MAS,NOWORD,AGR,150,cauro,,el,,0.3974,,342.808,342.8083,0.171111111,-0.152222222,0,0,0,,0,148,148,281,1,cielo,,,,
,,,,,,613cd682e3e2846c1afe2132,676192165fb32c2e1fb7aee6,67d1b5388b234ca44b108d44,2025-03-12_10h25.16.082,Tarea de decisión léxica,2024.2.5,Win32,59.88023952,,,,,,,,,,,,,,,,,,,,,,,342.8108,343.8077,l,1,0.3212,1,343.8078,344.3077,,,,,,200,MAS,NOWORD,DIS,150,fano,,la,,0.3212,,344.3078,344.3079,0.171111111,-0.152222222,0,0,0,,0,149,149,199,1,lazo,,,,
,,,,,,613cd682e3e2846c1afe2132,676192165fb32c2e1fb7aee6,67d1b5388b234ca44b108d44,2025-03-12_10h25.16.082,Tarea de decisión léxica,2024.2.5,Win32,59.88023952,,,,,,,,,,,,,,,,,,,,,,,344.3105,345.2415,l,1,0.2612,1,345.2418,345.7411,,,,,,112,MAS,NOWORD,DIS,150,siro,,la,,0.2612,,345.7412,345.7418,0.171111111,-0.152222222,0,0,0,,0,150,150,111,1,muro,,,,
,,,,,,613cd682e3e2846c1afe2132,676192165fb32c2e1fb7aee6,67d1b5388b234ca44b108d44,2025-03-12_10h25.16.082,Tarea de decisión léxica,2024.2.5,Win32,59.88023952,,,,,,,,,,,,,,,,,,,,,,,345.7441,346.6578,l,1,0.2361,1,346.658,347.1626,,,,,,214,FEM,NOWORD,AGR,150,bana,,la,,0.2361,,347.164,347.165,0.171111111,-0.152222222,0,0,0,,0,151,151,213,1,rama,,,,
,,,,,,613cd682e3e2846c1afe2132,676192165fb32c2e1fb7aee6,67d1b5388b234ca44b108d44,2025-03-12_10h25.16.082,Tarea de decisión léxica,2024.2.5,Win32,59.88023952,,,,,,,,,,,,,,,,,,,,,,,347.166,348.0907,l,0,0.2582,0,348.0921,348.591,,,,,,177,MAS,WORD,AGR,150,reto,,el,,0.2582,,348.5911,348.5912,0.171111111,-0.152222222,0,0,0,,0,152,152,176,1,bito,,,,
,,,,,,613cd682e3e2846c1afe2132,676192165fb32c2e1fb7aee6,67d1b5388b234ca44b108d44,2025-03-12_10h25.16.082,Tarea de decisión léxica,2024.2.5,Win32,59.88023952,,,,,,,,,,,,,,,,,,,,,,,348.5938,349.6744,a,1,0.4098,1,349.6767,350.1744,,,,,,281,MAS,WORD,AGR,150,cielo,,el,,0.4098,,350.1745,350.1746,0.171111111,-0.152222222,0,0,0,,0,153,153,280,1,cauro,,,,
,,,,,,613cd682e3e2846c1afe2132,676192165fb32c2e1fb7aee6,67d1b5388b234ca44b108d44,2025-03-12_10h25.16.082,Tarea de decisión léxica,2024.2.5,Win32,59.88023952,,,,,,,,,,,,,,,,,,,,,,,350.1774,351.441,l,1,0.5859,1,351.4411,351.9293,,,,,,468,MAS,NOWORD,DIS,150,peiso,,la,,0.5859,,351.9294,351.9296,0.171111111,-0.152222222,0,0,0,,0,154,154,467,1,piano,,,,
,,,,,,613cd682e3e2846c1afe2132,676192165fb32c2e1fb7aee6,67d1b5388b234ca44b108d44,2025-03-12_10h25.16.082,Tarea de decisión léxica,2024.2.5,Win32,59.88023952,,,,,,,,,,,,,,,,,,,,,,,351.9307,353.1246,l,1,0.5171,1,353.1248,353.6297,,,,,,382,MAS,NOWORD,AGR,150,nusor,,el,,0.5171,,353.6311,353.6321,0.171111111,-0.152222222,0,0,0,,0,155,155,381,1,humor,,,,
,,,,,,613cd682e3e2846c1afe2132,676192165fb32c2e1fb7aee6,67d1b5388b234ca44b108d44,2025-03-12_10h25.16.082,Tarea de decisión léxica,2024.2.5,Win32,59.88023952,,,,,,,,,,,,,,,,,,,,,,,353.633,354.7579,a,1,0.4503,1,354.7582,355.2575,,,,,,113,FEM,WORD,AGR,150,miel,,la,,0.4503,,355.2576,355.2576,0.171111111,-0.152222222,0,0,0,,0,156,156,112,1,tada,,,,
,,,,,,613cd682e3e2846c1afe2132,676192165fb32c2e1fb7aee6,67d1b5388b234ca44b108d44,2025-03-12_10h25.16.082,Tarea de decisión léxica,2024.2.5,Win32,59.88023952,,,,,,,,,,,,,,,,,,,,,,,355.2599,356.3907,a,1,0.4505,1,356.3907,356.891,,,,,,299,FEM,WORD,DIS,150,bolsa,,el,,0.4505,,356.8912,356.8912,0.171111111,-0.152222222,0,0,0,,0,157,157,298,1,bosga,,,,
,,,,,,613cd682e3e2846c1afe2132,676192165fb32c2e1fb7aee6,67d1b5388b234ca44b108d44,2025-03-12_10h25.16.082,Tarea de decisión léxica,2024.2.5,Win32,59.88023952,,,,,,,,,,,,,,,,,,,,,,,356.8939,357.9077,a,1,0.3344,1,357.9078,358.4128,,,,,,185,MAS,WORD,AGR,150,baúl,,el,,0.3344,,358.4128,358.4129,0.171111111,-0.152222222,0,0,0,,0,158,158,184,1,raol,,,,
,,,,,,613cd682e3e2846c1afe2132,676192165fb32c2e1fb7aee6,67d1b5388b234ca44b108d44,2025-03-12_10h25.16.082,Tarea de decisión léxica,2024.2.5,Win32,59.88023952,,,,,,,,,,,,,,,,,,,,,,,358.4141,359.3576,a,1,0.2728,1,359.3578,359.8577,,,,,,135,MAS,WORD,DIS,150,tubo,,la,,0.2728,,359.8577,359.8579,0.171111111,-0.152222222,0,0,0,,0,159,159,134,1,geso,,,,
,,,,,,613cd682e3e2846c1afe2132,676192165fb32c2e1fb7aee6,67d1b5388b234ca44b108d44,2025-03-12_10h25.16.082,Tarea de decisión léxica,2024.2.5,Win32,59.88023952,,,,,,,,,,,,,,,,,,,,,,,359.8604,360.8242,a,0,0.284,0,360.8262,361.3244,,,,,,274,FEM,NOWORD,AGR,150,frosa,,la,,0.284,,361.3268,470.1261,0.171111111,-0.152222222,0,0,0,space,0,160,160,273,1,broma,108.7754,,,
,,,,,,613cd682e3e2846c1afe2132,676192165fb32c2e1fb7aee6,67d1b5388b234ca44b108d44,2025-03-12_10h25.16.082,Tarea de decisión léxica,2024.2.5,Win32,59.88023952,,,,,,,,,,,,,,,,,,,,,,,470.1276,471.241,a,1,0.4437,1,471.2431,471.7409,,,,,,341,MAS,WORD,AGR,150,valor,,el,,0.4437,,471.7409,471.741,0.171111111,-0.152222222,0,0,0,,0,161,161,340,1,daror,,,,
,,,,,,613cd682e3e2846c1afe2132,676192165fb32c2e1fb7aee6,67d1b5388b234ca44b108d44,2025-03-12_10h25.16.082,Tarea de decisión léxica,2024.2.5,Win32,59.88023952,,,,,,,,,,,,,,,,,,,,,,,471.7433,472.7421,a,1,0.3173,1,472.7425,473.2407,,,,,,295,MAS,WORD,DIS,150,dolor,,la,,0.3173,,473.2408,473.2408,0.171111111,-0.152222222,0,0,0,,0,162,162,294,1,goler,,,,
,,,,,,613cd682e3e2846c1afe2132,676192165fb32c2e1fb7aee6,67d1b5388b234ca44b108d44,2025-03-12_10h25.16.082,Tarea de decisión léxica,2024.2.5,Win32,59.88023952,,,,,,,,,,,,,,,,,,,,,,,473.2428,474.2585,a,1,0.3347,1,474.2589,474.7587,,,,,,393,FEM,WORD,AGR,150,aldea,,la,,0.3347,,474.7589,474.7592,0.171111111,-0.152222222,0,0,0,,0,163,163,392,1,ashea,,,,
,,,,,,613cd682e3e2846c1afe2132,676192165fb32c2e1fb7aee6,67d1b5388b234ca44b108d44,2025-03-12_10h25.16.082,Tarea de decisión léxica,2024.2.5,Win32,59.88023952,,,,,,,,,,,,,,,,,,,,,,,474.7609,475.9244,l,1,0.4833,1,475.9246,476.4244,,,,,,52,FEM,NOWORD,DIS,150,mava,,el,,0.4833,,476.4245,476.4248,0.171111111,-0.152222222,0,0,0,,0,164,164,51,1,caja,,,,
,,,,,,613cd682e3e2846c1afe2132,676192165fb32c2e1fb7aee6,67d1b5388b234ca44b108d44,2025-03-12_10h25.16.082,Tarea de decisión léxica,2024.2.5,Win32,59.88023952,,,,,,,,,,,,,,,,,,,,,,,476.4273,477.6076,a,1,0.5016,1,477.6077,478.1078,,,,,,173,FEM,WORD,AGR,150,rosa,,la,,0.5016,,478.1106,478.1118,0.171111111,-0.152222222,0,0,0,,0,165,165,172,1,boma,,,,
,,,,,,613cd682e3e2846c1afe2132,676192165fb32c2e1fb7aee6,67d1b5388b234ca44b108d44,2025-03-12_10h25.16.082,Tarea de decisión léxica,2024.2.5,Win32,59.88023952,,,,,,,,,,,,,,,,,,,,,,,478.1129,479.6075,a,1,0.8174,1,479.6077,480.1078,,,,,,175,FEM,WORD,DIS,150,goma,,el,,0.8174,,480.1079,480.1081,0.171111111,-0.152222222,0,0,0,,0,166,166,174,1,hosa,,,,
,,,,,,613cd682e3e2846c1afe2132,676192165fb32c2e1fb7aee6,67d1b5388b234ca44b108d44,2025-03-12_10h25.16.082,Tarea de decisión léxica,2024.2.5,Win32,59.88023952,,,,,,,,,,,,,,,,,,,,,,,480.1109,481.2912,l,1,0.5096,1,481.2914,481.7911,,,,,,372,FEM,NOWORD,DIS,150,mosta,,el,,0.5096,,481.7911,481.7914,0.171111111,-0.152222222,0,0,0,,0,167,167,371,1,pasta,,,,
,,,,,,613cd682e3e2846c1afe2132,676192165fb32c2e1fb7aee6,67d1b5388b234ca44b108d44,2025-03-12_10h25.16.082,Tarea de decisión léxica,2024.2.5,Win32,59.88023952,,,,,,,,,,,,,,,,,,,,,,,481.7938,482.9417,l,1,0.473,1,482.942,483.4411,,,,,,442,FEM,NOWORD,AGR,150,telza,,la,,0.473,,483.4414,483.4416,0.171111111,-0.152222222,0,0,0,,0,168,168,441,1,selva,,,,
,,,,,,613cd682e3e2846c1afe2132,676192165fb32c2e1fb7aee6,67d1b5388b234ca44b108d44,2025-03-12_10h25.16.082,Tarea de decisión léxica,2024.2.5,Win32,59.88023952,,,,,,,,,,,,,,,,,,,,,,,483.4438,484.5253,a,1,0.4061,1,484.5257,485.0245,,,,,,313,MAS,WORD,AGR,150,novio,,el,,0.4061,,485.0247,485.0249,0.171111111,-0.152222222,0,0,0,,0,169,169,312,1,govio,,,,
,,,,,,613cd682e3e2846c1afe2132,676192165fb32c2e1fb7aee6,67d1b5388b234ca44b108d44,2025-03-12_10h25.16.082,Tarea de decisión léxica,2024.2.5,Win32,59.88023952,,,,,,,,,,,,,,,,,,,,,,,485.0273,486.2577,l,1,0.5523,1,486.2579,486.7576,,,,,,102,MAS,NOWORD,AGR,150,gito,,el,,0.5523,,486.7601,486.7611,0.171111111,-0.152222222,0,0,0,,0,170,170,101,1,tono,,,,
,,,,,,613cd682e3e2846c1afe2132,676192165fb32c2e1fb7aee6,67d1b5388b234ca44b108d44,2025-03-12_10h25.16.082,Tarea de decisión léxica,2024.2.5,Win32,59.88023952,,,,,,,,,,,,,,,,,,,,,,,486.762,487.8576,l,1,0.4179,1,487.8577,488.3579,,,,,,40,MAS,NOWORD,DIS,150,redo,,la,,0.4179,,488.3581,488.3583,0.171111111,-0.152222222,0,0,0,,0,171,171,39,1,voto,,,,
,,,,,,613cd682e3e2846c1afe2132,676192165fb32c2e1fb7aee6,67d1b5388b234ca44b108d44,2025-03-12_10h25.16.082,Tarea de decisión léxica,2024.2.5,Win32,59.88023952,,,,,,,,,,,,,,,,,,,,,,,488.3607,489.5745,l,1,0.534,1,489.5748,490.0744,,,,,,16,FEM,NOWORD,DIS,150,odea,,el,,0.534,,490.0746,490.0748,0.171111111,-0.152222222,0,0,0,,0,172,172,15,1,idea,,,,
,,,,,,613cd682e3e2846c1afe2132,676192165fb32c2e1fb7aee6,67d1b5388b234ca44b108d44,2025-03-12_10h25.16.082,Tarea de decisión léxica,2024.2.5,Win32,59.88023952,,,,,,,,,,,,,,,,,,,,,,,490.0772,491.1457,a,1,0.3996,1,491.1458,491.6409,,,,,,333,FEM,WORD,AGR,150,tarea,,la,,0.3996,,491.641,491.6412,0.171111111,-0.152222222,0,0,0,,0,173,173,332,1,dalea,,,,
,,,,,,613cd682e3e2846c1afe2132,676192165fb32c2e1fb7aee6,67d1b5388b234ca44b108d44,2025-03-12_10h25.16.082,Tarea de decisión léxica,2024.2.5,Win32,59.88023952,,,,,,,,,,,,,,,,,,,,,,,491.6437,492.7079,a,1,0.3843,1,492.7083,493.2074,,,,,,3,FEM,WORD,DIS,150,vida,,el,,0.3843,,493.2074,493.2075,0.171111111,-0.152222222,0,0,0,,0,174,174,2,1,dica,,,,
,,,,,,613cd682e3e2846c1afe2132,676192165fb32c2e1fb7aee6,67d1b5388b234ca44b108d44,2025-03-12_10h25.16.082,Tarea de decisión léxica,2024.2.5,Win32,59.88023952,,,,,,,,,,,,,,,,,,,,,,,493.2095,494.2074,a,1,0.3363,1,494.2074,494.7077,,,,,,179,MAS,WORD,DIS,150,toro,,la,,0.3363,,494.7107,494.7117,0.171111111,-0.152222222,0,0,0,,0,175,175,178,1,sono,,,,
,,,,,,613cd682e3e2846c1afe2132,676192165fb32c2e1fb7aee6,67d1b5388b234ca44b108d44,2025-03-12_10h25.16.082,Tarea de decisión léxica,2024.2.5,Win32,59.88023952,,,,,,,,,,,,,,,,,,,,,,,494.7124,495.9578,l,1,0.567,1,495.9579,496.4578,,,,,,446,MAS,NOWORD,AGR,150,ascor,,el,,0.567,,496.458,496.4582,0.171111111,-0.152222222,0,0,0,,0,176,176,445,1,actor,,,,
,,,,,,613cd682e3e2846c1afe2132,676192165fb32c2e1fb7aee6,67d1b5388b234ca44b108d44,2025-03-12_10h25.16.082,Tarea de decisión léxica,2024.2.5,Win32,59.88023952,,,,,,,,,,,,,,,,,,,,,,,496.4607,497.6419,l,1,0.5107,1,497.6421,498.1411,,,,,,46,FEM,NOWORD,AGR,150,pema,,la,,0.5107,,498.1412,498.1415,0.171111111,-0.152222222,0,0,0,,0,177,177,45,1,mesa,,,,
,,,,,,613cd682e3e2846c1afe2132,676192165fb32c2e1fb7aee6,67d1b5388b234ca44b108d44,2025-03-12_10h25.16.082,Tarea de decisión léxica,2024.2.5,Win32,59.88023952,,,,,,,,,,,,,,,,,,,,,,,498.144,499.2745,a,1,0.4597,1,499.2748,499.7746,,,,,,359,MAS,WORD,DIS,150,calor,,la,,0.4597,,499.7748,499.775,0.171111111,-0.152222222,0,0,0,,0,178,178,358,1,cacer,,,,
,,,,,,613cd682e3e2846c1afe2132,676192165fb32c2e1fb7aee6,67d1b5388b234ca44b108d44,2025-03-12_10h25.16.082,Tarea de decisión léxica,2024.2.5,Win32,59.88023952,,,,,,,,,,,,,,,,,,,,,,,499.7773,500.8742,a,1,0.4265,1,500.8743,501.3747,,,,,,15,FEM,WORD,DIS,150,idea,,el,,0.4265,,501.377,501.3776,0.171111111,-0.152222222,0,0,0,,0,179,179,14,1,odea,,,,
,,,,,,613cd682e3e2846c1afe2132,676192165fb32c2e1fb7aee6,67d1b5388b234ca44b108d44,2025-03-12_10h25.16.082,Tarea de decisión léxica,2024.2.5,Win32,59.88023952,,,,,,,,,,,,,,,,,,,,,,,501.3781,502.4257,a,1,0.3785,1,502.4261,502.9255,,,,,,99,MAS,WORD,DIS,150,lobo,,la,,0.3785,,502.9258,502.926,0.171111111,-0.152222222,0,0,0,,0,180,180,98,1,soro,,,,
,,,,,,613cd682e3e2846c1afe2132,676192165fb32c2e1fb7aee6,67d1b5388b234ca44b108d44,2025-03-12_10h25.16.082,Tarea de decisión léxica,2024.2.5,Win32,59.88023952,,,,,,,,,,,,,,,,,,,,,,,502.9274,504.042,l,1,0.4445,1,504.0424,504.5423,,,,,,42,FEM,NOWORD,AGR,150,haje,,la,,0.4445,,504.5424,504.5426,0.171111111,-0.152222222,0,0,0,,0,181,181,41,1,nave,,,,
,,,,,,613cd682e3e2846c1afe2132,676192165fb32c2e1fb7aee6,67d1b5388b234ca44b108d44,2025-03-12_10h25.16.082,Tarea de decisión léxica,2024.2.5,Win32,59.88023952,,,,,,,,,,,,,,,,,,,,,,,504.5443,505.6578,a,1,0.4441,1,505.6581,506.1577,,,,,,227,MAS,WORD,DIS,150,faro,,la,,0.4441,,506.1578,506.158,0.171111111,-0.152222222,0,0,0,,0,182,182,226,1,laro,,,,
,,,,,,613cd682e3e2846c1afe2132,676192165fb32c2e1fb7aee6,67d1b5388b234ca44b108d44,2025-03-12_10h25.16.082,Tarea de decisión léxica,2024.2.5,Win32,59.88023952,,,,,,,,,,,,,,,,,,,,,,,506.1605,507.2243,l,1,0.3838,1,507.2245,507.7252,,,,,,366,FEM,NOWORD,AGR,150,gulla,,la,,0.3838,,507.7254,507.7257,0.171111111,-0.152222222,0,0,0,,0,183,183,365,1,ducha,,,,
,,,,,,613cd682e3e2846c1afe2132,676192165fb32c2e1fb7aee6,67d1b5388b234ca44b108d44,2025-03-12_10h25.16.082,Tarea de decisión léxica,2024.2.5,Win32,59.88023952,,,,,,,,,,,,,,,,,,,,,,,507.7275,508.9247,l,1,0.5237,1,508.925,509.4243,,,,,,330,MAS,NOWORD,AGR,150,nueno,,el,,0.5237,,509.4266,509.4278,0.171111111,-0.152222222,0,0,0,,0,184,184,329,1,hueso,,,,
,,,,,,613cd682e3e2846c1afe2132,676192165fb32c2e1fb7aee6,67d1b5388b234ca44b108d44,2025-03-12_10h25.16.082,Tarea de decisión léxica,2024.2.5,Win32,59.88023952,,,,,,,,,,,,,,,,,,,,,,,509.4286,510.4244,l,1,0.3178,1,510.4246,510.9241,,,,,,146,MAS,NOWORD,AGR,150,nobo,,el,,0.3178,,510.9242,510.9243,0.171111111,-0.152222222,0,0,0,,0,185,185,145,1,león,,,,
,,,,,,613cd682e3e2846c1afe2132,676192165fb32c2e1fb7aee6,67d1b5388b234ca44b108d44,2025-03-12_10h25.16.082,Tarea de decisión léxica,2024.2.5,Win32,59.88023952,,,,,,,,,,,,,,,,,,,,,,,510.9268,511.8911,l,1,0.2844,1,511.8912,512.391,,,,,,162,MAS,NOWORD,AGR,150,bopo,,el,,0.2844,,512.3911,512.3913,0.171111111,-0.152222222,0,0,0,,0,186,186,161,1,coro,,,,
,,,,,,613cd682e3e2846c1afe2132,676192165fb32c2e1fb7aee6,67d1b5388b234ca44b108d44,2025-03-12_10h25.16.082,Tarea de decisión léxica,2024.2.5,Win32,59.88023952,,,,,,,,,,,,,,,,,,,,,,,512.3939,513.524,a,1,0.4506,1,513.5241,514.0244,,,,,,461,FEM,WORD,AGR,150,tabla,,la,,0.4506,,514.0245,514.0246,0.171111111,-0.152222222,0,0,0,,0,187,187,460,1,pagra,,,,
,,,,,,613cd682e3e2846c1afe2132,676192165fb32c2e1fb7aee6,67d1b5388b234ca44b108d44,2025-03-12_10h25.16.082,Tarea de decisión léxica,2024.2.5,Win32,59.88023952,,,,,,,,,,,,,,,,,,,,,,,514.0273,515.158,l,1,0.4507,1,515.1583,515.6461,,,,,,92,FEM,NOWORD,DIS,150,sava,,el,,0.4507,,515.6461,515.6462,0.171111111,-0.152222222,0,0,0,,0,188,188,91,1,taza,,,,
,,,,,,613cd682e3e2846c1afe2132,676192165fb32c2e1fb7aee6,67d1b5388b234ca44b108d44,2025-03-12_10h25.16.082,Tarea de decisión léxica,2024.2.5,Win32,59.88023952,,,,,,,,,,,,,,,,,,,,,,,515.6475,516.7409,a,1,0.4168,1,516.741,517.241,,,,,,153,MAS,WORD,AGR,150,pato,,el,,0.4168,,517.2435,517.2441,0.171111111,-0.152222222,0,0,0,,0,189,189,152,1,tado,,,,
,,,,,,613cd682e3e2846c1afe2132,676192165fb32c2e1fb7aee6,67d1b5388b234ca44b108d44,2025-03-12_10h25.16.082,Tarea de decisión léxica,2024.2.5,Win32,59.88023952,,,,,,,,,,,,,,,,,,,,,,,517.2445,518.3909,l,1,0.4674,1,518.391,518.8909,,,,,,388,FEM,NOWORD,DIS,150,bresa,,el,,0.4674,,518.891,518.8911,0.171111111,-0.152222222,0,0,0,,0,190,190,387,1,crema,,,,
,,,,,,613cd682e3e2846c1afe2132,676192165fb32c2e1fb7aee6,67d1b5388b234ca44b108d44,2025-03-12_10h25.16.082,Tarea de decisión léxica,2024.2.5,Win32,59.88023952,,,,,,,,,,,,,,,,,,,,,,,518.8938,519.9919,a,1,0.4177,1,519.9923,520.4911,,,,,,189,MAS,WORD,AGR,150,puño,,el,,0.4177,,520.4911,520.4913,0.171111111,-0.152222222,0,0,0,,0,191,191,188,1,muvo,,,,
,,,,,,613cd682e3e2846c1afe2132,676192165fb32c2e1fb7aee6,67d1b5388b234ca44b108d44,2025-03-12_10h25.16.082,Tarea de decisión léxica,2024.2.5,Win32,59.88023952,,,,,,,,,,,,,,,,,,,,,,,520.4939,521.5744,a,1,0.4009,1,521.5746,522.0752,,,,,,329,MAS,WORD,AGR,150,hueso,,el,,0.4009,,522.0755,522.0759,0.171111111,-0.152222222,0,0,0,,0,192,192,328,1,nueno,,,,
,,,,,,613cd682e3e2846c1afe2132,676192165fb32c2e1fb7aee6,67d1b5388b234ca44b108d44,2025-03-12_10h25.16.082,Tarea de decisión léxica,2024.2.5,Win32,59.88023952,,,,,,,,,,,,,,,,,,,,,,,522.0777,523.0585,a,1,0.3024,1,523.0589,523.5577,,,,,,477,MAS,WORD,AGR,150,botón,,el,,0.3024,,523.5578,523.558,0.171111111,-0.152222222,0,0,0,,0,193,193,476,1,hocon,,,,
,,,,,,613cd682e3e2846c1afe2132,676192165fb32c2e1fb7aee6,67d1b5388b234ca44b108d44,2025-03-12_10h25.16.082,Tarea de decisión léxica,2024.2.5,Win32,59.88023952,,,,,,,,,,,,,,,,,,,,,,,523.5605,524.8411,a,1,0.6112,1,524.8413,525.3408,,,,,,101,MAS,WORD,AGR,150,tono,,el,,0.6112,,525.3429,525.3441,0.171111111,-0.152222222,0,0,0,,0,194,194,100,1,gito,,,,
,,,,,,613cd682e3e2846c1afe2132,676192165fb32c2e1fb7aee6,67d1b5388b234ca44b108d44,2025-03-12_10h25.16.082,Tarea de decisión léxica,2024.2.5,Win32,59.88023952,,,,,,,,,,,,,,,,,,,,,,,525.3445,526.3577,a,1,0.3339,1,526.3579,526.8576,,,,,,297,MAS,WORD,AGR,150,grupo,,el,,0.3339,,526.8577,526.858,0.171111111,-0.152222222,0,0,0,,0,195,195,296,1,brubo,,,,
,,,,,,613cd682e3e2846c1afe2132,676192165fb32c2e1fb7aee6,67d1b5388b234ca44b108d44,2025-03-12_10h25.16.082,Tarea de decisión léxica,2024.2.5,Win32,59.88023952,,,,,,,,,,,,,,,,,,,,,,,526.8605,527.7577,a,0,0.2225,0,527.7598,528.2578,,,,,,80,FEM,NOWORD,DIS,150,ciel,,el,,0.2225,,528.2579,528.258,0.171111111,-0.152222222,0,0,0,,0,196,196,79,1,piel,,,,
,,,,,,613cd682e3e2846c1afe2132,676192165fb32c2e1fb7aee6,67d1b5388b234ca44b108d44,2025-03-12_10h25.16.082,Tarea de decisión léxica,2024.2.5,Win32,59.88023952,,,,,,,,,,,,,,,,,,,,,,,528.2605,529.4578,l,1,0.5188,1,529.46,529.9577,,,,,,176,FEM,NOWORD,DIS,150,hosa,,el,,0.5188,,529.9577,529.9578,0.171111111,-0.152222222,0,0,0,,0,197,197,175,1,goma,,,,
,,,,,,613cd682e3e2846c1afe2132,676192165fb32c2e1fb7aee6,67d1b5388b234ca44b108d44,2025-03-12_10h25.16.082,Tarea de decisión léxica,2024.2.5,Win32,59.88023952,,,,,,,,,,,,,,,,,,,,,,,529.9604,531.0087,l,1,0.3838,1,531.009,531.5079,,,,,,14,FEM,NOWORD,AGR,150,nola,,la,,0.3838,,531.508,531.5082,0.171111111,-0.152222222,0,0,0,,0,198,198,13,1,hora,,,,
,,,,,,613cd682e3e2846c1afe2132,676192165fb32c2e1fb7aee6,67d1b5388b234ca44b108d44,2025-03-12_10h25.16.082,Tarea de decisión léxica,2024.2.5,Win32,59.88023952,,,,,,,,,,,,,,,,,,,,,,,531.5107,532.591,a,1,0.4049,1,532.5913,533.0952,,,,,,81,FEM,WORD,AGR,150,dama,,la,,0.4049,,533.0962,533.0968,0.171111111,-0.152222222,0,0,0,,0,199,199,80,1,vasa,,,,
,,,,,,613cd682e3e2846c1afe2132,676192165fb32c2e1fb7aee6,67d1b5388b234ca44b108d44,2025-03-12_10h25.16.082,Tarea de decisión léxica,2024.2.5,Win32,59.88023952,,,,,,,,,,,,,,,,,,,,,,,533.0974,534.1408,l,1,0.3729,1,534.1409,534.6415,,,,,,188,MAS,NOWORD,DIS,150,suto,,la,,0.3729,,534.6418,534.6421,0.171111111,-0.152222222,0,0,0,,0,200,200,187,1,mito,,,,
,,,,,,613cd682e3e2846c1afe2132,676192165fb32c2e1fb7aee6,67d1b5388b234ca44b108d44,2025-03-12_10h25.16.082,Tarea de decisión léxica,2024.2.5,Win32,59.88023952,,,,,,,,,,,,,,,,,,,,,,,534.6439,535.7412,a,1,0.4233,1,535.7415,536.2419,,,,,,387,FEM,WORD,DIS,150,crema,,el,,0.4233,,536.2422,536.2424,0.171111111,-0.152222222,0,0,0,,0,201,201,386,1,bresa,,,,
,,,,,,613cd682e3e2846c1afe2132,676192165fb32c2e1fb7aee6,67d1b5388b234ca44b108d44,2025-03-12_10h25.16.082,Tarea de decisión léxica,2024.2.5,Win32,59.88023952,,,,,,,,,,,,,,,,,,,,,,,536.2442,537.4409,a,1,0.5193,1,537.4409,537.941,,,,,,133,FEM,WORD,AGR,150,vaca,,la,,0.5193,,537.9411,537.9412,0.171111111,-0.152222222,0,0,0,,0,202,202,132,1,vesa,,,,
,,,,,,613cd682e3e2846c1afe2132,676192165fb32c2e1fb7aee6,67d1b5388b234ca44b108d44,2025-03-12_10h25.16.082,Tarea de decisión léxica,2024.2.5,Win32,59.88023952,,,,,,,,,,,,,,,,,,,,,,,537.9436,538.9578,a,1,0.3392,1,538.958,539.4576,,,,,,205,FEM,WORD,AGR,150,rana,,la,,0.3392,,539.4603,539.4613,0.171111111,-0.152222222,0,0,0,,0,203,203,204,1,bara,,,,
,,,,,,613cd682e3e2846c1afe2132,676192165fb32c2e1fb7aee6,67d1b5388b234ca44b108d44,2025-03-12_10h25.16.082,Tarea de decisión léxica,2024.2.5,Win32,59.88023952,,,,,,,,,,,,,,,,,,,,,,,539.4625,540.4078,a,1,0.2676,1,540.4079,540.9076,,,,,,437,FEM,WORD,AGR,150,plaza,,la,,0.2676,,540.9077,540.9078,0.171111111,-0.152222222,0,0,0,,0,204,204,436,1,glava,,,,
,,,,,,613cd682e3e2846c1afe2132,676192165fb32c2e1fb7aee6,67d1b5388b234ca44b108d44,2025-03-12_10h25.16.082,Tarea de decisión léxica,2024.2.5,Win32,59.88023952,,,,,,,,,,,,,,,,,,,,,,,540.9105,542.0576,l,1,0.4751,1,542.0577,542.5576,,,,,,462,FEM,NOWORD,AGR,150,pagra,,la,,0.4751,,542.5577,542.5578,0.171111111,-0.152222222,0,0,0,,0,205,205,461,1,tabla,,,,
,,,,,,613cd682e3e2846c1afe2132,676192165fb32c2e1fb7aee6,67d1b5388b234ca44b108d44,2025-03-12_10h25.16.082,Tarea de decisión léxica,2024.2.5,Win32,59.88023952,,,,,,,,,,,,,,,,,,,,,,,542.5604,543.6407,l,1,0.3946,1,543.6409,544.1406,,,,,,422,MAS,NOWORD,AGR,150,griso,,el,,0.3946,,544.1406,544.1407,0.171111111,-0.152222222,0,0,0,,0,206,206,421,1,primo,,,,
,,,,,,613cd682e3e2846c1afe2132,676192165fb32c2e1fb7aee6,67d1b5388b234ca44b108d44,2025-03-12_10h25.16.082,Tarea de decisión léxica,2024.2.5,Win32,59.88023952,,,,,,,,,,,,,,,,,,,,,,,544.1419,545.1245,l,1,0.3179,1,545.1246,545.6242,,,,,,240,MAS,NOWORD,DIS,150,poño,,la,,0.3179,,545.6243,545.6244,0.171111111,-0.152222222,0,0,0,,0,207,207,239,1,mozo,,,,
,,,,,,613cd682e3e2846c1afe2132,676192165fb32c2e1fb7aee6,67d1b5388b234ca44b108d44,2025-03-12_10h25.16.082,Tarea de decisión léxica,2024.2.5,Win32,59.88023952,,,,,,,,,,,,,,,,,,,,,,,545.627,546.7416,l,1,0.434,1,546.742,547.241,,,,,,392,MAS,NOWORD,DIS,150,dievo,,la,,0.434,,547.2433,547.244,0.171111111,-0.152222222,0,0,0,,0,208,208,391,1,dueño,,,,
,,,,,,613cd682e3e2846c1afe2132,676192165fb32c2e1fb7aee6,67d1b5388b234ca44b108d44,2025-03-12_10h25.16.082,Tarea de decisión léxica,2024.2.5,Win32,59.88023952,,,,,,,,,,,,,,,,,,,,,,,547.2446,548.3908,l,1,0.4675,1,548.3908,548.8919,,,,,,114,FEM,NOWORD,AGR,150,tada,,la,,0.4675,,548.8922,548.8925,0.171111111,-0.152222222,0,0,0,,0,209,209,113,1,miel,,,,
,,,,,,613cd682e3e2846c1afe2132,676192165fb32c2e1fb7aee6,67d1b5388b234ca44b108d44,2025-03-12_10h25.16.082,Tarea de decisión léxica,2024.2.5,Win32,59.88023952,,,,,,,,,,,,,,,,,,,,,,,548.8941,549.8575,l,0,0.2851,0,549.8596,550.3581,,,,,,411,MAS,WORD,DIS,150,pollo,,la,,0.2851,,550.3582,550.3585,0.171111111,-0.152222222,0,0,0,,0,210,210,410,1,mobro,,,,
,,,,,,613cd682e3e2846c1afe2132,676192165fb32c2e1fb7aee6,67d1b5388b234ca44b108d44,2025-03-12_10h25.16.082,Tarea de decisión léxica,2024.2.5,Win32,59.88023952,,,,,,,,,,,,,,,,,,,,,,,550.3608,551.4966,l,1,0.4668,1,551.4975,551.9911,,,,,,410,MAS,NOWORD,AGR,150,pafro,,el,,0.4668,,551.9912,551.9914,0.171111111,-0.152222222,0,0,0,,0,211,211,409,1,carro,,,,
,,,,,,613cd682e3e2846c1afe2132,676192165fb32c2e1fb7aee6,67d1b5388b234ca44b108d44,2025-03-12_10h25.16.082,Tarea de decisión léxica,2024.2.5,Win32,59.88023952,,,,,,,,,,,,,,,,,,,,,,,551.9942,553.1294,l,1,0.4665,1,553.1295,553.6244,,,,,,332,MAS,NOWORD,DIS,150,erato,,la,,0.4665,,553.6244,553.6246,0.171111111,-0.152222222,0,0,0,,0,212,212,331,1,éxito,,,,
,,,,,,613cd682e3e2846c1afe2132,676192165fb32c2e1fb7aee6,67d1b5388b234ca44b108d44,2025-03-12_10h25.16.082,Tarea de decisión léxica,2024.2.5,Win32,59.88023952,,,,,,,,,,,,,,,,,,,,,,,553.6273,554.7411,l,1,0.4344,1,554.7412,555.2419,,,,,,196,FEM,NOWORD,DIS,150,sira,,el,,0.4344,,555.2442,555.2451,0.171111111,-0.152222222,0,0,0,,0,213,213,195,1,tela,,,,
,,,,,,613cd682e3e2846c1afe2132,676192165fb32c2e1fb7aee6,67d1b5388b234ca44b108d44,2025-03-12_10h25.16.082,Tarea de decisión léxica,2024.2.5,Win32,59.88023952,,,,,,,,,,,,,,,,,,,,,,,555.2459,556.3745,a,1,0.4364,1,556.3748,556.8744,,,,,,427,FEM,WORD,DIS,150,oreja,,el,,0.4364,,556.8746,556.8749,0.171111111,-0.152222222,0,0,0,,0,214,214,426,1,oseva,,,,
,,,,,,613cd682e3e2846c1afe2132,676192165fb32c2e1fb7aee6,67d1b5388b234ca44b108d44,2025-03-12_10h25.16.082,Tarea de decisión léxica,2024.2.5,Win32,59.88023952,,,,,,,,,,,,,,,,,,,,,,,556.8772,557.8577,a,1,0.302,1,557.8579,558.3577,,,,,,401,MAS,WORD,AGR,150,polvo,,el,,0.302,,558.3579,558.3581,0.171111111,-0.152222222,0,0,0,,0,215,215,400,1,pirvo,,,,
,,,,,,613cd682e3e2846c1afe2132,676192165fb32c2e1fb7aee6,67d1b5388b234ca44b108d44,2025-03-12_10h25.16.082,Tarea de decisión léxica,2024.2.5,Win32,59.88023952,,,,,,,,,,,,,,,,,,,,,,,558.3607,559.5246,l,1,0.4844,1,559.5249,560.0256,,,,,,144,MAS,NOWORD,DIS,150,pezo,,la,,0.4844,,560.0258,560.0261,0.171111111,-0.152222222,0,0,0,,0,216,216,143,1,pavo,,,,
,,,,,,613cd682e3e2846c1afe2132,676192165fb32c2e1fb7aee6,67d1b5388b234ca44b108d44,2025-03-12_10h25.16.082,Tarea de decisión léxica,2024.2.5,Win32,59.88023952,,,,,,,,,,,,,,,,,,,,,,,560.0281,561.1907,l,1,0.4842,1,561.1908,561.691,,,,,,384,FEM,NOWORD,DIS,150,brame,,el,,0.4842,,561.6911,561.6912,0.171111111,-0.152222222,0,0,0,,0,217,217,383,1,frase,,,,
,,,,,,613cd682e3e2846c1afe2132,676192165fb32c2e1fb7aee6,67d1b5388b234ca44b108d44,2025-03-12_10h25.16.082,Tarea de decisión léxica,2024.2.5,Win32,59.88023952,,,,,,,,,,,,,,,,,,,,,,,561.6939,562.8244,l,1,0.4504,1,562.8246,563.3252,,,,,,230,MAS,NOWORD,AGR,150,ador,,el,,0.4504,,563.3273,563.3282,0.171111111,-0.152222222,0,0,0,,0,218,218,229,1,amor,,,,
,,,,,,613cd682e3e2846c1afe2132,676192165fb32c2e1fb7aee6,67d1b5388b234ca44b108d44,2025-03-12_10h25.16.082,Tarea de decisión léxica,2024.2.5,Win32,59.88023952,,,,,,,,,,,,,,,,,,,,,,,563.329,564.3077,l,1,0.2974,1,564.3081,564.8078,,,,,,286,MAS,NOWORD,AGR,150,echor,,el,,0.2974,,564.8078,564.8081,0.171111111,-0.152222222,0,0,0,,0,219,219,285,1,error,,,,
,,,,,,613cd682e3e2846c1afe2132,676192165fb32c2e1fb7aee6,67d1b5388b234ca44b108d44,2025-03-12_10h25.16.082,Tarea de decisión léxica,2024.2.5,Win32,59.88023952,,,,,,,,,,,,,,,,,,,,,,,564.8104,565.791,l,1,0.3052,1,565.7914,566.2958,,,,,,126,MAS,NOWORD,AGR,150,vudo,,el,,0.3052,,566.2958,566.296,0.171111111,-0.152222222,0,0,0,,0,220,220,125,1,lujo,,,,
,,,,,,613cd682e3e2846c1afe2132,676192165fb32c2e1fb7aee6,67d1b5388b234ca44b108d44,2025-03-12_10h25.16.082,Tarea de decisión léxica,2024.2.5,Win32,59.88023952,,,,,,,,,,,,,,,,,,,,,,,566.2971,567.2252,l,1,0.2618,1,567.2255,567.7243,,,,,,224,FEM,NOWORD,DIS,150,cira,,el,,0.2618,,567.7246,567.7248,0.171111111,-0.152222222,0,0,0,,0,221,221,223,1,cera,,,,
,,,,,,613cd682e3e2846c1afe2132,676192165fb32c2e1fb7aee6,67d1b5388b234ca44b108d44,2025-03-12_10h25.16.082,Tarea de decisión léxica,2024.2.5,Win32,59.88023952,,,,,,,,,,,,,,,,,,,,,,,567.7273,568.7246,l,0,0.3175,0,568.7267,569.2279,,,,,,47,MAS,WORD,DIS,150,club,,la,,0.3175,,569.2279,569.2281,0.171111111,-0.152222222,0,0,0,,0,222,222,46,1,chub,,,,
,,,,,,613cd682e3e2846c1afe2132,676192165fb32c2e1fb7aee6,67d1b5388b234ca44b108d44,2025-03-12_10h25.16.082,Tarea de decisión léxica,2024.2.5,Win32,59.88023952,,,,,,,,,,,,,,,,,,,,,,,569.2291,570.2744,a,1,0.3678,1,570.2764,570.7744,,,,,,145,MAS,WORD,AGR,150,león,,el,,0.3678,,570.7772,570.7782,0.171111111,-0.152222222,0,0,0,,0,223,223,144,1,nobo,,,,
,,,,,,613cd682e3e2846c1afe2132,676192165fb32c2e1fb7aee6,67d1b5388b234ca44b108d44,2025-03-12_10h25.16.082,Tarea de decisión léxica,2024.2.5,Win32,59.88023952,,,,,,,,,,,,,,,,,,,,,,,570.7792,571.9241,l,1,0.4672,1,571.9242,572.4256,,,,,,22,MAS,NOWORD,AGR,150,blan,,el,,0.4672,,572.4259,572.4262,0.171111111,-0.152222222,0,0,0,,0,224,224,21,1,plan,,,,
,,,,,,613cd682e3e2846c1afe2132,676192165fb32c2e1fb7aee6,67d1b5388b234ca44b108d44,2025-03-12_10h25.16.082,Tarea de decisión léxica,2024.2.5,Win32,59.88023952,,,,,,,,,,,,,,,,,,,,,,,572.4281,573.491,l,1,0.3842,1,573.4913,573.9911,,,,,,66,MAS,NOWORD,AGR,150,nios,,el,,0.3842,,573.9912,573.9914,0.171111111,-0.152222222,0,0,0,,0,225,225,65,1,dios,,,,
,,,,,,613cd682e3e2846c1afe2132,676192165fb32c2e1fb7aee6,67d1b5388b234ca44b108d44,2025-03-12_10h25.16.082,Tarea de decisión léxica,2024.2.5,Win32,59.88023952,,,,,,,,,,,,,,,,,,,,,,,573.9939,575.0744,a,1,0.4018,1,575.0747,575.5744,,,,,,63,FEM,WORD,DIS,150,luna,,el,,0.4018,,575.5747,575.5749,0.171111111,-0.152222222,0,0,0,,0,226,226,62,1,funa,,,,
,,,,,,613cd682e3e2846c1afe2132,676192165fb32c2e1fb7aee6,67d1b5388b234ca44b108d44,2025-03-12_10h25.16.082,Tarea de decisión léxica,2024.2.5,Win32,59.88023952,,,,,,,,,,,,,,,,,,,,,,,575.5775,576.5908,a,1,0.3386,1,576.591,577.091,,,,,,125,MAS,WORD,AGR,150,lujo,,el,,0.3386,,577.0935,577.0943,0.171111111,-0.152222222,0,0,0,,0,227,227,124,1,vudo,,,,
,,,,,,613cd682e3e2846c1afe2132,676192165fb32c2e1fb7aee6,67d1b5388b234ca44b108d44,2025-03-12_10h25.16.082,Tarea de decisión léxica,2024.2.5,Win32,59.88023952,,,,,,,,,,,,,,,,,,,,,,,577.095,578.1747,l,1,0.406,1,578.1751,578.6744,,,,,,242,MAS,NOWORD,AGR,150,mirdo,,el,,0.406,,578.6746,578.6748,0.171111111,-0.152222222,0,0,0,,0,228,228,241,1,mundo,,,,
,,,,,,613cd682e3e2846c1afe2132,676192165fb32c2e1fb7aee6,67d1b5388b234ca44b108d44,2025-03-12_10h25.16.082,Tarea de decisión léxica,2024.2.5,Win32,59.88023952,,,,,,,,,,,,,,,,,,,,,,,578.6771,579.8746,l,1,0.518,1,579.875,580.3744,,,,,,474,FEM,NOWORD,AGR,150,felia,,la,,0.518,,580.3745,580.3747,0.171111111,-0.152222222,0,0,0,,0,229,229,473,1,feria,,,,
,,,,,,613cd682e3e2846c1afe2132,676192165fb32c2e1fb7aee6,67d1b5388b234ca44b108d44,2025-03-12_10h25.16.082,Tarea de decisión léxica,2024.2.5,Win32,59.88023952,,,,,,,,,,,,,,,,,,,,,,,580.3774,581.408,a,1,0.3669,1,581.4083,581.9084,,,,,,51,FEM,WORD,DIS,150,caja,,el,,0.3669,,581.9086,581.909,0.171111111,-0.152222222,0,0,0,,0,230,230,50,1,mava,,,,
,,,,,,613cd682e3e2846c1afe2132,676192165fb32c2e1fb7aee6,67d1b5388b234ca44b108d44,2025-03-12_10h25.16.082,Tarea de decisión léxica,2024.2.5,Win32,59.88023952,,,,,,,,,,,,,,,,,,,,,,,581.911,582.8577,a,1,0.2772,1,582.8577,583.3588,,,,,,39,MAS,WORD,DIS,150,voto,,la,,0.2772,,583.359,583.3593,0.171111111,-0.152222222,0,0,0,,0,231,231,38,1,redo,,,,
,,,,,,613cd682e3e2846c1afe2132,676192165fb32c2e1fb7aee6,67d1b5388b234ca44b108d44,2025-03-12_10h25.16.082,Tarea de decisión léxica,2024.2.5,Win32,59.88023952,,,,,,,,,,,,,,,,,,,,,,,583.3613,584.4746,l,0,0.4431,0,584.4768,584.9743,,,,,,191,FEM,WORD,DIS,150,pila,,el,,0.4431,,584.9768,584.9777,0.171111111,-0.152222222,0,0,0,,0,232,232,190,1,bila,,,,
,,,,,,613cd682e3e2846c1afe2132,676192165fb32c2e1fb7aee6,67d1b5388b234ca44b108d44,2025-03-12_10h25.16.082,Tarea de decisión léxica,2024.2.5,Win32,59.88023952,,,,,,,,,,,,,,,,,,,,,,,584.9787,585.9744,a,1,0.3165,1,585.9766,586.4744,,,,,,347,FEM,WORD,DIS,150,pieza,,el,,0.3165,,586.4746,586.4748,0.171111111,-0.152222222,0,0,0,,0,233,233,346,1,mueza,,,,
,,,,,,613cd682e3e2846c1afe2132,676192165fb32c2e1fb7aee6,67d1b5388b234ca44b108d44,2025-03-12_10h25.16.082,Tarea de decisión léxica,2024.2.5,Win32,59.88023952,,,,,,,,,,,,,,,,,,,,,,,586.4772,587.5086,a,1,0.3476,1,587.5092,588.0076,,,,,,193,FEM,WORD,AGR,150,loca,,la,,0.3476,,588.0077,588.0078,0.171111111,-0.152222222,0,0,0,,0,234,234,192,1,foda,,,,
,,,,,,613cd682e3e2846c1afe2132,676192165fb32c2e1fb7aee6,67d1b5388b234ca44b108d44,2025-03-12_10h25.16.082,Tarea de decisión léxica,2024.2.5,Win32,59.88023952,,,,,,,,,,,,,,,,,,,,,,,588.0105,589.2298,l,1,0.5499,1,589.2299,589.7245,,,,,,350,MAS,NOWORD,AGR,150,cosir,,el,,0.5499,,589.7247,589.7249,0.171111111,-0.152222222,0,0,0,,0,235,235,349,1,color,,,,
,,,,,,613cd682e3e2846c1afe2132,676192165fb32c2e1fb7aee6,67d1b5388b234ca44b108d44,2025-03-12_10h25.16.082,Tarea de decisión léxica,2024.2.5,Win32,59.88023952,,,,,,,,,,,,,,,,,,,,,,,589.7275,590.8745,l,1,0.476,1,590.8747,591.3741,,,,,,304,MAS,NOWORD,DIS,150,lanco,,la,,0.476,,591.3741,591.3742,0.171111111,-0.152222222,0,0,0,,0,236,236,303,1,barco,,,,
,,,,,,613cd682e3e2846c1afe2132,676192165fb32c2e1fb7aee6,67d1b5388b234ca44b108d44,2025-03-12_10h25.16.082,Tarea de decisión léxica,2024.2.5,Win32,59.88023952,,,,,,,,,,,,,,,,,,,,,,,591.3767,592.4414,l,1,0.3943,1,592.4418,592.942,,,,,,140,MAS,NOWORD,DIS,150,nila,,la,,0.3943,,592.944,592.9448,0.171111111,-0.152222222,0,0,0,,0,237,237,139,1,mago,,,,
,,,,,,613cd682e3e2846c1afe2132,676192165fb32c2e1fb7aee6,67d1b5388b234ca44b108d44,2025-03-12_10h25.16.082,Tarea de decisión léxica,2024.2.5,Win32,59.88023952,,,,,,,,,,,,,,,,,,,,,,,592.9455,593.9745,l,1,0.3507,1,593.9748,594.4747,,,,,,380,MAS,NOWORD,DIS,150,tunso,,la,,0.3507,,594.4749,594.4751,0.171111111,-0.152222222,0,0,0,,0,238,238,379,1,turno,,,,
,,,,,,613cd682e3e2846c1afe2132,676192165fb32c2e1fb7aee6,67d1b5388b234ca44b108d44,2025-03-12_10h25.16.082,Tarea de decisión léxica,2024.2.5,Win32,59.88023952,,,,,,,,,,,,,,,,,,,,,,,594.4772,595.4245,l,1,0.2706,1,595.4248,595.9255,,,,,,396,FEM,NOWORD,DIS,150,paeda,,el,,0.2706,,595.9256,595.926,0.171111111,-0.152222222,0,0,0,,0,239,239,395,1,caída,,,,
,,,,,,613cd682e3e2846c1afe2132,676192165fb32c2e1fb7aee6,67d1b5388b234ca44b108d44,2025-03-12_10h25.16.082,Tarea de decisión léxica,2024.2.5,Win32,59.88023952,,,,,,,,,,,,,,,,,,,,,,,595.9278,596.8267,l,1,0.242,1,596.827,597.3253,,,,,,138,MAS,NOWORD,AGR,150,pamo,,el,,0.242,,597.3256,597.3259,0.171111111,-0.152222222,0,0,0,,0,240,240,137,1,nene,,,,
,,,,,,613cd682e3e2846c1afe2132,676192165fb32c2e1fb7aee6,67d1b5388b234ca44b108d44,2025-03-12_10h25.16.082,Tarea de decisión léxica,2024.2.5,Win32,59.88023952,,,,,,,,,,,,,,,,,,,,,,,597.3277,598.2075,l,1,0.2034,1,598.2075,598.7085,,,,,,222,FEM,NOWORD,AGR,150,puca,,la,,0.2034,,598.7086,598.7089,0.171111111,-0.152222222,0,0,0,,0,241,241,221,1,mula,,,,
,,,,,,613cd682e3e2846c1afe2132,676192165fb32c2e1fb7aee6,67d1b5388b234ca44b108d44,2025-03-12_10h25.16.082,Tarea de decisión léxica,2024.2.5,Win32,59.88023952,,,,,,,,,,,,,,,,,,,,,,,598.7109,599.6576,l,0,0.273,0,599.6593,600.1579,,,,,,323,FEM,WORD,DIS,150,cinta,,el,,0.273,,600.1607,600.1618,0.171111111,-0.152222222,0,0,0,,0,242,242,322,1,certa,,,,
,,,,,,613cd682e3e2846c1afe2132,676192165fb32c2e1fb7aee6,67d1b5388b234ca44b108d44,2025-03-12_10h25.16.082,Tarea de decisión léxica,2024.2.5,Win32,59.88023952,,,,,,,,,,,,,,,,,,,,,,,600.1626,601.4576,l,1,0.6303,1,601.4593,601.9578,,,,,,86,MAS,NOWORD,AGR,150,babo,,el,,0.6303,,601.958,601.9582,0.171111111,-0.152222222,0,0,0,,0,243,243,85,1,lago,,,,
,,,,,,613cd682e3e2846c1afe2132,676192165fb32c2e1fb7aee6,67d1b5388b234ca44b108d44,2025-03-12_10h25.16.082,Tarea de decisión léxica,2024.2.5,Win32,59.88023952,,,,,,,,,,,,,,,,,,,,,,,601.9609,603.1744,l,1,0.5344,1,603.1746,603.6743,,,,,,272,FEM,NOWORD,DIS,150,refal,,el,,0.5344,,603.6745,603.6745,0.171111111,-0.152222222,0,0,0,,0,244,244,271,1,señal,,,,
,,,,,,613cd682e3e2846c1afe2132,676192165fb32c2e1fb7aee6,67d1b5388b234ca44b108d44,2025-03-12_10h25.16.082,Tarea de decisión léxica,2024.2.5,Win32,59.88023952,,,,,,,,,,,,,,,,,,,,,,,603.677,604.7076,a,1,0.3507,1,604.7078,605.2076,,,,,,211,FEM,WORD,DIS,150,joya,,el,,0.3507,,605.2076,605.2077,0.171111111,-0.152222222,0,0,0,,0,245,245,210,1,joad,,,,
,,,,,,613cd682e3e2846c1afe2132,676192165fb32c2e1fb7aee6,67d1b5388b234ca44b108d44,2025-03-12_10h25.16.082,Tarea de decisión léxica,2024.2.5,Win32,59.88023952,,,,,,,,,,,,,,,,,,,,,,,605.2103,606.741,a,1,0.8504,1,606.7412,607.2421,,,,,,219,FEM,WORD,DIS,150,pipa,,el,,0.8504,,607.2423,607.2425,0.171111111,-0.152222222,0,0,0,,0,246,246,218,1,miva,,,,
,,,,,,613cd682e3e2846c1afe2132,676192165fb32c2e1fb7aee6,67d1b5388b234ca44b108d44,2025-03-12_10h25.16.082,Tarea de decisión léxica,2024.2.5,Win32,59.88023952,,,,,,,,,,,,,,,,,,,,,,,607.2443,608.2743,a,1,0.3474,1,608.2745,608.775,,,,,,267,MAS,WORD,DIS,150,libro,,la,,0.3474,,608.7773,608.7783,0.171111111,-0.152222222,0,0,0,,0,247,247,266,1,figro,,,,
,,,,,,613cd682e3e2846c1afe2132,676192165fb32c2e1fb7aee6,67d1b5388b234ca44b108d44,2025-03-12_10h25.16.082,Tarea de decisión léxica,2024.2.5,Win32,59.88023952,,,,,,,,,,,,,,,,,,,,,,,608.7792,609.7245,a,1,0.2739,1,609.7246,610.2244,,,,,,373,FEM,WORD,AGR,150,pizza,,la,,0.2739,,610.2245,610.2245,0.171111111,-0.152222222,0,0,0,,0,248,248,372,1,pogza,,,,
,,,,,,613cd682e3e2846c1afe2132,676192165fb32c2e1fb7aee6,67d1b5388b234ca44b108d44,2025-03-12_10h25.16.082,Tarea de decisión léxica,2024.2.5,Win32,59.88023952,,,,,,,,,,,,,,,,,,,,,,,610.2268,611.4134,l,1,0.5166,1,611.4134,611.9078,,,,,,266,FEM,NOWORD,AGR,150,pitat,,la,,0.5166,,611.908,611.9082,0.171111111,-0.152222222,0,0,0,,0,249,249,265,1,mitad,,,,
,,,,,,613cd682e3e2846c1afe2132,676192165fb32c2e1fb7aee6,67d1b5388b234ca44b108d44,2025-03-12_10h25.16.082,Tarea de decisión léxica,2024.2.5,Win32,59.88023952,,,,,,,,,,,,,,,,,,,,,,,611.9107,613.0464,l,1,0.4666,1,613.0464,613.542,,,,,,98,MAS,NOWORD,AGR,150,fopo,,el,,0.4666,,613.5423,613.5426,0.171111111,-0.152222222,0,0,0,,0,250,250,97,1,mono,,,,
,,,,,,613cd682e3e2846c1afe2132,676192165fb32c2e1fb7aee6,67d1b5388b234ca44b108d44,2025-03-12_10h25.16.082,Tarea de decisión léxica,2024.2.5,Win32,59.88023952,,,,,,,,,,,,,,,,,,,,,,,613.5444,614.6089,l,0,0.4018,0,614.6106,615.1079,,,,,,315,FEM,WORD,DIS,150,reina,,el,,0.4018,,615.1104,615.111,0.171111111,-0.152222222,0,0,0,,0,251,251,314,1,riosa,,,,
,,,,,,613cd682e3e2846c1afe2132,676192165fb32c2e1fb7aee6,67d1b5388b234ca44b108d44,2025-03-12_10h25.16.082,Tarea de decisión léxica,2024.2.5,Win32,59.88023952,,,,,,,,,,,,,,,,,,,,,,,615.1116,616.1911,a,1,0.4171,1,616.1931,616.6911,,,,,,33,FEM,WORD,AGR,150,boca,,la,,0.4171,,616.6912,616.6914,0.171111111,-0.152222222,0,0,0,,0,252,252,32,1,loda,,,,
,,,,,,613cd682e3e2846c1afe2132,676192165fb32c2e1fb7aee6,67d1b5388b234ca44b108d44,2025-03-12_10h25.16.082,Tarea de decisión léxica,2024.2.5,Win32,59.88023952,,,,,,,,,,,,,,,,,,,,,,,616.694,617.7244,a,1,0.3567,1,617.7245,618.2247,,,,,,449,FEM,WORD,AGR,150,pluma,,la,,0.3567,,618.2249,618.2252,0.171111111,-0.152222222,0,0,0,,0,253,253,448,1,crusa,,,,
,,,,,,613cd682e3e2846c1afe2132,676192165fb32c2e1fb7aee6,67d1b5388b234ca44b108d44,2025-03-12_10h25.16.082,Tarea de decisión léxica,2024.2.5,Win32,59.88023952,,,,,,,,,,,,,,,,,,,,,,,618.2273,619.1912,a,1,0.2839,1,619.1915,619.6911,,,,,,287,FEM,WORD,DIS,150,lista,,el,,0.2839,,619.6913,619.6916,0.171111111,-0.152222222,0,0,0,,0,254,254,286,1,fosta,,,,
,,,,,,613cd682e3e2846c1afe2132,676192165fb32c2e1fb7aee6,67d1b5388b234ca44b108d44,2025-03-12_10h25.16.082,Tarea de decisión léxica,2024.2.5,Win32,59.88023952,,,,,,,,,,,,,,,,,,,,,,,619.6941,620.9753,l,1,0.6051,1,620.9756,621.4753,,,,,,398,FEM,NOWORD,AGR,150,trigi,,la,,0.6051,,621.4755,621.4758,0.171111111,-0.152222222,0,0,0,,0,255,255,397,1,tribu,,,,
,,,,,,613cd682e3e2846c1afe2132,676192165fb32c2e1fb7aee6,67d1b5388b234ca44b108d44,2025-03-12_10h25.16.082,Tarea de decisión léxica,2024.2.5,Win32,59.88023952,,,,,,,,,,,,,,,,,,,,,,,621.4781,622.6912,l,1,0.5179,1,622.6916,623.1911,,,,,,426,FEM,NOWORD,AGR,150,virca,,la,,0.5179,,623.1939,623.195,0.171111111,-0.152222222,0,0,0,,0,256,256,425,1,viuda,,,,
,,,,,,613cd682e3e2846c1afe2132,676192165fb32c2e1fb7aee6,67d1b5388b234ca44b108d44,2025-03-12_10h25.16.082,Tarea de decisión léxica,2024.2.5,Win32,59.88023952,,,,,,,,,,,,,,,,,,,,,,,623.196,624.2744,a,1,0.4019,1,624.2745,624.7754,,,,,,259,MAS,WORD,DIS,150,juego,,la,,0.4019,,624.7757,624.776,0.171111111,-0.152222222,0,0,0,,0,257,257,258,1,jaumo,,,,
,,,,,,613cd682e3e2846c1afe2132,676192165fb32c2e1fb7aee6,67d1b5388b234ca44b108d44,2025-03-12_10h25.16.082,Tarea de decisión léxica,2024.2.5,Win32,59.88023952,,,,,,,,,,,,,,,,,,,,,,,624.7777,626.0419,a,1,0.5836,1,626.0422,626.546,,,,,,35,MAS,WORD,DIS,150,pelo,,la,,0.5836,,626.546,626.5462,0.171111111,-0.152222222,0,0,0,,0,258,258,34,1,meno,,,,
,,,,,,613cd682e3e2846c1afe2132,676192165fb32c2e1fb7aee6,67d1b5388b234ca44b108d44,2025-03-12_10h25.16.082,Tarea de decisión léxica,2024.2.5,Win32,59.88023952,,,,,,,,,,,,,,,,,,,,,,,626.5475,627.5241,a,1,0.2849,1,627.5242,628.0251,,,,,,29,MAS,WORD,AGR,150,modo,,el,,0.2849,,628.0253,628.0256,0.171111111,-0.152222222,0,0,0,,0,259,259,28,1,pono,,,,
,,,,,,613cd682e3e2846c1afe2132,676192165fb32c2e1fb7aee6,67d1b5388b234ca44b108d44,2025-03-12_10h25.16.082,Tarea de decisión léxica,2024.2.5,Win32,59.88023952,,,,,,,,,,,,,,,,,,,,,,,628.0271,629.0409,a,1,0.3486,1,629.0411,629.5422,,,,,,59,FEM,WORD,DIS,150,sala,,el,,0.3486,,629.5424,629.5427,0.171111111,-0.152222222,0,0,0,,0,260,260,58,1,tafa,,,,
,,,,,,613cd682e3e2846c1afe2132,676192165fb32c2e1fb7aee6,67d1b5388b234ca44b108d44,2025-03-12_10h25.16.082,Tarea de decisión léxica,2024.2.5,Win32,59.88023952,,,,,,,,,,,,,,,,,,,,,,,629.5444,630.4411,a,1,0.2278,1,630.4413,630.941,,,,,,215,FEM,WORD,DIS,150,raíz,,el,,0.2278,,630.9436,630.9448,0.171111111,-0.152222222,0,0,0,,0,261,261,214,1,raua,,,,
,,,,,,613cd682e3e2846c1afe2132,676192165fb32c2e1fb7aee6,67d1b5388b234ca44b108d44,2025-03-12_10h25.16.082,Tarea de decisión léxica,2024.2.5,Win32,59.88023952,,,,,,,,,,,,,,,,,,,,,,,630.9458,631.9074,a,0,0.2837,0,631.909,632.4078,,,,,,296,MAS,NOWORD,DIS,150,goler,,la,,0.2837,,632.4078,632.408,0.171111111,-0.152222222,0,0,0,,0,262,262,295,1,dolor,,,,
,,,,,,613cd682e3e2846c1afe2132,676192165fb32c2e1fb7aee6,67d1b5388b234ca44b108d44,2025-03-12_10h25.16.082,Tarea de decisión léxica,2024.2.5,Win32,59.88023952,,,,,,,,,,,,,,,,,,,,,,,632.4108,633.7242,l,1,0.6402,1,633.7258,634.2242,,,,,,178,MAS,NOWORD,AGR,150,bito,,el,,0.6402,,634.2243,634.2244,0.171111111,-0.152222222,0,0,0,,0,263,263,177,1,reto,,,,
,,,,,,613cd682e3e2846c1afe2132,676192165fb32c2e1fb7aee6,67d1b5388b234ca44b108d44,2025-03-12_10h25.16.082,Tarea de decisión léxica,2024.2.5,Win32,59.88023952,,,,,,,,,,,,,,,,,,,,,,,634.2271,635.3411,a,1,0.4402,1,635.3412,635.8292,,,,,,311,MAS,WORD,DIS,150,honor,,la,,0.4402,,635.8293,635.8294,0.171111111,-0.152222222,0,0,0,,0,264,264,310,1,nosor,,,,
