counterbalancing_condition,consent_prescreening.block_1/declare_consent,consent_prescreening.block_1/age_years,consent_prescreening.block_1/gender,consent_prescreening.block_1/language_disorder,consent_prescreening.block_1/first_language,PROLIFIC_PID,STUDY_ID,SESSION_ID,date,expName,psychopyVersion,OS,frameRate,check_prescreening_answers.started,check_prescreening_answers.stopped,Instructions.started,Instructions.stopped,instr_done_keyboard.keys,instr_done_keyboard.rt,instr_done_keyboard.duration,instr_done_touch.x,instr_done_touch.y,instr_done_touch.leftButton,instr_done_touch.midButton,instr_done_touch.rightButton,instruction_pages.thisRepN,instruction_pages.thisTrialN,instruction_pages.thisN,instruction_pages.thisIndex,instruction_pages.ran,pageN,phase,instruct_text,has_image,instruct_image,presentTrial.started,presentTrial.stopped,response.keys,response.corr,rt,corr,feedback.started,feedback.stopped,practice_trials.thisRepN,practice_trials.thisTrialN,practice_trials.thisN,practice_trials.thisIndex,practice_trials.ran,TrialID,Gender,StimulusType,Condition,PrimeDuration,Prime,len,Flanker,corrAns,response.rt,response.duration,Break.started,Break.stopped,break_done_touch.x,break_done_touch.y,break_done_touch.leftButton,break_done_touch.midButton,break_done_touch.rightButton,break_done_keyboard.keys,experiment_trials.thisRepN,experiment_trials.thisTrialN,experiment_trials.thisN,experiment_trials.thisIndex,experiment_trials.ran,PairedWith,break_done_touch.clicked_name,break_done_keyboard.rt,break_done_keyboard.duration,End.started,End.stopped
3,"[""over_18"",""comfortable"",""read_info"",""consent_given""]",27,F,"[""none""]","[""spanish""]",6140c26c2ee391b3f4601f01,676192165fb32c2e1fb7aee6,67d1f41f93c04bc02fd4754f,2025-03-12_14h53.19.709,Tarea de decisión léxica,2024.2.5,MacIntel,60.24096386,,,,,,,,,,,,,,,,,,,,,,,,,,,,,,,,,,,,,,,,,,,,,,,,,,,,,,,,,,,,,,,,,
,,,,,,6140c26c2ee391b3f4601f01,676192165fb32c2e1fb7aee6,67d1f41f93c04bc02fd4754f,2025-03-12_14h53.19.709,Tarea de decisión léxica,2024.2.5,MacIntel,60.24096386,28.9461,28.9464,,,,,,,,,,,,,,,,,,,,,,,,,,,,,,,,,,,,,,,,,,,,,,,,,,,,,,,,,,,,,,,
,,,,,,6140c26c2ee391b3f4601f01,676192165fb32c2e1fb7aee6,67d1f41f93c04bc02fd4754f,2025-03-12_14h53.19.709,Tarea de decisión léxica,2024.2.5,MacIntel,60.24096386,,,28.9739,39.3542,space,10.3389,,-0.162534722,-0.430364583,0,0,0,0,0,0,0,1,1,instructions,"INSTRUCCIONES
Va a realizar una prueba de decisión léxica. Desde el comienzo de la prueba mire siempre al centro de la pantalla. Se presentará una serie de cadenas de letras, una a la vez, en la pantalla. Su tarea consiste en determinar si cada cadena de letras constituye una palabra real en español o una no-palabra (una secuencia de letras que no constituye una palabra real). 

Pulse la tecla ESPACIO para continuar.",0,keyboardresponseNW.png,,,,,,,,,,,,,,,,,,,,,,,,,,,,,,,,,,,,,,,,,,,
,,,,,,6140c26c2ee391b3f4601f01,676192165fb32c2e1fb7aee6,67d1f41f93c04bc02fd4754f,2025-03-12_14h53.19.709,Tarea de decisión léxica,2024.2.5,MacIntel,60.24096386,,,39.3572,48.8877,space,9.5152,,-0.162534722,-0.430364583,0,0,0,0,1,1,1,1,2,instructions,"El procedimiento es el siguiente: Aparecerán dos barras verticales posicionadas en el centro de la pantalla, separadas por un pequeño espacio.Por favor, enfoque su atención en el espacio entre las barras. Esto preparará sus ojos para la siguiente cadena de letras, que aparecerá entre las dos barras durante un instante.

Pulse la tecla ESPACIO para continuar.",0,keyboardresponseNW.png,,,,,,,,,,,,,,,,,,,,,,,,,,,,,,,,,,,,,,,,,,,
,,,,,,6140c26c2ee391b3f4601f01,676192165fb32c2e1fb7aee6,67d1f41f93c04bc02fd4754f,2025-03-12_14h53.19.709,Tarea de decisión léxica,2024.2.5,MacIntel,60.24096386,,,48.8904,65.7884,space,16.8253,,-0.162534722,-0.430364583,0,0,0,0,2,2,2,1,3,instructions,"En el teclado de su dispositivo, pulse la tecla ""L"" si la cadena de letras es una palabra real en español (por ejemplo: ""mano"") y la tecla ""A"" si la cadena de letras es una no-palabra (por ejemplo: ""minu"").
Pulse la tecla ESPACIO para continuar.",1,keyboardresponseNW.png,,,,,,,,,,,,,,,,,,,,,,,,,,,,,,,,,,,,,,,,,,,
,,,,,,6140c26c2ee391b3f4601f01,676192165fb32c2e1fb7aee6,67d1f41f93c04bc02fd4754f,2025-03-12_14h53.19.709,Tarea de decisión léxica,2024.2.5,MacIntel,60.24096386,,,65.7914,75.0061,space,9.1903,,-0.225894097,-0.315039063,0,0,0,0,3,3,3,1,4,instructions,"Es muy importante que responda con la mayor rapidez y precisión posibles. Si no responde dentro de 2 segundos, aparecerá el mensaje ""Muy lento"" y el experimento pasará a la siguiente palabra. Inmediatamente después de su respuesta se indicará si fue correcta o no. Los primeros 15 intentos serán de práctica y habrá dos descansos durante la prueba.

Pulse la tecla ESPACIO  para iniciar la parte de práctica.",0,keyboardresponseNW.png,,,,,,,,,,,,,,,,,,,,,,,,,,,,,,,,,,,,,,,,,,,
,,,,,,6140c26c2ee391b3f4601f01,676192165fb32c2e1fb7aee6,67d1f41f93c04bc02fd4754f,2025-03-12_14h53.19.709,Tarea de decisión léxica,2024.2.5,MacIntel,60.24096386,,,,,,,,,,,,,,,,,,,,,,,75.0263,77.6726,,0,,-1,77.6729,78.1729,0,0,0,5,1,1006,FEM,WORD,AGR,150,cara,4,la,l,,,,,,,,,,,,,,,,,,,,,
,,,,,,6140c26c2ee391b3f4601f01,676192165fb32c2e1fb7aee6,67d1f41f93c04bc02fd4754f,2025-03-12_14h53.19.709,Tarea de decisión léxica,2024.2.5,MacIntel,60.24096386,,,,,,,,,,,,,,,,,,,,,,,78.174,79.9727,l,0,1.1159,0,80.0097,80.4724,0,1,1,2,1,1003,FEM,NOWORD,DIS,150,muvor,5,el,a,1.1159,,,,,,,,,,,,,,,,,,,,
,,,,,,6140c26c2ee391b3f4601f01,676192165fb32c2e1fb7aee6,67d1f41f93c04bc02fd4754f,2025-03-12_14h53.19.709,Tarea de decisión léxica,2024.2.5,MacIntel,60.24096386,,,,,,,,,,,,,,,,,,,,,,,80.4733,82.9722,a,1,1.8438,1,82.9731,83.4729,0,2,2,0,1,1001,FEM,NOWORD,AGR,150,croz,4,la,a,1.8438,,,,,,,,,,,,,,,,,,,,
,,,,,,6140c26c2ee391b3f4601f01,676192165fb32c2e1fb7aee6,67d1f41f93c04bc02fd4754f,2025-03-12_14h53.19.709,Tarea de decisión léxica,2024.2.5,MacIntel,60.24096386,,,,,,,,,,,,,,,,,,,,,,,83.4743,85.0898,l,1,0.9557,1,85.0899,85.59,0,3,3,7,1,1008,MAS,WORD,DIS,150,frío,4,la,l,0.9557,,,,,,,,,,,,,,,,,,,,
,,,,,,6140c26c2ee391b3f4601f01,676192165fb32c2e1fb7aee6,67d1f41f93c04bc02fd4754f,2025-03-12_14h53.19.709,Tarea de decisión léxica,2024.2.5,MacIntel,60.24096386,,,,,,,,,,,,,,,,,,,,,,,85.5911,87.1231,a,0,0.8573,0,87.1239,87.6236,0,4,4,8,1,1009,FEM,WORD,AGR,150,viejo,5,la,l,0.8573,,,,,,,,,,,,,,,,,,,,
,,,,,,6140c26c2ee391b3f4601f01,676192165fb32c2e1fb7aee6,67d1f41f93c04bc02fd4754f,2025-03-12_14h53.19.709,Tarea de decisión léxica,2024.2.5,MacIntel,60.24096386,,,,,,,,,,,,,,,,,,,,,,,87.6253,88.94,l,1,0.6404,1,88.9408,89.4392,0,5,5,6,1,1007,MAS,WORD,DIS,150,masa,4,la,l,0.6404,,,,,,,,,,,,,,,,,,,,
,,,,,,6140c26c2ee391b3f4601f01,676192165fb32c2e1fb7aee6,67d1f41f93c04bc02fd4754f,2025-03-12_14h53.19.709,Tarea de decisión léxica,2024.2.5,MacIntel,60.24096386,,,,,,,,,,,,,,,,,,,,,,,89.4402,90.99,a,1,0.8791,1,90.9901,91.4903,0,6,6,1,1,1002,FEM,NOWORD,DIS,150,mabo,4,el,a,0.8791,,,,,,,,,,,,,,,,,,,,
,,,,,,6140c26c2ee391b3f4601f01,676192165fb32c2e1fb7aee6,67d1f41f93c04bc02fd4754f,2025-03-12_14h53.19.709,Tarea de decisión léxica,2024.2.5,MacIntel,60.24096386,,,,,,,,,,,,,,,,,,,,,,,91.4911,92.7233,l,1,0.5573,1,92.7234,93.2236,0,7,7,9,1,1010,MAS,WORD,DIS,150,video,5,la,l,0.5573,,,,,,,,,,,,,,,,,,,,
,,,,,,6140c26c2ee391b3f4601f01,676192165fb32c2e1fb7aee6,67d1f41f93c04bc02fd4754f,2025-03-12_14h53.19.709,Tarea de decisión léxica,2024.2.5,MacIntel,60.24096386,,,,,,,,,,,,,,,,,,,,,,,93.2245,94.5396,a,1,0.645,1,94.5399,95.0407,0,8,8,3,1,1004,FEM,NOWORD,AGR,150,bireo,5,la,a,0.645,,,,,,,,,,,,,,,,,,,,
,,,,,,6140c26c2ee391b3f4601f01,676192165fb32c2e1fb7aee6,67d1f41f93c04bc02fd4754f,2025-03-12_14h53.19.709,Tarea de decisión léxica,2024.2.5,MacIntel,60.24096386,,,,,,,,,,,,,,,,,,,,,,,95.0416,96.507,a,1,0.7855,1,96.507,97.0074,0,9,9,4,1,1005,MAS,NOWORD,DIS,150,nobad,5,la,a,0.7855,,,,,,,,,,,,,,,,,,,,
,,,,,,6140c26c2ee391b3f4601f01,676192165fb32c2e1fb7aee6,67d1f41f93c04bc02fd4754f,2025-03-12_14h53.19.709,Tarea de decisión léxica,2024.2.5,MacIntel,60.24096386,,,99.0597,99.9076,space,0.8337,,-0.225894097,-0.315039063,0,0,0,,,,,,,,,,,99.956,101.5411,a,1,0.9235,1,101.5412,102.0403,,,,,,312,MAS,NOWORD,DIS,150,nosor,,la,,0.9235,,102.0405,102.0428,-0.225894097,-0.315039063,0,0,0,,0,0,0,311,1,honor,,,,,
,,,,,,6140c26c2ee391b3f4601f01,676192165fb32c2e1fb7aee6,67d1f41f93c04bc02fd4754f,2025-03-12_14h53.19.709,Tarea de decisión léxica,2024.2.5,MacIntel,60.24096386,,,,,,,,,,,,,,,,,,,,,,,102.0435,103.5245,l,0,0.7996,0,103.5254,104.0237,,,,,,34,FEM,NOWORD,AGR,150,loda,,la,,0.7996,,104.0237,104.0239,-0.225894097,-0.315039063,0,0,0,,0,1,1,33,1,boca,,,,,
,,,,,,6140c26c2ee391b3f4601f01,676192165fb32c2e1fb7aee6,67d1f41f93c04bc02fd4754f,2025-03-12_14h53.19.709,Tarea de decisión léxica,2024.2.5,MacIntel,60.24096386,,,,,,,,,,,,,,,,,,,,,,,104.0249,105.3075,a,1,0.6167,1,105.3084,105.8078,,,,,,204,FEM,NOWORD,DIS,150,beja,,el,,0.6167,,105.8089,105.8101,-0.225894097,-0.315039063,0,0,0,,0,2,2,203,1,leña,,,,,
,,,,,,6140c26c2ee391b3f4601f01,676192165fb32c2e1fb7aee6,67d1f41f93c04bc02fd4754f,2025-03-12_14h53.19.709,Tarea de decisión léxica,2024.2.5,MacIntel,60.24096386,,,,,,,,,,,,,,,,,,,,,,,105.8108,107.0406,l,1,0.5511,1,107.0407,107.5409,,,,,,315,FEM,WORD,DIS,150,reina,,el,,0.5511,,107.541,107.5411,-0.225894097,-0.315039063,0,0,0,,0,3,3,314,1,riosa,,,,,
,,,,,,6140c26c2ee391b3f4601f01,676192165fb32c2e1fb7aee6,67d1f41f93c04bc02fd4754f,2025-03-12_14h53.19.709,Tarea de decisión léxica,2024.2.5,MacIntel,60.24096386,,,,,,,,,,,,,,,,,,,,,,,107.5421,108.7916,a,1,0.5777,1,108.7916,109.2915,,,,,,452,FEM,NOWORD,DIS,150,clita,,el,,0.5777,,109.2915,109.2917,-0.225894097,-0.315039063,0,0,0,,0,4,4,451,1,fruta,,,,,
,,,,,,6140c26c2ee391b3f4601f01,676192165fb32c2e1fb7aee6,67d1f41f93c04bc02fd4754f,2025-03-12_14h53.19.709,Tarea de decisión léxica,2024.2.5,MacIntel,60.24096386,,,,,,,,,,,,,,,,,,,,,,,109.2924,110.8077,a,1,0.8342,1,110.8078,111.3084,,,,,,460,MAS,NOWORD,DIS,150,fraco,,la,,0.8342,,111.3085,111.3086,-0.225894097,-0.315039063,0,0,0,,0,5,5,459,1,grado,,,,,
,,,,,,6140c26c2ee391b3f4601f01,676192165fb32c2e1fb7aee6,67d1f41f93c04bc02fd4754f,2025-03-12_14h53.19.709,Tarea de decisión léxica,2024.2.5,MacIntel,60.24096386,,,,,,,,,,,,,,,,,,,,,,,111.3095,112.525,l,1,0.5433,1,112.5251,113.0251,,,,,,227,MAS,WORD,DIS,150,faro,,la,,0.5433,,113.0251,113.0252,-0.225894097,-0.315039063,0,0,0,,0,6,6,226,1,laro,,,,,
,,,,,,6140c26c2ee391b3f4601f01,676192165fb32c2e1fb7aee6,67d1f41f93c04bc02fd4754f,2025-03-12_14h53.19.709,Tarea de decisión léxica,2024.2.5,MacIntel,60.24096386,,,,,,,,,,,,,,,,,,,,,,,113.0261,114.2578,a,1,0.5577,1,114.2579,114.7589,,,,,,172,MAS,NOWORD,DIS,150,niro,,la,,0.5577,,114.76,114.7609,-0.225894097,-0.315039063,0,0,0,,0,7,7,171,1,hilo,,,,,
,,,,,,6140c26c2ee391b3f4601f01,676192165fb32c2e1fb7aee6,67d1f41f93c04bc02fd4754f,2025-03-12_14h53.19.709,Tarea de decisión léxica,2024.2.5,MacIntel,60.24096386,,,,,,,,,,,,,,,,,,,,,,,114.7616,115.9251,a,1,0.4833,1,115.9251,116.4251,,,,,,232,FEM,NOWORD,DIS,150,heta,,el,,0.4833,,116.4253,116.4253,-0.225894097,-0.315039063,0,0,0,,0,8,8,231,1,bota,,,,,
,,,,,,6140c26c2ee391b3f4601f01,676192165fb32c2e1fb7aee6,67d1f41f93c04bc02fd4754f,2025-03-12_14h53.19.709,Tarea de decisión léxica,2024.2.5,MacIntel,60.24096386,,,,,,,,,,,,,,,,,,,,,,,116.426,118.1085,a,1,1.0092,1,118.1085,118.6083,,,,,,144,MAS,NOWORD,DIS,150,pezo,,la,,1.0092,,118.6084,118.6085,-0.225894097,-0.315039063,0,0,0,,0,9,9,143,1,pavo,,,,,
,,,,,,6140c26c2ee391b3f4601f01,676192165fb32c2e1fb7aee6,67d1f41f93c04bc02fd4754f,2025-03-12_14h53.19.709,Tarea de decisión léxica,2024.2.5,MacIntel,60.24096386,,,,,,,,,,,,,,,,,,,,,,,118.6094,119.8089,a,1,0.5338,1,119.8091,120.3087,,,,,,120,MAS,NOWORD,DIS,150,hooy,,la,,0.5338,,120.3087,120.3089,-0.225894097,-0.315039063,0,0,0,,0,10,10,119,1,pozo,,,,,
,,,,,,6140c26c2ee391b3f4601f01,676192165fb32c2e1fb7aee6,67d1f41f93c04bc02fd4754f,2025-03-12_14h53.19.709,Tarea de decisión léxica,2024.2.5,MacIntel,60.24096386,,,,,,,,,,,,,,,,,,,,,,,120.31,121.4753,a,1,0.4869,1,121.4753,121.9751,,,,,,110,MAS,NOWORD,AGR,150,suno,,el,,0.4869,,121.9763,121.9772,-0.225894097,-0.315039063,0,0,0,,0,11,11,109,1,rayo,,,,,
,,,,,,6140c26c2ee391b3f4601f01,676192165fb32c2e1fb7aee6,67d1f41f93c04bc02fd4754f,2025-03-12_14h53.19.709,Tarea de decisión léxica,2024.2.5,MacIntel,60.24096386,,,,,,,,,,,,,,,,,,,,,,,121.978,123.2751,l,1,0.6228,1,123.2752,123.775,,,,,,155,FEM,WORD,DIS,150,fuga,,el,,0.6228,,123.7751,123.7752,-0.225894097,-0.315039063,0,0,0,,0,12,12,154,1,luma,,,,,
,,,,,,6140c26c2ee391b3f4601f01,676192165fb32c2e1fb7aee6,67d1f41f93c04bc02fd4754f,2025-03-12_14h53.19.709,Tarea de decisión léxica,2024.2.5,MacIntel,60.24096386,,,,,,,,,,,,,,,,,,,,,,,123.7759,125.0751,l,1,0.6242,1,125.0752,125.575,,,,,,225,MAS,WORD,AGR,150,lodo,,el,,0.6242,,125.575,125.5751,-0.225894097,-0.315039063,0,0,0,,0,13,13,224,1,boco,,,,,
,,,,,,6140c26c2ee391b3f4601f01,676192165fb32c2e1fb7aee6,67d1f41f93c04bc02fd4754f,2025-03-12_14h53.19.709,Tarea de decisión léxica,2024.2.5,MacIntel,60.24096386,,,,,,,,,,,,,,,,,,,,,,,125.5759,126.7754,l,1,0.5226,1,126.7754,127.2752,,,,,,1,FEM,WORD,AGR,150,casa,,la,,0.5226,,127.2753,127.2753,-0.225894097,-0.315039063,0,0,0,,0,14,14,0,1,mada,,,,,
,,,,,,6140c26c2ee391b3f4601f01,676192165fb32c2e1fb7aee6,67d1f41f93c04bc02fd4754f,2025-03-12_14h53.19.709,Tarea de decisión léxica,2024.2.5,MacIntel,60.24096386,,,,,,,,,,,,,,,,,,,,,,,127.276,128.3752,a,1,0.4403,1,128.3752,128.8752,,,,,,350,MAS,NOWORD,AGR,150,cosir,,el,,0.4403,,128.8753,128.8754,-0.225894097,-0.315039063,0,0,0,,0,15,15,349,1,color,,,,,
,,,,,,6140c26c2ee391b3f4601f01,676192165fb32c2e1fb7aee6,67d1f41f93c04bc02fd4754f,2025-03-12_14h53.19.709,Tarea de decisión léxica,2024.2.5,MacIntel,60.24096386,,,,,,,,,,,,,,,,,,,,,,,128.8761,130.2598,l,1,0.7254,1,130.2599,130.7597,,,,,,233,FEM,WORD,AGR,150,lana,,la,,0.7254,,130.7606,130.7613,-0.225894097,-0.315039063,0,0,0,,0,16,16,232,1,fasa,,,,,
,,,,,,6140c26c2ee391b3f4601f01,676192165fb32c2e1fb7aee6,67d1f41f93c04bc02fd4754f,2025-03-12_14h53.19.709,Tarea de decisión léxica,2024.2.5,MacIntel,60.24096386,,,,,,,,,,,,,,,,,,,,,,,130.7619,131.9099,l,1,0.4731,1,131.9099,132.4099,,,,,,429,FEM,WORD,AGR,150,tarta,,la,,0.4731,,132.4099,132.41,-0.225894097,-0.315039063,0,0,0,,0,17,17,428,1,tenta,,,,,
,,,,,,6140c26c2ee391b3f4601f01,676192165fb32c2e1fb7aee6,67d1f41f93c04bc02fd4754f,2025-03-12_14h53.19.709,Tarea de decisión léxica,2024.2.5,MacIntel,60.24096386,,,,,,,,,,,,,,,,,,,,,,,132.411,133.8091,l,1,0.7208,1,133.8092,134.3089,,,,,,125,MAS,WORD,AGR,150,lujo,,el,,0.7208,,134.3089,134.309,-0.225894097,-0.315039063,0,0,0,,0,18,18,124,1,vudo,,,,,
,,,,,,6140c26c2ee391b3f4601f01,676192165fb32c2e1fb7aee6,67d1f41f93c04bc02fd4754f,2025-03-12_14h53.19.709,Tarea de decisión léxica,2024.2.5,MacIntel,60.24096386,,,,,,,,,,,,,,,,,,,,,,,134.3099,135.4426,a,1,0.4665,1,135.4427,135.9429,,,,,,12,MAS,NOWORD,DIS,150,bapo,,la,,0.4665,,135.943,135.943,-0.225894097,-0.315039063,0,0,0,,0,19,19,11,1,lado,,,,,
,,,,,,6140c26c2ee391b3f4601f01,676192165fb32c2e1fb7aee6,67d1f41f93c04bc02fd4754f,2025-03-12_14h53.19.709,Tarea de decisión léxica,2024.2.5,MacIntel,60.24096386,,,,,,,,,,,,,,,,,,,,,,,135.9441,137.0935,a,1,0.4752,1,137.0935,137.5936,,,,,,466,FEM,NOWORD,AGR,150,asuba,,la,,0.4752,,137.5936,137.5937,-0.225894097,-0.315039063,0,0,0,,0,20,20,465,1,aguja,,,,,
,,,,,,6140c26c2ee391b3f4601f01,676192165fb32c2e1fb7aee6,67d1f41f93c04bc02fd4754f,2025-03-12_14h53.19.709,Tarea de decisión léxica,2024.2.5,MacIntel,60.24096386,,,,,,,,,,,,,,,,,,,,,,,137.5945,138.7603,l,1,0.4872,1,138.7604,139.2599,,,,,,475,FEM,WORD,DIS,150,manta,,el,,0.4872,,139.2611,139.262,-0.225894097,-0.315039063,0,0,0,,0,21,21,474,1,mucta,,,,,
,,,,,,6140c26c2ee391b3f4601f01,676192165fb32c2e1fb7aee6,67d1f41f93c04bc02fd4754f,2025-03-12_14h53.19.709,Tarea de decisión léxica,2024.2.5,MacIntel,60.24096386,,,,,,,,,,,,,,,,,,,,,,,139.2626,140.4268,l,1,0.4922,1,140.4268,140.9272,,,,,,465,FEM,WORD,AGR,150,aguja,,la,,0.4922,,140.9273,140.9273,-0.225894097,-0.315039063,0,0,0,,0,22,22,464,1,asuba,,,,,
,,,,,,6140c26c2ee391b3f4601f01,676192165fb32c2e1fb7aee6,67d1f41f93c04bc02fd4754f,2025-03-12_14h53.19.709,Tarea de decisión léxica,2024.2.5,MacIntel,60.24096386,,,,,,,,,,,,,,,,,,,,,,,140.9285,142.0271,l,1,0.4263,1,142.0272,142.5263,,,,,,297,MAS,WORD,AGR,150,grupo,,el,,0.4263,,142.5263,142.5264,-0.225894097,-0.315039063,0,0,0,,0,23,23,296,1,brubo,,,,,
,,,,,,6140c26c2ee391b3f4601f01,676192165fb32c2e1fb7aee6,67d1f41f93c04bc02fd4754f,2025-03-12_14h53.19.709,Tarea de decisión léxica,2024.2.5,MacIntel,60.24096386,,,,,,,,,,,,,,,,,,,,,,,142.5273,143.5106,l,1,0.3231,1,143.5108,144.0104,,,,,,383,FEM,WORD,DIS,150,frase,,el,,0.3231,,144.0104,144.0105,-0.225894097,-0.315039063,0,0,0,,0,24,24,382,1,brame,,,,,
,,,,,,6140c26c2ee391b3f4601f01,676192165fb32c2e1fb7aee6,67d1f41f93c04bc02fd4754f,2025-03-12_14h53.19.709,Tarea de decisión léxica,2024.2.5,MacIntel,60.24096386,,,,,,,,,,,,,,,,,,,,,,,144.0116,145.6273,a,1,0.9425,1,145.6274,146.127,,,,,,426,FEM,NOWORD,AGR,150,virca,,la,,0.9425,,146.127,146.1271,-0.225894097,-0.315039063,0,0,0,,0,25,25,425,1,viuda,,,,,
,,,,,,6140c26c2ee391b3f4601f01,676192165fb32c2e1fb7aee6,67d1f41f93c04bc02fd4754f,2025-03-12_14h53.19.709,Tarea de decisión léxica,2024.2.5,MacIntel,60.24096386,,,,,,,,,,,,,,,,,,,,,,,146.1278,147.1775,l,1,0.3678,1,147.1776,147.677,,,,,,173,FEM,WORD,AGR,150,rosa,,la,,0.3678,,147.6781,147.6792,-0.225894097,-0.315039063,0,0,0,,0,26,26,172,1,boma,,,,,
,,,,,,6140c26c2ee391b3f4601f01,676192165fb32c2e1fb7aee6,67d1f41f93c04bc02fd4754f,2025-03-12_14h53.19.709,Tarea de decisión léxica,2024.2.5,MacIntel,60.24096386,,,,,,,,,,,,,,,,,,,,,,,147.68,148.8776,a,1,0.5246,1,148.8776,149.3777,,,,,,320,MAS,NOWORD,DIS,150,tuero,,la,,0.5246,,149.3778,149.3778,-0.225894097,-0.315039063,0,0,0,,0,27,27,319,1,suelo,,,,,
,,,,,,6140c26c2ee391b3f4601f01,676192165fb32c2e1fb7aee6,67d1f41f93c04bc02fd4754f,2025-03-12_14h53.19.709,Tarea de decisión léxica,2024.2.5,MacIntel,60.24096386,,,,,,,,,,,,,,,,,,,,,,,149.3787,150.6279,l,1,0.5691,1,150.628,151.1273,,,,,,261,MAS,WORD,AGR,150,sitio,,el,,0.5691,,151.1273,151.1274,-0.225894097,-0.315039063,0,0,0,,0,28,28,260,1,titio,,,,,
,,,,,,6140c26c2ee391b3f4601f01,676192165fb32c2e1fb7aee6,67d1f41f93c04bc02fd4754f,2025-03-12_14h53.19.709,Tarea de decisión léxica,2024.2.5,MacIntel,60.24096386,,,,,,,,,,,,,,,,,,,,,,,151.1284,152.294,l,1,0.4932,1,152.2941,152.7937,,,,,,113,FEM,WORD,AGR,150,miel,,la,,0.4932,,152.7938,152.794,-0.225894097,-0.315039063,0,0,0,,0,29,29,112,1,tada,,,,,
,,,,,,6140c26c2ee391b3f4601f01,676192165fb32c2e1fb7aee6,67d1f41f93c04bc02fd4754f,2025-03-12_14h53.19.709,Tarea de decisión léxica,2024.2.5,MacIntel,60.24096386,,,,,,,,,,,,,,,,,,,,,,,152.7949,153.877,a,1,0.4209,1,153.877,154.3771,,,,,,76,MAS,NOWORD,DIS,150,ocer,,la,,0.4209,,154.3772,154.3775,-0.225894097,-0.315039063,0,0,0,,0,30,30,75,1,olor,,,,,
,,,,,,6140c26c2ee391b3f4601f01,676192165fb32c2e1fb7aee6,67d1f41f93c04bc02fd4754f,2025-03-12_14h53.19.709,Tarea de decisión léxica,2024.2.5,MacIntel,60.24096386,,,,,,,,,,,,,,,,,,,,,,,154.3786,155.461,a,1,0.4093,1,155.461,155.9606,,,,,,212,FEM,NOWORD,DIS,150,joad,,el,,0.4093,,155.9617,155.9627,-0.225894097,-0.315039063,0,0,0,,0,31,31,211,1,joya,,,,,
,,,,,,6140c26c2ee391b3f4601f01,676192165fb32c2e1fb7aee6,67d1f41f93c04bc02fd4754f,2025-03-12_14h53.19.709,Tarea de decisión léxica,2024.2.5,MacIntel,60.24096386,,,,,,,,,,,,,,,,,,,,,,,155.9634,156.9943,l,1,0.3593,1,156.9943,157.495,,,,,,139,MAS,WORD,DIS,150,mago,,la,,0.3593,,157.4951,157.4952,-0.225894097,-0.315039063,0,0,0,,0,32,32,138,1,nila,,,,,
,,,,,,6140c26c2ee391b3f4601f01,676192165fb32c2e1fb7aee6,67d1f41f93c04bc02fd4754f,2025-03-12_14h53.19.709,Tarea de decisión léxica,2024.2.5,MacIntel,60.24096386,,,,,,,,,,,,,,,,,,,,,,,157.4964,158.6281,l,1,0.4545,1,158.6281,159.1283,,,,,,457,MAS,WORD,AGR,150,plato,,el,,0.4545,,159.1284,159.1285,-0.225894097,-0.315039063,0,0,0,,0,33,33,456,1,glaco,,,,,
,,,,,,6140c26c2ee391b3f4601f01,676192165fb32c2e1fb7aee6,67d1f41f93c04bc02fd4754f,2025-03-12_14h53.19.709,Tarea de decisión léxica,2024.2.5,MacIntel,60.24096386,,,,,,,,,,,,,,,,,,,,,,,159.1294,160.5612,a,1,0.7595,1,160.5613,161.0618,,,,,,276,MAS,NOWORD,DIS,150,musto,,la,,0.7595,,161.0618,161.062,-0.225894097,-0.315039063,0,0,0,,0,34,34,275,1,punto,,,,,
,,,,,,6140c26c2ee391b3f4601f01,676192165fb32c2e1fb7aee6,67d1f41f93c04bc02fd4754f,2025-03-12_14h53.19.709,Tarea de decisión léxica,2024.2.5,MacIntel,60.24096386,,,,,,,,,,,,,,,,,,,,,,,161.0628,162.1618,a,1,0.4248,1,162.1619,162.662,,,,,,90,MAS,NOWORD,AGR,150,guso,,el,,0.4248,,162.6636,162.6643,-0.225894097,-0.315039063,0,0,0,,0,35,35,89,1,humo,,,,,
,,,,,,6140c26c2ee391b3f4601f01,676192165fb32c2e1fb7aee6,67d1f41f93c04bc02fd4754f,2025-03-12_14h53.19.709,Tarea de decisión léxica,2024.2.5,MacIntel,60.24096386,,,,,,,,,,,,,,,,,,,,,,,162.6651,163.8611,l,1,0.5272,1,163.8612,164.362,,,,,,377,MAS,WORD,AGR,150,hielo,,el,,0.5272,,164.362,164.3622,-0.225894097,-0.315039063,0,0,0,,0,36,36,376,1,gaulo,,,,,
,,,,,,6140c26c2ee391b3f4601f01,676192165fb32c2e1fb7aee6,67d1f41f93c04bc02fd4754f,2025-03-12_14h53.19.709,Tarea de decisión léxica,2024.2.5,MacIntel,60.24096386,,,,,,,,,,,,,,,,,,,,,,,164.363,165.4454,a,1,0.4004,1,165.4455,165.9453,,,,,,38,MAS,NOWORD,AGR,150,gaco,,el,,0.4004,,165.9454,165.9455,-0.225894097,-0.315039063,0,0,0,,0,37,37,37,1,rato,,,,,
,,,,,,6140c26c2ee391b3f4601f01,676192165fb32c2e1fb7aee6,67d1f41f93c04bc02fd4754f,2025-03-12_14h53.19.709,Tarea de decisión léxica,2024.2.5,MacIntel,60.24096386,,,,,,,,,,,,,,,,,,,,,,,165.9466,167.1122,l,1,0.4902,1,167.1123,167.6123,,,,,,5,FEM,WORD,AGR,150,cosa,,la,,0.4902,,167.6123,167.6125,-0.225894097,-0.315039063,0,0,0,,0,38,38,4,1,poga,,,,,
,,,,,,6140c26c2ee391b3f4601f01,676192165fb32c2e1fb7aee6,67d1f41f93c04bc02fd4754f,2025-03-12_14h53.19.709,Tarea de decisión léxica,2024.2.5,MacIntel,60.24096386,,,,,,,,,,,,,,,,,,,,,,,167.6135,168.7624,a,1,0.4687,1,168.7625,169.2622,,,,,,432,MAS,NOWORD,DIS,150,tetor,,la,,0.4687,,169.2622,169.2623,-0.225894097,-0.315039063,0,0,0,,0,39,39,431,1,motor,,,,,
,,,,,,6140c26c2ee391b3f4601f01,676192165fb32c2e1fb7aee6,67d1f41f93c04bc02fd4754f,2025-03-12_14h53.19.709,Tarea de decisión léxica,2024.2.5,MacIntel,60.24096386,,,,,,,,,,,,,,,,,,,,,,,169.2636,170.3291,a,1,0.3848,1,170.3292,170.8292,,,,,,422,MAS,NOWORD,AGR,150,griso,,el,,0.3848,,170.8304,170.8312,-0.225894097,-0.315039063,0,0,0,,0,40,40,421,1,primo,,,,,
,,,,,,6140c26c2ee391b3f4601f01,676192165fb32c2e1fb7aee6,67d1f41f93c04bc02fd4754f,2025-03-12_14h53.19.709,Tarea de decisión léxica,2024.2.5,MacIntel,60.24096386,,,,,,,,,,,,,,,,,,,,,,,170.8318,171.9626,a,1,0.4577,1,171.9626,172.4626,,,,,,352,MAS,NOWORD,DIS,150,duepo,,la,,0.4577,,172.4627,172.4627,-0.225894097,-0.315039063,0,0,0,,0,41,41,351,1,vuelo,,,,,
,,,,,,6140c26c2ee391b3f4601f01,676192165fb32c2e1fb7aee6,67d1f41f93c04bc02fd4754f,2025-03-12_14h53.19.709,Tarea de decisión léxica,2024.2.5,MacIntel,60.24096386,,,,,,,,,,,,,,,,,,,,,,,172.4635,173.5961,l,1,0.4528,1,173.5962,174.0956,,,,,,445,MAS,WORD,AGR,150,actor,,el,,0.4528,,174.0957,174.0958,-0.225894097,-0.315039063,0,0,0,,0,42,42,444,1,ascor,,,,,
,,,,,,6140c26c2ee391b3f4601f01,676192165fb32c2e1fb7aee6,67d1f41f93c04bc02fd4754f,2025-03-12_14h53.19.709,Tarea de decisión léxica,2024.2.5,MacIntel,60.24096386,,,,,,,,,,,,,,,,,,,,,,,174.0975,175.1784,l,1,0.4117,1,175.1785,175.6794,,,,,,371,FEM,WORD,DIS,150,pasta,,el,,0.4117,,175.6795,175.6795,-0.225894097,-0.315039063,0,0,0,,0,43,43,370,1,mosta,,,,,
,,,,,,6140c26c2ee391b3f4601f01,676192165fb32c2e1fb7aee6,67d1f41f93c04bc02fd4754f,2025-03-12_14h53.19.709,Tarea de decisión léxica,2024.2.5,MacIntel,60.24096386,,,,,,,,,,,,,,,,,,,,,,,175.6804,176.7621,l,1,0.4034,1,176.7622,177.2627,,,,,,151,MAS,WORD,DIS,150,tomo,,la,,0.4034,,177.2627,177.2629,-0.225894097,-0.315039063,0,0,0,,0,44,44,150,1,sogo,,,,,
,,,,,,6140c26c2ee391b3f4601f01,676192165fb32c2e1fb7aee6,67d1f41f93c04bc02fd4754f,2025-03-12_14h53.19.709,Tarea de decisión léxica,2024.2.5,MacIntel,60.24096386,,,,,,,,,,,,,,,,,,,,,,,177.2637,178.396,a,1,0.4544,1,178.3961,178.8962,,,,,,54,FEM,NOWORD,AGR,150,rora,,la,,0.4544,,178.8971,178.8982,-0.225894097,-0.315039063,0,0,0,,0,45,45,53,1,boda,,,,,
,,,,,,6140c26c2ee391b3f4601f01,676192165fb32c2e1fb7aee6,67d1f41f93c04bc02fd4754f,2025-03-12_14h53.19.709,Tarea de decisión léxica,2024.2.5,MacIntel,60.24096386,,,,,,,,,,,,,,,,,,,,,,,178.899,179.9465,l,1,0.3745,1,179.9465,180.4456,,,,,,257,FEM,WORD,AGR,150,amiga,,la,,0.3745,,180.4457,180.4458,-0.225894097,-0.315039063,0,0,0,,0,46,46,256,1,asama,,,,,
,,,,,,6140c26c2ee391b3f4601f01,676192165fb32c2e1fb7aee6,67d1f41f93c04bc02fd4754f,2025-03-12_14h53.19.709,Tarea de decisión léxica,2024.2.5,MacIntel,60.24096386,,,,,,,,,,,,,,,,,,,,,,,180.4467,181.8297,l,1,0.7269,1,181.8298,182.3291,,,,,,395,FEM,WORD,DIS,150,caída,,el,,0.7269,,182.3292,182.3292,-0.225894097,-0.315039063,0,0,0,,0,47,47,394,1,paeda,,,,,
,,,,,,6140c26c2ee391b3f4601f01,676192165fb32c2e1fb7aee6,67d1f41f93c04bc02fd4754f,2025-03-12_14h53.19.709,Tarea de decisión léxica,2024.2.5,MacIntel,60.24096386,,,,,,,,,,,,,,,,,,,,,,,182.3301,183.4301,l,1,0.4194,1,183.4302,183.929,,,,,,263,FEM,WORD,DIS,150,vista,,el,,0.4194,,183.9291,183.9291,-0.225894097,-0.315039063,0,0,0,,0,48,48,262,1,dosta,,,,,
,,,,,,6140c26c2ee391b3f4601f01,676192165fb32c2e1fb7aee6,67d1f41f93c04bc02fd4754f,2025-03-12_14h53.19.709,Tarea de decisión léxica,2024.2.5,MacIntel,60.24096386,,,,,,,,,,,,,,,,,,,,,,,183.93,184.9462,a,1,0.3621,1,184.9463,185.4463,,,,,,128,MAS,NOWORD,DIS,150,itio,,la,,0.3621,,185.4463,185.4463,-0.225894097,-0.315039063,0,0,0,,0,49,49,127,1,pico,,,,,
,,,,,,6140c26c2ee391b3f4601f01,676192165fb32c2e1fb7aee6,67d1f41f93c04bc02fd4754f,2025-03-12_14h53.19.709,Tarea de decisión léxica,2024.2.5,MacIntel,60.24096386,,,,,,,,,,,,,,,,,,,,,,,185.4471,186.5469,a,1,0.42,1,186.547,187.047,,,,,,402,MAS,NOWORD,AGR,150,pirvo,,el,,0.42,,187.0479,187.0489,-0.225894097,-0.315039063,0,0,0,,0,50,50,401,1,polvo,,,,,
,,,,,,6140c26c2ee391b3f4601f01,676192165fb32c2e1fb7aee6,67d1f41f93c04bc02fd4754f,2025-03-12_14h53.19.709,Tarea de decisión léxica,2024.2.5,MacIntel,60.24096386,,,,,,,,,,,,,,,,,,,,,,,187.0495,188.1631,a,1,0.4357,1,188.1632,188.6637,,,,,,394,FEM,NOWORD,AGR,150,ashea,,la,,0.4357,,188.6638,188.6638,-0.225894097,-0.315039063,0,0,0,,0,51,51,393,1,aldea,,,,,
,,,,,,6140c26c2ee391b3f4601f01,676192165fb32c2e1fb7aee6,67d1f41f93c04bc02fd4754f,2025-03-12_14h53.19.709,Tarea de decisión léxica,2024.2.5,MacIntel,60.24096386,,,,,,,,,,,,,,,,,,,,,,,188.6648,189.8133,a,1,0.4751,1,189.8134,190.3138,,,,,,458,MAS,NOWORD,AGR,150,glaco,,el,,0.4751,,190.3139,190.314,-0.225894097,-0.315039063,0,0,0,,0,52,52,457,1,plato,,,,,
,,,,,,6140c26c2ee391b3f4601f01,676192165fb32c2e1fb7aee6,67d1f41f93c04bc02fd4754f,2025-03-12_14h53.19.709,Tarea de decisión léxica,2024.2.5,MacIntel,60.24096386,,,,,,,,,,,,,,,,,,,,,,,190.3149,191.6308,l,1,0.6452,1,191.6308,192.1306,,,,,,217,MAS,WORD,AGR,150,luto,,el,,0.6452,,192.1306,192.1307,-0.225894097,-0.315039063,0,0,0,,0,53,53,216,1,budo,,,,,
,,,,,,6140c26c2ee391b3f4601f01,676192165fb32c2e1fb7aee6,67d1f41f93c04bc02fd4754f,2025-03-12_14h53.19.709,Tarea de decisión léxica,2024.2.5,MacIntel,60.24096386,,,,,,,,,,,,,,,,,,,,,,,192.1315,193.2134,a,1,0.404,1,193.2135,193.7141,,,,,,446,MAS,NOWORD,AGR,150,ascor,,el,,0.404,,193.7142,193.7143,-0.225894097,-0.315039063,0,0,0,,0,54,54,445,1,actor,,,,,
,,,,,,6140c26c2ee391b3f4601f01,676192165fb32c2e1fb7aee6,67d1f41f93c04bc02fd4754f,2025-03-12_14h53.19.709,Tarea de decisión léxica,2024.2.5,MacIntel,60.24096386,,,,,,,,,,,,,,,,,,,,,,,193.7153,194.8466,a,1,0.4573,1,194.8467,195.3466,,,,,,408,FEM,NOWORD,DIS,150,cauba,,el,,0.4573,,195.3474,195.3482,-0.225894097,-0.315039063,0,0,0,,0,55,55,407,1,cueva,,,,,
,,,,,,6140c26c2ee391b3f4601f01,676192165fb32c2e1fb7aee6,67d1f41f93c04bc02fd4754f,2025-03-12_14h53.19.709,Tarea de decisión léxica,2024.2.5,MacIntel,60.24096386,,,,,,,,,,,,,,,,,,,,,,,195.3491,196.5803,l,1,0.5503,1,196.5804,197.0801,,,,,,185,MAS,WORD,AGR,150,baúl,,el,,0.5503,,197.0802,197.0802,-0.225894097,-0.315039063,0,0,0,,0,56,56,184,1,raol,,,,,
,,,,,,6140c26c2ee391b3f4601f01,676192165fb32c2e1fb7aee6,67d1f41f93c04bc02fd4754f,2025-03-12_14h53.19.709,Tarea de decisión léxica,2024.2.5,MacIntel,60.24096386,,,,,,,,,,,,,,,,,,,,,,,197.0811,198.1139,a,1,0.367,1,198.114,198.6138,,,,,,150,MAS,NOWORD,AGR,150,pafo,,el,,0.367,,198.6138,198.614,-0.225894097,-0.315039063,0,0,0,,0,57,57,149,1,cabo,,,,,
,,,,,,6140c26c2ee391b3f4601f01,676192165fb32c2e1fb7aee6,67d1f41f93c04bc02fd4754f,2025-03-12_14h53.19.709,Tarea de decisión léxica,2024.2.5,MacIntel,60.24096386,,,,,,,,,,,,,,,,,,,,,,,198.6148,199.7147,l,1,0.4212,1,199.7147,200.2143,,,,,,145,MAS,WORD,AGR,150,león,,el,,0.4212,,200.2144,200.2145,-0.225894097,-0.315039063,0,0,0,,0,58,58,144,1,nobo,,,,,
,,,,,,6140c26c2ee391b3f4601f01,676192165fb32c2e1fb7aee6,67d1f41f93c04bc02fd4754f,2025-03-12_14h53.19.709,Tarea de decisión léxica,2024.2.5,MacIntel,60.24096386,,,,,,,,,,,,,,,,,,,,,,,200.2155,201.2475,a,1,0.361,1,201.2475,201.7475,,,,,,160,MAS,NOWORD,DIS,150,bilo,,la,,0.361,,201.7486,201.7496,-0.225894097,-0.315039063,0,0,0,,0,59,59,159,1,giro,,,,,
,,,,,,6140c26c2ee391b3f4601f01,676192165fb32c2e1fb7aee6,67d1f41f93c04bc02fd4754f,2025-03-12_14h53.19.709,Tarea de decisión léxica,2024.2.5,MacIntel,60.24096386,,,,,,,,,,,,,,,,,,,,,,,201.7503,202.9482,l,1,0.5055,1,202.9483,203.4477,,,,,,193,FEM,WORD,AGR,150,loca,,la,,0.5055,,203.4477,203.4478,-0.225894097,-0.315039063,0,0,0,,0,60,60,192,1,foda,,,,,
,,,,,,6140c26c2ee391b3f4601f01,676192165fb32c2e1fb7aee6,67d1f41f93c04bc02fd4754f,2025-03-12_14h53.19.709,Tarea de decisión léxica,2024.2.5,MacIntel,60.24096386,,,,,,,,,,,,,,,,,,,,,,,203.4485,204.6473,l,0,0.5071,0,204.648,205.1484,,,,,,64,FEM,NOWORD,DIS,150,funa,,el,,0.5071,,205.1484,205.1484,-0.225894097,-0.315039063,0,0,0,,0,61,61,63,1,luna,,,,,
,,,,,,6140c26c2ee391b3f4601f01,676192165fb32c2e1fb7aee6,67d1f41f93c04bc02fd4754f,2025-03-12_14h53.19.709,Tarea de decisión léxica,2024.2.5,MacIntel,60.24096386,,,,,,,,,,,,,,,,,,,,,,,205.1495,206.448,l,1,0.6042,1,206.449,206.948,,,,,,31,FEM,WORD,DIS,150,ropa,,el,,0.6042,,206.9481,206.9482,-0.225894097,-0.315039063,0,0,0,,0,62,62,30,1,bova,,,,,
,,,,,,6140c26c2ee391b3f4601f01,676192165fb32c2e1fb7aee6,67d1f41f93c04bc02fd4754f,2025-03-12_14h53.19.709,Tarea de decisión léxica,2024.2.5,MacIntel,60.24096386,,,,,,,,,,,,,,,,,,,,,,,206.9494,208.0818,a,1,0.4355,1,208.082,208.5819,,,,,,112,MAS,NOWORD,DIS,150,siro,,la,,0.4355,,208.5819,208.5821,-0.225894097,-0.315039063,0,0,0,,0,63,63,111,1,muro,,,,,
,,,,,,6140c26c2ee391b3f4601f01,676192165fb32c2e1fb7aee6,67d1f41f93c04bc02fd4754f,2025-03-12_14h53.19.709,Tarea de decisión léxica,2024.2.5,MacIntel,60.24096386,,,,,,,,,,,,,,,,,,,,,,,208.5832,209.6811,l,1,0.4005,1,209.6812,210.1814,,,,,,327,MAS,WORD,DIS,150,fondo,,la,,0.4005,,210.1826,210.1835,-0.225894097,-0.315039063,0,0,0,,0,64,64,326,1,lendo,,,,,
,,,,,,6140c26c2ee391b3f4601f01,676192165fb32c2e1fb7aee6,67d1f41f93c04bc02fd4754f,2025-03-12_14h53.19.709,Tarea de decisión léxica,2024.2.5,MacIntel,60.24096386,,,,,,,,,,,,,,,,,,,,,,,210.1844,211.3482,a,1,0.4698,1,211.3483,211.8487,,,,,,364,FEM,NOWORD,DIS,150,veida,,el,,0.4698,,211.8487,211.8488,-0.225894097,-0.315039063,0,0,0,,0,65,65,363,1,deuda,,,,,
,,,,,,6140c26c2ee391b3f4601f01,676192165fb32c2e1fb7aee6,67d1f41f93c04bc02fd4754f,2025-03-12_14h53.19.709,Tarea de decisión léxica,2024.2.5,MacIntel,60.24096386,,,,,,,,,,,,,,,,,,,,,,,211.8498,212.9821,l,1,0.4548,1,212.9822,213.4822,,,,,,281,MAS,WORD,AGR,150,cielo,,el,,0.4548,,213.4823,213.4823,-0.225894097,-0.315039063,0,0,0,,0,66,66,280,1,cauro,,,,,
,,,,,,6140c26c2ee391b3f4601f01,676192165fb32c2e1fb7aee6,67d1f41f93c04bc02fd4754f,2025-03-12_14h53.19.709,Tarea de decisión léxica,2024.2.5,MacIntel,60.24096386,,,,,,,,,,,,,,,,,,,,,,,213.483,214.8486,a,1,0.6878,1,214.8487,215.3482,,,,,,258,FEM,NOWORD,AGR,150,asama,,la,,0.6878,,215.3483,215.3484,-0.225894097,-0.315039063,0,0,0,,0,67,67,257,1,amiga,,,,,
,,,,,,6140c26c2ee391b3f4601f01,676192165fb32c2e1fb7aee6,67d1f41f93c04bc02fd4754f,2025-03-12_14h53.19.709,Tarea de decisión léxica,2024.2.5,MacIntel,60.24096386,,,,,,,,,,,,,,,,,,,,,,,215.3493,216.4159,l,1,0.3674,1,216.416,216.9152,,,,,,95,FEM,WORD,DIS,151,moda,,el,,0.3674,,216.9152,216.9153,-0.225894097,-0.315039063,0,0,0,,0,68,68,94,1,neda,,,,,
,,,,,,6140c26c2ee391b3f4601f01,676192165fb32c2e1fb7aee6,67d1f41f93c04bc02fd4754f,2025-03-12_14h53.19.709,Tarea de decisión léxica,2024.2.5,MacIntel,60.24096386,,,,,,,,,,,,,,,,,,,,,,,216.9165,218.149,a,1,0.5592,1,218.1492,218.6492,,,,,,236,FEM,NOWORD,DIS,150,tria,,el,,0.5592,,218.6502,218.6513,-0.225894097,-0.315039063,0,0,0,,0,69,69,235,1,grúa,,,,,
,,,,,,6140c26c2ee391b3f4601f01,676192165fb32c2e1fb7aee6,67d1f41f93c04bc02fd4754f,2025-03-12_14h53.19.709,Tarea de decisión léxica,2024.2.5,MacIntel,60.24096386,,,,,,,,,,,,,,,,,,,,,,,218.652,219.8158,a,1,0.4886,1,219.8159,220.316,,,,,,260,MAS,NOWORD,DIS,150,jaumo,,la,,0.4886,,220.316,220.3162,-0.225894097,-0.315039063,0,0,0,,0,70,70,259,1,juego,,,,,
,,,,,,6140c26c2ee391b3f4601f01,676192165fb32c2e1fb7aee6,67d1f41f93c04bc02fd4754f,2025-03-12_14h53.19.709,Tarea de decisión léxica,2024.2.5,MacIntel,60.24096386,,,,,,,,,,,,,,,,,,,,,,,220.3173,221.5826,a,1,0.5762,1,221.5827,222.0827,,,,,,254,MAS,NOWORD,AGR,150,trido,,el,,0.5762,,222.0828,222.0829,-0.225894097,-0.315039063,0,0,0,,0,71,71,253,1,chico,,,,,
,,,,,,6140c26c2ee391b3f4601f01,676192165fb32c2e1fb7aee6,67d1f41f93c04bc02fd4754f,2025-03-12_14h53.19.709,Tarea de decisión léxica,2024.2.5,MacIntel,60.24096386,,,,,,,,,,,,,,,,,,,,,,,222.0837,223.2151,l,1,0.4526,1,223.2152,223.7163,,,,,,347,FEM,WORD,DIS,150,pieza,,el,,0.4526,,223.7163,223.7163,-0.225894097,-0.315039063,0,0,0,,0,72,72,346,1,mueza,,,,,
,,,,,,6140c26c2ee391b3f4601f01,676192165fb32c2e1fb7aee6,67d1f41f93c04bc02fd4754f,2025-03-12_14h53.19.709,Tarea de decisión léxica,2024.2.5,MacIntel,60.24096386,,,,,,,,,,,,,,,,,,,,,,,223.7173,224.7825,a,1,0.3689,1,224.7825,225.2829,,,,,,182,FEM,NOWORD,AGR,150,teda,,la,,0.3689,,225.2829,225.283,-0.225894097,-0.315039063,0,0,0,,0,73,73,181,1,seda,,,,,
,,,,,,6140c26c2ee391b3f4601f01,676192165fb32c2e1fb7aee6,67d1f41f93c04bc02fd4754f,2025-03-12_14h53.19.709,Tarea de decisión léxica,2024.2.5,MacIntel,60.24096386,,,,,,,,,,,,,,,,,,,,,,,225.2838,226.5495,a,1,0.5914,1,226.5496,227.0497,,,,,,290,FEM,NOWORD,AGR,150,bumpa,,la,,0.5914,,227.051,227.0517,-0.225894097,-0.315039063,0,0,0,,0,74,74,289,1,bomba,,,,,
,,,,,,6140c26c2ee391b3f4601f01,676192165fb32c2e1fb7aee6,67d1f41f93c04bc02fd4754f,2025-03-12_14h53.19.709,Tarea de decisión léxica,2024.2.5,MacIntel,60.24096386,,,,,,,,,,,,,,,,,,,,,,,227.0526,228.3491,l,1,0.6023,1,228.3493,228.85,,,,,,471,FEM,WORD,DIS,150,grasa,,el,,0.6023,,228.85,228.8501,-0.225894097,-0.315039063,0,0,0,,0,75,75,470,1,prana,,,,,
,,,,,,6140c26c2ee391b3f4601f01,676192165fb32c2e1fb7aee6,67d1f41f93c04bc02fd4754f,2025-03-12_14h53.19.709,Tarea de decisión léxica,2024.2.5,MacIntel,60.24096386,,,,,,,,,,,,,,,,,,,,,,,228.8511,229.95,a,1,0.4099,1,229.9501,230.45,,,,,,18,FEM,NOWORD,AGR,150,paba,,la,,0.4099,,230.4501,230.4502,-0.225894097,-0.315039063,0,0,0,,0,76,76,17,1,mamá,,,,,
,,,,,,6140c26c2ee391b3f4601f01,676192165fb32c2e1fb7aee6,67d1f41f93c04bc02fd4754f,2025-03-12_14h53.19.709,Tarea de decisión léxica,2024.2.5,MacIntel,60.24096386,,,,,,,,,,,,,,,,,,,,,,,230.4511,231.5825,l,1,0.4406,1,231.5825,232.0835,,,,,,49,FEM,WORD,AGR,150,edad,,la,,0.4406,,232.0835,232.0836,-0.225894097,-0.315039063,0,0,0,,0,77,77,48,1,ecat,,,,,
,,,,,,6140c26c2ee391b3f4601f01,676192165fb32c2e1fb7aee6,67d1f41f93c04bc02fd4754f,2025-03-12_14h53.19.709,Tarea de decisión léxica,2024.2.5,MacIntel,60.24096386,,,,,,,,,,,,,,,,,,,,,,,232.0846,233.1499,a,1,0.3695,1,233.15,233.6502,,,,,,234,FEM,NOWORD,AGR,150,fasa,,la,,0.3695,,233.6502,233.6503,-0.225894097,-0.315039063,0,0,0,,0,78,78,233,1,lana,,,,,
,,,,,,6140c26c2ee391b3f4601f01,676192165fb32c2e1fb7aee6,67d1f41f93c04bc02fd4754f,2025-03-12_14h53.19.709,Tarea de decisión léxica,2024.2.5,MacIntel,60.24096386,,,,,,,,,,,,,,,,,,,,,,,233.6515,234.817,l,1,0.4834,1,234.817,235.3172,,,,,,275,MAS,WORD,DIS,150,punto,,la,,0.4834,,235.3185,235.3192,-0.225894097,-0.315039063,0,0,0,,0,79,79,274,1,musto,,,,,
,,,,,,6140c26c2ee391b3f4601f01,676192165fb32c2e1fb7aee6,67d1f41f93c04bc02fd4754f,2025-03-12_14h53.19.709,Tarea de decisión léxica,2024.2.5,MacIntel,60.24096386,,,,,,,,,,,,,,,,,,,,,,,235.32,236.4839,l,1,0.4757,1,236.484,236.9831,,,,,,301,FEM,WORD,AGR,150,banda,,la,,0.4757,,236.9833,236.9833,-0.225894097,-0.315039063,0,0,0,,0,80,80,300,1,ranga,,,,,
,,,,,,6140c26c2ee391b3f4601f01,676192165fb32c2e1fb7aee6,67d1f41f93c04bc02fd4754f,2025-03-12_14h53.19.709,Tarea de decisión léxica,2024.2.5,MacIntel,60.24096386,,,,,,,,,,,,,,,,,,,,,,,236.9845,238.0831,a,1,0.4031,1,238.0833,238.5835,,,,,,314,MAS,NOWORD,AGR,150,govio,,el,,0.4031,,238.5835,238.5836,-0.225894097,-0.315039063,0,0,0,,0,81,81,313,1,novio,,,,,
,,,,,,6140c26c2ee391b3f4601f01,676192165fb32c2e1fb7aee6,67d1f41f93c04bc02fd4754f,2025-03-12_14h53.19.709,Tarea de decisión léxica,2024.2.5,MacIntel,60.24096386,,,,,,,,,,,,,,,,,,,,,,,238.5846,239.8508,a,1,0.5701,1,239.8509,240.3499,,,,,,280,FEM,NOWORD,DIS,150,grina,,el,,0.5701,,240.3499,240.35,-0.225894097,-0.315039063,0,0,0,,0,82,82,279,1,prisa,,,,,
,,,,,,6140c26c2ee391b3f4601f01,676192165fb32c2e1fb7aee6,67d1f41f93c04bc02fd4754f,2025-03-12_14h53.19.709,Tarea de decisión léxica,2024.2.5,MacIntel,60.24096386,,,,,,,,,,,,,,,,,,,,,,,240.3507,241.6171,l,1,0.5865,1,241.6172,242.1173,,,,,,345,FEM,WORD,AGR,150,arena,,la,,0.5865,,242.1185,242.1196,-0.225894097,-0.315039063,0,0,0,,0,83,83,344,1,anera,,,,,
,,,,,,6140c26c2ee391b3f4601f01,676192165fb32c2e1fb7aee6,67d1f41f93c04bc02fd4754f,2025-03-12_14h53.19.709,Tarea de decisión léxica,2024.2.5,MacIntel,60.24096386,,,,,,,,,,,,,,,,,,,,,,,242.1204,243.1509,a,1,0.3572,1,243.1511,243.6509,,,,,,360,MAS,NOWORD,DIS,150,cacer,,la,,0.3572,,243.651,243.651,-0.225894097,-0.315039063,0,0,0,,0,84,84,359,1,calor,,,,,
,,,,,,6140c26c2ee391b3f4601f01,676192165fb32c2e1fb7aee6,67d1f41f93c04bc02fd4754f,2025-03-12_14h53.19.709,Tarea de decisión léxica,2024.2.5,MacIntel,60.24096386,,,,,,,,,,,,,,,,,,,,,,,243.6521,244.6508,a,1,0.3123,1,244.651,245.1507,,,,,,198,MAS,NOWORD,AGR,150,dade,,el,,0.3123,,245.1508,245.1509,-0.225894097,-0.315039063,0,0,0,,0,85,85,197,1,bate,,,,,
,,,,,,6140c26c2ee391b3f4601f01,676192165fb32c2e1fb7aee6,67d1f41f93c04bc02fd4754f,2025-03-12_14h53.19.709,Tarea de decisión léxica,2024.2.5,MacIntel,60.24096386,,,,,,,,,,,,,,,,,,,,,,,245.1519,246.1502,l,1,0.3198,1,246.1504,246.6511,,,,,,255,MAS,WORD,DIS,150,miedo,,la,,0.3198,,246.6512,246.6512,-0.225894097,-0.315039063,0,0,0,,0,86,86,254,1,mauco,,,,,
,,,,,,6140c26c2ee391b3f4601f01,676192165fb32c2e1fb7aee6,67d1f41f93c04bc02fd4754f,2025-03-12_14h53.19.709,Tarea de decisión léxica,2024.2.5,MacIntel,60.24096386,,,,,,,,,,,,,,,,,,,,,,,246.6523,247.7169,a,1,0.3756,1,247.7169,248.2168,,,,,,252,MAS,NOWORD,DIS,150,refor,,la,,0.3756,,248.2168,248.2169,-0.225894097,-0.315039063,0,0,0,,0,87,87,251,1,señor,,,,,
,,,,,,6140c26c2ee391b3f4601f01,676192165fb32c2e1fb7aee6,67d1f41f93c04bc02fd4754f,2025-03-12_14h53.19.709,Tarea de decisión léxica,2024.2.5,MacIntel,60.24096386,,,,,,,,,,,,,,,,,,,,,,,248.2177,249.3508,l,1,0.4443,1,249.3509,249.8507,,,,,,271,FEM,WORD,DIS,150,señal,,el,,0.4443,,249.8517,249.853,-0.225894097,-0.315039063,0,0,0,,0,88,88,270,1,refal,,,,,
,,,,,,6140c26c2ee391b3f4601f01,676192165fb32c2e1fb7aee6,67d1f41f93c04bc02fd4754f,2025-03-12_14h53.19.709,Tarea de decisión léxica,2024.2.5,MacIntel,60.24096386,,,,,,,,,,,,,,,,,,,,,,,249.8536,251.0849,l,1,0.5352,1,251.0849,251.5848,,,,,,363,FEM,WORD,DIS,150,deuda,,el,,0.5352,,251.5849,251.5851,-0.225894097,-0.315039063,0,0,0,,0,89,89,362,1,veida,,,,,
,,,,,,6140c26c2ee391b3f4601f01,676192165fb32c2e1fb7aee6,67d1f41f93c04bc02fd4754f,2025-03-12_14h53.19.709,Tarea de decisión léxica,2024.2.5,MacIntel,60.24096386,,,,,,,,,,,,,,,,,,,,,,,251.5862,252.6849,l,1,0.4077,1,252.6849,253.1848,,,,,,385,FEM,WORD,AGR,150,letra,,la,,0.4077,,253.1849,253.185,-0.225894097,-0.315039063,0,0,0,,0,90,90,384,1,febra,,,,,
,,,,,,6140c26c2ee391b3f4601f01,676192165fb32c2e1fb7aee6,67d1f41f93c04bc02fd4754f,2025-03-12_14h53.19.709,Tarea de decisión léxica,2024.2.5,MacIntel,60.24096386,,,,,,,,,,,,,,,,,,,,,,,253.186,254.285,l,1,0.414,1,254.2851,254.7847,,,,,,237,MAS,WORD,AGR,150,nudo,,el,,0.414,,254.7847,254.7849,-0.225894097,-0.315039063,0,0,0,,0,91,91,236,1,huco,,,,,
,,,,,,6140c26c2ee391b3f4601f01,676192165fb32c2e1fb7aee6,67d1f41f93c04bc02fd4754f,2025-03-12_14h53.19.709,Tarea de decisión léxica,2024.2.5,MacIntel,60.24096386,,,,,,,,,,,,,,,,,,,,,,,254.7859,255.9851,a,1,0.5256,1,255.9852,256.4851,,,,,,92,FEM,NOWORD,DIS,150,sava,,el,,0.5256,,256.4852,256.4853,-0.225894097,-0.315039063,0,0,0,,0,92,92,91,1,taza,,,,,
,,,,,,6140c26c2ee391b3f4601f01,676192165fb32c2e1fb7aee6,67d1f41f93c04bc02fd4754f,2025-03-12_14h53.19.709,Tarea de decisión léxica,2024.2.5,MacIntel,60.24096386,,,,,,,,,,,,,,,,,,,,,,,256.4861,258.3513,l,1,1.1692,1,258.3514,258.852,,,,,,413,FEM,WORD,AGR,150,rueda,,la,,1.1692,,258.8531,258.8544,-0.225894097,-0.315039063,0,0,0,,0,93,93,412,1,bieda,,,,,
,,,,,,6140c26c2ee391b3f4601f01,676192165fb32c2e1fb7aee6,67d1f41f93c04bc02fd4754f,2025-03-12_14h53.19.709,Tarea de decisión léxica,2024.2.5,MacIntel,60.24096386,,,,,,,,,,,,,,,,,,,,,,,258.8552,259.9517,a,1,0.4142,1,259.9518,260.4522,,,,,,210,MAS,NOWORD,AGR,150,dero,,el,,0.4142,,260.4523,260.4524,-0.225894097,-0.315039063,0,0,0,,0,94,94,209,1,velo,,,,,
,,,,,,6140c26c2ee391b3f4601f01,676192165fb32c2e1fb7aee6,67d1f41f93c04bc02fd4754f,2025-03-12_14h53.19.709,Tarea de decisión léxica,2024.2.5,MacIntel,60.24096386,,,,,,,,,,,,,,,,,,,,,,,260.4534,261.5513,l,1,0.4072,1,261.5514,262.0522,,,,,,81,FEM,WORD,AGR,150,dama,,la,,0.4072,,262.0522,262.0523,-0.225894097,-0.315039063,0,0,0,,0,95,95,80,1,vasa,,,,,
,,,,,,6140c26c2ee391b3f4601f01,676192165fb32c2e1fb7aee6,67d1f41f93c04bc02fd4754f,2025-03-12_14h53.19.709,Tarea de decisión léxica,2024.2.5,MacIntel,60.24096386,,,,,,,,,,,,,,,,,,,,,,,262.0533,263.1189,l,1,0.3708,1,263.119,263.6189,,,,,,317,FEM,WORD,AGR,150,playa,,la,,0.3708,,263.6189,263.6191,-0.225894097,-0.315039063,0,0,0,,0,96,96,316,1,plaad,,,,,
,,,,,,6140c26c2ee391b3f4601f01,676192165fb32c2e1fb7aee6,67d1f41f93c04bc02fd4754f,2025-03-12_14h53.19.709,Tarea de decisión léxica,2024.2.5,MacIntel,60.24096386,,,,,,,,,,,,,,,,,,,,,,,263.6201,264.7192,l,1,0.4004,1,264.7192,265.2186,,,,,,467,MAS,WORD,DIS,150,piano,,la,,0.4004,,265.2187,265.2187,-0.225894097,-0.315039063,0,0,0,,0,97,97,466,1,peiso,,,,,
,,,,,,6140c26c2ee391b3f4601f01,676192165fb32c2e1fb7aee6,67d1f41f93c04bc02fd4754f,2025-03-12_14h53.19.709,Tarea de decisión léxica,2024.2.5,MacIntel,60.24096386,,,,,,,,,,,,,,,,,,,,,,,265.2198,266.3516,a,1,0.4493,1,266.3517,266.8525,,,,,,142,FEM,NOWORD,AGR,150,sina,,la,,0.4493,,266.8536,266.8545,-0.225894097,-0.315039063,0,0,0,,0,98,98,141,1,cruz,,,,,
,,,,,,6140c26c2ee391b3f4601f01,676192165fb32c2e1fb7aee6,67d1f41f93c04bc02fd4754f,2025-03-12_14h53.19.709,Tarea de decisión léxica,2024.2.5,MacIntel,60.24096386,,,,,,,,,,,,,,,,,,,,,,,266.8553,267.9859,l,1,0.4339,1,267.986,268.4859,,,,,,45,FEM,WORD,AGR,150,mesa,,la,,0.4339,,268.486,268.486,-0.225894097,-0.315039063,0,0,0,,0,99,99,44,1,pema,,,,,
,,,,,,6140c26c2ee391b3f4601f01,676192165fb32c2e1fb7aee6,67d1f41f93c04bc02fd4754f,2025-03-12_14h53.19.709,Tarea de decisión léxica,2024.2.5,MacIntel,60.24096386,,,,,,,,,,,,,,,,,,,,,,,268.4873,269.5194,l,1,0.345,1,269.5194,270.0192,,,,,,421,MAS,WORD,AGR,150,primo,,el,,0.345,,270.0193,270.0194,-0.225894097,-0.315039063,0,0,0,,0,100,100,420,1,griso,,,,,
,,,,,,6140c26c2ee391b3f4601f01,676192165fb32c2e1fb7aee6,67d1f41f93c04bc02fd4754f,2025-03-12_14h53.19.709,Tarea de decisión léxica,2024.2.5,MacIntel,60.24096386,,,,,,,,,,,,,,,,,,,,,,,270.0204,271.0856,l,1,0.3868,1,271.0856,271.5864,,,,,,61,FEM,WORD,AGR,150,obra,,la,,0.3868,,271.5864,271.5866,-0.225894097,-0.315039063,0,0,0,,0,101,101,60,1,efla,,,,,
,,,,,,6140c26c2ee391b3f4601f01,676192165fb32c2e1fb7aee6,67d1f41f93c04bc02fd4754f,2025-03-12_14h53.19.709,Tarea de decisión léxica,2024.2.5,MacIntel,60.24096386,,,,,,,,,,,,,,,,,,,,,,,271.5876,272.6187,l,1,0.3512,1,272.6188,273.1191,,,,,,273,FEM,WORD,AGR,150,broma,,la,,0.3512,,273.1192,273.1192,-0.225894097,-0.315039063,0,0,0,,0,102,102,272,1,frosa,,,,,
,,,,,,6140c26c2ee391b3f4601f01,676192165fb32c2e1fb7aee6,67d1f41f93c04bc02fd4754f,2025-03-12_14h53.19.709,Tarea de decisión léxica,2024.2.5,MacIntel,60.24096386,,,,,,,,,,,,,,,,,,,,,,,273.1203,274.3531,a,1,0.5412,1,274.3531,274.853,,,,,,336,FEM,NOWORD,DIS,150,pesta,,el,,0.5412,,274.8543,274.8553,-0.225894097,-0.315039063,0,0,0,,0,103,103,335,1,costa,,,,,
,,,,,,6140c26c2ee391b3f4601f01,676192165fb32c2e1fb7aee6,67d1f41f93c04bc02fd4754f,2025-03-12_14h53.19.709,Tarea de decisión léxica,2024.2.5,MacIntel,60.24096386,,,,,,,,,,,,,,,,,,,,,,,274.856,276.0521,a,1,0.5069,1,276.0522,276.5532,,,,,,478,MAS,NOWORD,AGR,150,hocon,,el,,0.5069,,276.5533,276.5533,-0.225894097,-0.315039063,0,0,0,,0,104,104,477,1,botón,,,,,
,,,,,,6140c26c2ee391b3f4601f01,676192165fb32c2e1fb7aee6,67d1f41f93c04bc02fd4754f,2025-03-12_14h53.19.709,Tarea de decisión léxica,2024.2.5,MacIntel,60.24096386,,,,,,,,,,,,,,,,,,,,,,,276.5542,277.8193,a,1,0.5784,1,277.8193,278.3199,,,,,,370,MAS,NOWORD,AGR,150,rioco,,el,,0.5784,,278.32,278.3201,-0.225894097,-0.315039063,0,0,0,,0,105,105,369,1,ruido,,,,,
,,,,,,6140c26c2ee391b3f4601f01,676192165fb32c2e1fb7aee6,67d1f41f93c04bc02fd4754f,2025-03-12_14h53.19.709,Tarea de decisión léxica,2024.2.5,MacIntel,60.24096386,,,,,,,,,,,,,,,,,,,,,,,278.321,279.5526,a,1,0.5336,1,279.5527,280.0534,,,,,,72,FEM,NOWORD,DIS,150,urla,,el,,0.5336,,280.0535,280.0536,-0.225894097,-0.315039063,0,0,0,,0,106,106,71,1,isla,,,,,
,,,,,,6140c26c2ee391b3f4601f01,676192165fb32c2e1fb7aee6,67d1f41f93c04bc02fd4754f,2025-03-12_14h53.19.709,Tarea de decisión léxica,2024.2.5,MacIntel,60.24096386,,,,,,,,,,,,,,,,,,,,,,,280.0548,281.1534,a,1,0.4067,1,281.1535,281.6535,,,,,,342,MAS,NOWORD,AGR,150,daror,,el,,0.4067,,281.6551,281.656,-0.225894097,-0.315039063,0,0,0,,0,107,107,341,1,valor,,,,,
,,,,,,6140c26c2ee391b3f4601f01,676192165fb32c2e1fb7aee6,67d1f41f93c04bc02fd4754f,2025-03-12_14h53.19.709,Tarea de decisión léxica,2024.2.5,MacIntel,60.24096386,,,,,,,,,,,,,,,,,,,,,,,281.6568,282.7534,l,1,0.4,1,282.7534,283.2526,,,,,,167,FEM,WORD,DIS,150,jefa,,el,,0.4,,283.2527,283.2528,-0.225894097,-0.315039063,0,0,0,,0,108,108,166,1,zifa,,,,,
,,,,,,6140c26c2ee391b3f4601f01,676192165fb32c2e1fb7aee6,67d1f41f93c04bc02fd4754f,2025-03-12_14h53.19.709,Tarea de decisión léxica,2024.2.5,MacIntel,60.24096386,,,,,,,,,,,,,,,,,,,,,,,283.2538,284.3203,l,1,0.3723,1,284.3205,284.8196,,,,,,305,MAS,WORD,AGR,150,avión,,el,,0.3723,,284.8197,284.8197,-0.225894097,-0.315039063,0,0,0,,0,109,109,304,1,adiol,,,,,
,,,,,,6140c26c2ee391b3f4601f01,676192165fb32c2e1fb7aee6,67d1f41f93c04bc02fd4754f,2025-03-12_14h53.19.709,Tarea de decisión léxica,2024.2.5,MacIntel,60.24096386,,,,,,,,,,,,,,,,,,,,,,,284.8207,285.8539,l,1,0.3344,1,285.854,286.3539,,,,,,387,FEM,WORD,DIS,150,crema,,el,,0.3344,,286.354,286.3542,-0.225894097,-0.315039063,0,0,0,,0,110,110,386,1,bresa,,,,,
,,,,,,6140c26c2ee391b3f4601f01,676192165fb32c2e1fb7aee6,67d1f41f93c04bc02fd4754f,2025-03-12_14h53.19.709,Tarea de decisión léxica,2024.2.5,MacIntel,60.24096386,,,,,,,,,,,,,,,,,,,,,,,286.3551,287.3874,l,1,0.3521,1,287.3875,287.8871,,,,,,269,MAS,WORD,AGR,150,perro,,el,,0.3521,,287.8872,287.8873,-0.225894097,-0.315039063,0,0,0,,0,111,111,268,1,mello,,,,,
,,,,,,6140c26c2ee391b3f4601f01,676192165fb32c2e1fb7aee6,67d1f41f93c04bc02fd4754f,2025-03-12_14h53.19.709,Tarea de decisión léxica,2024.2.5,MacIntel,60.24096386,,,,,,,,,,,,,,,,,,,,,,,287.8884,288.9531,l,1,0.3693,1,288.9532,289.4534,,,,,,55,MAS,WORD,DIS,150,gato,,la,,0.3693,,289.4546,289.4556,-0.225894097,-0.315039063,0,0,0,,0,112,112,54,1,jado,,,,,
,,,,,,6140c26c2ee391b3f4601f01,676192165fb32c2e1fb7aee6,67d1f41f93c04bc02fd4754f,2025-03-12_14h53.19.709,Tarea de decisión léxica,2024.2.5,MacIntel,60.24096386,,,,,,,,,,,,,,,,,,,,,,,289.4564,290.6867,a,1,0.5467,1,290.6868,291.1876,,,,,,384,FEM,NOWORD,DIS,150,brame,,el,,0.5467,,291.1877,291.1878,-0.225894097,-0.315039063,0,0,0,,0,113,113,383,1,frase,,,,,
,,,,,,6140c26c2ee391b3f4601f01,676192165fb32c2e1fb7aee6,67d1f41f93c04bc02fd4754f,2025-03-12_14h53.19.709,Tarea de decisión léxica,2024.2.5,MacIntel,60.24096386,,,,,,,,,,,,,,,,,,,,,,,291.1887,292.3543,l,1,0.4699,1,292.3544,292.8542,,,,,,299,FEM,WORD,DIS,150,bolsa,,el,,0.4699,,292.8542,292.8543,-0.225894097,-0.315039063,0,0,0,,0,114,114,298,1,bosga,,,,,
,,,,,,6140c26c2ee391b3f4601f01,676192165fb32c2e1fb7aee6,67d1f41f93c04bc02fd4754f,2025-03-12_14h53.19.709,Tarea de decisión léxica,2024.2.5,MacIntel,60.24096386,,,,,,,,,,,,,,,,,,,,,,,292.8553,294.2204,l,1,0.6681,1,294.2204,294.7211,,,,,,351,MAS,WORD,DIS,150,vuelo,,la,,0.6681,,294.7211,294.7213,-0.225894097,-0.315039063,0,0,0,,0,115,115,350,1,duepo,,,,,
,,,,,,6140c26c2ee391b3f4601f01,676192165fb32c2e1fb7aee6,67d1f41f93c04bc02fd4754f,2025-03-12_14h53.19.709,Tarea de decisión léxica,2024.2.5,MacIntel,60.24096386,,,,,,,,,,,,,,,,,,,,,,,294.7223,296.1213,l,1,0.7016,1,296.1214,296.6213,,,,,,323,FEM,WORD,DIS,150,cinta,,el,,0.7016,,296.6213,296.6214,-0.225894097,-0.315039063,0,0,0,,0,116,116,322,1,certa,,,,,
,,,,,,6140c26c2ee391b3f4601f01,676192165fb32c2e1fb7aee6,67d1f41f93c04bc02fd4754f,2025-03-12_14h53.19.709,Tarea de decisión léxica,2024.2.5,MacIntel,60.24096386,,,,,,,,,,,,,,,,,,,,,,,296.6223,297.8541,a,1,0.5531,1,297.8542,298.3547,,,,,,164,FEM,NOWORD,DIS,150,laga,,el,,0.5531,,298.3557,298.3565,-0.225894097,-0.315039063,0,0,0,,0,117,117,163,1,fama,,,,,
,,,,,,6140c26c2ee391b3f4601f01,676192165fb32c2e1fb7aee6,67d1f41f93c04bc02fd4754f,2025-03-12_14h53.19.709,Tarea de decisión léxica,2024.2.5,MacIntel,60.24096386,,,,,,,,,,,,,,,,,,,,,,,298.3573,299.4881,l,1,0.442,1,299.4881,299.9876,,,,,,143,MAS,WORD,DIS,150,pavo,,la,,0.442,,299.9876,299.9877,-0.225894097,-0.315039063,0,0,0,,0,118,118,142,1,pezo,,,,,
,,,,,,6140c26c2ee391b3f4601f01,676192165fb32c2e1fb7aee6,67d1f41f93c04bc02fd4754f,2025-03-12_14h53.19.709,Tarea de decisión léxica,2024.2.5,MacIntel,60.24096386,,,,,,,,,,,,,,,,,,,,,,,299.9886,301.0217,l,1,0.3468,1,301.0217,301.5208,,,,,,97,MAS,WORD,AGR,150,mono,,el,,0.3468,,301.5209,301.5209,-0.225894097,-0.315039063,0,0,0,,0,119,119,96,1,fopo,,,,,
,,,,,,6140c26c2ee391b3f4601f01,676192165fb32c2e1fb7aee6,67d1f41f93c04bc02fd4754f,2025-03-12_14h53.19.709,Tarea de decisión léxica,2024.2.5,MacIntel,60.24096386,,,,,,,,,,,,,,,,,,,,,,,301.5219,302.6214,a,1,0.4225,1,302.6215,303.1208,,,,,,242,MAS,NOWORD,AGR,150,mirdo,,el,,0.4225,,303.1208,303.1209,-0.225894097,-0.315039063,0,0,0,,0,120,120,241,1,mundo,,,,,
,,,,,,6140c26c2ee391b3f4601f01,676192165fb32c2e1fb7aee6,67d1f41f93c04bc02fd4754f,2025-03-12_14h53.19.709,Tarea de decisión léxica,2024.2.5,MacIntel,60.24096386,,,,,,,,,,,,,,,,,,,,,,,303.1218,304.1214,l,1,0.315,1,304.1216,304.6208,,,,,,57,MAS,WORD,AGR,150,dedo,,el,,0.315,,304.6208,304.6209,-0.225894097,-0.315039063,0,0,0,,0,121,121,56,1,heco,,,,,
,,,,,,6140c26c2ee391b3f4601f01,676192165fb32c2e1fb7aee6,67d1f41f93c04bc02fd4754f,2025-03-12_14h53.19.709,Tarea de decisión léxica,2024.2.5,MacIntel,60.24096386,,,,,,,,,,,,,,,,,,,,,,,304.622,305.8219,a,1,0.5237,1,305.822,306.3218,,,,,,86,MAS,NOWORD,AGR,150,babo,,el,,0.5237,,306.323,306.3242,-0.225894097,-0.315039063,0,0,0,,0,122,122,85,1,lago,,,,,
,,,,,,6140c26c2ee391b3f4601f01,676192165fb32c2e1fb7aee6,67d1f41f93c04bc02fd4754f,2025-03-12_14h53.19.709,Tarea de decisión léxica,2024.2.5,MacIntel,60.24096386,,,,,,,,,,,,,,,,,,,,,,,306.325,307.6211,a,1,0.6079,1,307.6211,308.1212,,,,,,106,FEM,NOWORD,AGR,150,vina,,la,,0.6079,,308.1212,308.1214,-0.225894097,-0.315039063,0,0,0,,0,123,123,105,1,sopa,,,,,
,,,,,,6140c26c2ee391b3f4601f01,676192165fb32c2e1fb7aee6,67d1f41f93c04bc02fd4754f,2025-03-12_14h53.19.709,Tarea de decisión léxica,2024.2.5,MacIntel,60.24096386,,,,,,,,,,,,,,,,,,,,,,,308.1225,309.2211,a,1,0.414,1,309.2212,309.7211,,,,,,170,MAS,NOWORD,AGR,150,mibo,,el,,0.414,,309.7211,309.7212,-0.225894097,-0.315039063,0,0,0,,0,124,124,169,1,cubo,,,,,
,,,,,,6140c26c2ee391b3f4601f01,676192165fb32c2e1fb7aee6,67d1f41f93c04bc02fd4754f,2025-03-12_14h53.19.709,Tarea de decisión léxica,2024.2.5,MacIntel,60.24096386,,,,,,,,,,,,,,,,,,,,,,,309.7221,310.8556,a,1,0.4503,1,310.8557,311.3546,,,,,,240,MAS,NOWORD,DIS,150,poño,,la,,0.4503,,311.3547,311.3547,-0.225894097,-0.315039063,0,0,0,,0,125,125,239,1,mozo,,,,,
,,,,,,6140c26c2ee391b3f4601f01,676192165fb32c2e1fb7aee6,67d1f41f93c04bc02fd4754f,2025-03-12_14h53.19.709,Tarea de decisión léxica,2024.2.5,MacIntel,60.24096386,,,,,,,,,,,,,,,,,,,,,,,311.3557,312.5546,l,0,0.5137,0,312.5555,313.0554,,,,,,226,MAS,NOWORD,AGR,150,boco,,el,,0.5137,,313.0555,313.0555,-0.225894097,-0.315039063,0,0,0,,0,126,126,225,1,lodo,,,,,
,,,,,,6140c26c2ee391b3f4601f01,676192165fb32c2e1fb7aee6,67d1f41f93c04bc02fd4754f,2025-03-12_14h53.19.709,Tarea de decisión léxica,2024.2.5,MacIntel,60.24096386,,,,,,,,,,,,,,,,,,,,,,,313.0566,314.3556,a,1,0.6245,1,314.3564,314.855,,,,,,354,FEM,NOWORD,AGR,150,cezca,,la,,0.6245,,314.8558,314.8569,-0.225894097,-0.315039063,0,0,0,,0,127,127,353,1,celda,,,,,
,,,,,,6140c26c2ee391b3f4601f01,676192165fb32c2e1fb7aee6,67d1f41f93c04bc02fd4754f,2025-03-12_14h53.19.709,Tarea de decisión léxica,2024.2.5,MacIntel,60.24096386,,,,,,,,,,,,,,,,,,,,,,,314.8576,315.9887,l,1,0.4526,1,315.9887,316.4892,,,,,,469,MAS,WORD,AGR,150,patio,,el,,0.4526,,316.4893,316.4894,-0.225894097,-0.315039063,0,0,0,,0,128,128,468,1,matia,,,,,
,,,,,,6140c26c2ee391b3f4601f01,676192165fb32c2e1fb7aee6,67d1f41f93c04bc02fd4754f,2025-03-12_14h53.19.709,Tarea de decisión léxica,2024.2.5,MacIntel,60.24096386,,,,,,,,,,,,,,,,,,,,,,,316.4902,317.5558,a,1,0.3945,1,317.5559,318.0556,,,,,,196,FEM,NOWORD,DIS,150,sira,,el,,0.3945,,318.0557,318.0557,-0.225894097,-0.315039063,0,0,0,,0,129,129,195,1,tela,,,,,
,,,,,,6140c26c2ee391b3f4601f01,676192165fb32c2e1fb7aee6,67d1f41f93c04bc02fd4754f,2025-03-12_14h53.19.709,Tarea de decisión léxica,2024.2.5,MacIntel,60.24096386,,,,,,,,,,,,,,,,,,,,,,,318.0569,319.5556,l,1,0.8046,1,319.5556,320.0563,,,,,,433,MAS,WORD,AGR,150,disco,,el,,0.8046,,320.0563,320.0563,-0.225894097,-0.315039063,0,0,0,,0,130,130,432,1,durco,,,,,
,,,,,,6140c26c2ee391b3f4601f01,676192165fb32c2e1fb7aee6,67d1f41f93c04bc02fd4754f,2025-03-12_14h53.19.709,Tarea de decisión léxica,2024.2.5,MacIntel,60.24096386,,,,,,,,,,,,,,,,,,,,,,,320.0575,321.2229,a,1,0.4719,1,321.223,321.722,,,,,,100,MAS,NOWORD,DIS,150,soro,,la,,0.4719,,321.7232,321.7243,-0.225894097,-0.315039063,0,0,0,,0,131,131,99,1,lobo,,,,,
,,,,,,6140c26c2ee391b3f4601f01,676192165fb32c2e1fb7aee6,67d1f41f93c04bc02fd4754f,2025-03-12_14h53.19.709,Tarea de decisión léxica,2024.2.5,MacIntel,60.24096386,,,,,,,,,,,,,,,,,,,,,,,321.725,322.9556,l,1,0.56,1,322.9557,323.4558,,,,,,397,FEM,WORD,AGR,150,tribu,,la,,0.56,,323.4558,323.4559,-0.225894097,-0.315039063,0,0,0,,0,132,132,396,1,trigi,,,,,
,,,,,,6140c26c2ee391b3f4601f01,676192165fb32c2e1fb7aee6,67d1f41f93c04bc02fd4754f,2025-03-12_14h53.19.709,Tarea de decisión léxica,2024.2.5,MacIntel,60.24096386,,,,,,,,,,,,,,,,,,,,,,,323.4569,324.6226,a,1,0.4672,1,324.6226,325.1231,,,,,,60,FEM,NOWORD,DIS,150,tafa,,el,,0.4672,,325.1232,325.1233,-0.225894097,-0.315039063,0,0,0,,0,133,133,59,1,sala,,,,,
,,,,,,6140c26c2ee391b3f4601f01,676192165fb32c2e1fb7aee6,67d1f41f93c04bc02fd4754f,2025-03-12_14h53.19.709,Tarea de decisión léxica,2024.2.5,MacIntel,60.24096386,,,,,,,,,,,,,,,,,,,,,,,325.1243,326.2233,l,1,0.4023,1,326.2234,326.7223,,,,,,439,FEM,WORD,DIS,150,presa,,el,,0.4023,,326.7223,326.7225,-0.225894097,-0.315039063,0,0,0,,0,134,134,438,1,prema,,,,,
,,,,,,6140c26c2ee391b3f4601f01,676192165fb32c2e1fb7aee6,67d1f41f93c04bc02fd4754f,2025-03-12_14h53.19.709,Tarea de decisión léxica,2024.2.5,MacIntel,60.24096386,,,,,,,,,,,,,,,,,,,,,,,326.7235,327.8892,l,1,0.4707,1,327.8894,328.39,,,,,,235,FEM,WORD,DIS,150,grúa,,el,,0.4707,,328.39,328.3902,-0.225894097,-0.315039063,0,0,0,,0,135,135,234,1,tria,,,,,
,,,,,,6140c26c2ee391b3f4601f01,676192165fb32c2e1fb7aee6,67d1f41f93c04bc02fd4754f,2025-03-12_14h53.19.709,Tarea de decisión léxica,2024.2.5,MacIntel,60.24096386,,,,,,,,,,,,,,,,,,,,,,,328.3913,329.4565,l,1,0.3689,1,329.4566,329.9569,,,,,,71,FEM,WORD,DIS,150,isla,,el,,0.3689,,329.9579,329.9591,-0.225894097,-0.315039063,0,0,0,,0,136,136,70,1,urla,,,,,
,,,,,,6140c26c2ee391b3f4601f01,676192165fb32c2e1fb7aee6,67d1f41f93c04bc02fd4754f,2025-03-12_14h53.19.709,Tarea de decisión léxica,2024.2.5,MacIntel,60.24096386,,,,,,,,,,,,,,,,,,,,,,,329.9597,330.9233,l,1,0.2917,1,330.9234,331.4232,,,,,,47,MAS,WORD,DIS,150,club,,la,,0.2917,,331.4233,331.4234,-0.225894097,-0.315039063,0,0,0,,0,137,137,46,1,chub,,,,,
,,,,,,6140c26c2ee391b3f4601f01,676192165fb32c2e1fb7aee6,67d1f41f93c04bc02fd4754f,2025-03-12_14h53.19.709,Tarea de decisión léxica,2024.2.5,MacIntel,60.24096386,,,,,,,,,,,,,,,,,,,,,,,331.4245,332.3895,l,1,0.2709,1,332.3896,332.8897,,,,,,381,MAS,WORD,AGR,150,humor,,el,,0.2709,,332.8897,332.8898,-0.225894097,-0.315039063,0,0,0,,0,138,138,380,1,nusor,,,,,
,,,,,,6140c26c2ee391b3f4601f01,676192165fb32c2e1fb7aee6,67d1f41f93c04bc02fd4754f,2025-03-12_14h53.19.709,Tarea de decisión léxica,2024.2.5,MacIntel,60.24096386,,,,,,,,,,,,,,,,,,,,,,,332.891,334.1573,a,1,0.5775,1,334.1573,334.6572,,,,,,390,MAS,NOWORD,AGR,150,cenco,,el,,0.5775,,334.6573,334.6573,-0.225894097,-0.315039063,0,0,0,,0,139,139,389,1,cerdo,,,,,
,,,,,,6140c26c2ee391b3f4601f01,676192165fb32c2e1fb7aee6,67d1f41f93c04bc02fd4754f,2025-03-12_14h53.19.709,Tarea de decisión léxica,2024.2.5,MacIntel,60.24096386,,,,,,,,,,,,,,,,,,,,,,,334.6582,335.8237,a,1,0.4752,1,335.8238,336.3238,,,,,,438,FEM,NOWORD,AGR,150,glava,,la,,0.4752,,336.3239,336.3239,-0.225894097,-0.315039063,0,0,0,,0,140,140,437,1,plaza,,,,,
,,,,,,6140c26c2ee391b3f4601f01,676192165fb32c2e1fb7aee6,67d1f41f93c04bc02fd4754f,2025-03-12_14h53.19.709,Tarea de decisión léxica,2024.2.5,MacIntel,60.24096386,,,,,,,,,,,,,,,,,,,,,,,336.3248,337.5574,l,1,0.535,1,337.5576,338.0575,,,,,,43,FEM,WORD,DIS,150,pena,,el,,0.535,,338.0585,338.0597,-0.225894097,-0.315039063,0,0,0,,0,141,141,42,1,meda,,,,,
,,,,,,6140c26c2ee391b3f4601f01,676192165fb32c2e1fb7aee6,67d1f41f93c04bc02fd4754f,2025-03-12_14h53.19.709,Tarea de decisión léxica,2024.2.5,MacIntel,60.24096386,,,,,,,,,,,,,,,,,,,,,,,338.0606,339.2571,a,1,0.5257,1,339.2572,339.7576,,,,,,376,FEM,NOWORD,DIS,150,sasna,,el,,0.5257,,339.7577,339.7577,-0.225894097,-0.315039063,0,0,0,,0,142,142,375,1,salsa,,,,,
,,,,,,6140c26c2ee391b3f4601f01,676192165fb32c2e1fb7aee6,67d1f41f93c04bc02fd4754f,2025-03-12_14h53.19.709,Tarea de decisión léxica,2024.2.5,MacIntel,60.24096386,,,,,,,,,,,,,,,,,,,,,,,339.7587,341.0234,l,0,0.5879,0,341.0239,341.5243,,,,,,400,MAS,NOWORD,DIS,150,serro,,la,,0.5879,,341.5243,341.5245,-0.225894097,-0.315039063,0,0,0,,0,143,143,399,1,techo,,,,,
,,,,,,6140c26c2ee391b3f4601f01,676192165fb32c2e1fb7aee6,67d1f41f93c04bc02fd4754f,2025-03-12_14h53.19.709,Tarea de decisión léxica,2024.2.5,MacIntel,60.24096386,,,,,,,,,,,,,,,,,,,,,,,341.5254,342.624,l,1,0.4127,1,342.6247,343.1244,,,,,,51,FEM,WORD,DIS,150,caja,,el,,0.4127,,343.1245,343.1246,-0.225894097,-0.315039063,0,0,0,,0,144,144,50,1,mava,,,,,
,,,,,,6140c26c2ee391b3f4601f01,676192165fb32c2e1fb7aee6,67d1f41f93c04bc02fd4754f,2025-03-12_14h53.19.709,Tarea de decisión léxica,2024.2.5,MacIntel,60.24096386,,,,,,,,,,,,,,,,,,,,,,,343.1254,344.2912,a,0,0.4776,0,344.2921,344.7905,,,,,,203,FEM,WORD,DIS,150,leña,,el,,0.4776,,344.7905,344.7905,-0.225894097,-0.315039063,0,0,0,,0,145,145,202,1,beja,,,,,
,,,,,,6140c26c2ee391b3f4601f01,676192165fb32c2e1fb7aee6,67d1f41f93c04bc02fd4754f,2025-03-12_14h53.19.709,Tarea de decisión léxica,2024.2.5,MacIntel,60.24096386,,,,,,,,,,,,,,,,,,,,,,,344.7916,345.9246,l,1,0.4359,1,345.9256,346.4246,,,,,,441,FEM,WORD,AGR,150,selva,,la,,0.4359,,346.4258,346.4267,-0.225894097,-0.315039063,0,0,0,,0,146,146,440,1,telza,,,,,
,,,,,,6140c26c2ee391b3f4601f01,676192165fb32c2e1fb7aee6,67d1f41f93c04bc02fd4754f,2025-03-12_14h53.19.709,Tarea de decisión léxica,2024.2.5,MacIntel,60.24096386,,,,,,,,,,,,,,,,,,,,,,,346.4274,347.7248,a,1,0.6002,1,347.7248,348.224,,,,,,238,MAS,NOWORD,AGR,150,huco,,el,,0.6002,,348.2241,348.2242,-0.225894097,-0.315039063,0,0,0,,0,147,147,237,1,nudo,,,,,
,,,,,,6140c26c2ee391b3f4601f01,676192165fb32c2e1fb7aee6,67d1f41f93c04bc02fd4754f,2025-03-12_14h53.19.709,Tarea de decisión léxica,2024.2.5,MacIntel,60.24096386,,,,,,,,,,,,,,,,,,,,,,,348.2251,349.3248,l,1,0.4242,1,349.3249,349.8246,,,,,,199,MAS,WORD,DIS,150,lazo,,la,,0.4242,,349.8246,349.8247,-0.225894097,-0.315039063,0,0,0,,0,148,148,198,1,fano,,,,,
,,,,,,6140c26c2ee391b3f4601f01,676192165fb32c2e1fb7aee6,67d1f41f93c04bc02fd4754f,2025-03-12_14h53.19.709,Tarea de decisión léxica,2024.2.5,MacIntel,60.24096386,,,,,,,,,,,,,,,,,,,,,,,349.8255,350.9249,l,1,0.408,1,350.925,351.4243,,,,,,463,FEM,WORD,DIS,150,cabra,,el,,0.408,,351.4244,351.4244,-0.225894097,-0.315039063,0,0,0,,0,149,149,462,1,matla,,,,,
,,,,,,6140c26c2ee391b3f4601f01,676192165fb32c2e1fb7aee6,67d1f41f93c04bc02fd4754f,2025-03-12_14h53.19.709,Tarea de decisión léxica,2024.2.5,MacIntel,60.24096386,,,,,,,,,,,,,,,,,,,,,,,351.4255,352.6248,a,1,0.5037,1,352.6248,353.1251,,,,,,304,MAS,NOWORD,DIS,150,lanco,,la,,0.5037,,353.1251,353.1253,-0.225894097,-0.315039063,0,0,0,,0,150,150,303,1,barco,,,,,
,,,,,,6140c26c2ee391b3f4601f01,676192165fb32c2e1fb7aee6,67d1f41f93c04bc02fd4754f,2025-03-12_14h53.19.709,Tarea de decisión léxica,2024.2.5,MacIntel,60.24096386,,,,,,,,,,,,,,,,,,,,,,,353.1261,354.2251,l,1,0.4039,1,354.2251,354.7253,,,,,,247,FEM,WORD,DIS,150,chica,,el,,0.4039,,354.7264,354.7274,-0.225894097,-0.315039063,0,0,0,,0,151,151,246,1,trida,,,,,
,,,,,,6140c26c2ee391b3f4601f01,676192165fb32c2e1fb7aee6,67d1f41f93c04bc02fd4754f,2025-03-12_14h53.19.709,Tarea de decisión léxica,2024.2.5,MacIntel,60.24096386,,,,,,,,,,,,,,,,,,,,,,,354.7282,355.8251,l,1,0.4081,1,355.8252,356.3251,,,,,,211,FEM,WORD,DIS,150,joya,,el,,0.4081,,356.3252,356.3253,-0.225894097,-0.315039063,0,0,0,,0,152,152,210,1,joad,,,,,
,,,,,,6140c26c2ee391b3f4601f01,676192165fb32c2e1fb7aee6,67d1f41f93c04bc02fd4754f,2025-03-12_14h53.19.709,Tarea de decisión léxica,2024.2.5,MacIntel,60.24096386,,,,,,,,,,,,,,,,,,,,,,,356.3262,357.3916,l,1,0.3863,1,357.3917,357.8916,,,,,,409,MAS,WORD,AGR,150,carro,,el,,0.3863,,357.8916,357.8918,-0.225894097,-0.315039063,0,0,0,,0,153,153,408,1,pafro,,,,,
,,,,,,6140c26c2ee391b3f4601f01,676192165fb32c2e1fb7aee6,67d1f41f93c04bc02fd4754f,2025-03-12_14h53.19.709,Tarea de decisión léxica,2024.2.5,MacIntel,60.24096386,,,,,,,,,,,,,,,,,,,,,,,357.8928,358.8916,l,1,0.3154,1,358.8917,359.3917,,,,,,171,MAS,WORD,DIS,150,hilo,,la,,0.3154,,359.3917,359.3917,-0.225894097,-0.315039063,0,0,0,,0,154,154,170,1,niro,,,,,
,,,,,,6140c26c2ee391b3f4601f01,676192165fb32c2e1fb7aee6,67d1f41f93c04bc02fd4754f,2025-03-12_14h53.19.709,Tarea de decisión léxica,2024.2.5,MacIntel,60.24096386,,,,,,,,,,,,,,,,,,,,,,,359.3927,360.6251,a,1,0.5421,1,360.6252,361.1251,,,,,,30,MAS,NOWORD,AGR,150,pono,,el,,0.5421,,361.1263,361.1271,-0.225894097,-0.315039063,0,0,0,,0,155,155,29,1,modo,,,,,
,,,,,,6140c26c2ee391b3f4601f01,676192165fb32c2e1fb7aee6,67d1f41f93c04bc02fd4754f,2025-03-12_14h53.19.709,Tarea de decisión léxica,2024.2.5,MacIntel,60.24096386,,,,,,,,,,,,,,,,,,,,,,,361.1278,362.2256,l,1,0.4184,1,362.2257,362.7251,,,,,,39,MAS,WORD,DIS,150,voto,,la,,0.4184,,362.7251,362.7252,-0.225894097,-0.315039063,0,0,0,,0,156,156,38,1,redo,,,,,
,,,,,,6140c26c2ee391b3f4601f01,676192165fb32c2e1fb7aee6,67d1f41f93c04bc02fd4754f,2025-03-12_14h53.19.709,Tarea de decisión léxica,2024.2.5,MacIntel,60.24096386,,,,,,,,,,,,,,,,,,,,,,,362.7261,363.8585,l,1,0.4338,1,363.8586,364.3592,,,,,,221,FEM,WORD,AGR,150,mula,,la,,0.4338,,364.3592,364.3594,-0.225894097,-0.315039063,0,0,0,,0,157,157,220,1,puca,,,,,
,,,,,,6140c26c2ee391b3f4601f01,676192165fb32c2e1fb7aee6,67d1f41f93c04bc02fd4754f,2025-03-12_14h53.19.709,Tarea de decisión léxica,2024.2.5,MacIntel,60.24096386,,,,,,,,,,,,,,,,,,,,,,,364.3604,365.6251,l,1,0.5691,1,365.6252,366.1251,,,,,,135,MAS,WORD,DIS,150,tubo,,la,,0.5691,,366.1252,366.1253,-0.225894097,-0.315039063,0,0,0,,0,158,158,134,1,geso,,,,,
,,,,,,6140c26c2ee391b3f4601f01,676192165fb32c2e1fb7aee6,67d1f41f93c04bc02fd4754f,2025-03-12_14h53.19.709,Tarea de decisión léxica,2024.2.5,MacIntel,60.24096386,,,,,,,,,,,,,,,,,,,,,,,366.1263,367.2928,a,1,0.485,1,367.2929,367.7927,,,,,,228,MAS,NOWORD,DIS,150,laro,,la,,0.485,,367.7928,367.7929,-0.225894097,-0.315039063,0,0,0,,0,159,159,227,1,faro,,,,,
,,,,,,6140c26c2ee391b3f4601f01,676192165fb32c2e1fb7aee6,67d1f41f93c04bc02fd4754f,2025-03-12_14h53.19.709,Tarea de decisión léxica,2024.2.5,MacIntel,60.24096386,,,,,,,,,,,,,,,,,,,,,,,367.7938,368.9594,a,1,0.4749,1,368.9595,369.4595,,,,,,382,MAS,NOWORD,AGR,150,nusor,,el,,0.4749,,369.4604,372.2927,-0.105828993,-0.424578993,1,0,0,,0,160,160,381,1,humor,break_done_button,,,,
,,,,,,6140c26c2ee391b3f4601f01,676192165fb32c2e1fb7aee6,67d1f41f93c04bc02fd4754f,2025-03-12_14h53.19.709,Tarea de decisión léxica,2024.2.5,MacIntel,60.24096386,,,,,,,,,,,,,,,,,,,,,,,372.2937,374.8933,a,1,1.9233,1,374.8934,375.3929,,,,,,328,MAS,NOWORD,DIS,150,lendo,,la,,1.9233,,375.393,375.393,0.573324653,0.125208333,0,0,0,,0,161,161,327,1,fondo,,,,,
,,,,,,6140c26c2ee391b3f4601f01,676192165fb32c2e1fb7aee6,67d1f41f93c04bc02fd4754f,2025-03-12_14h53.19.709,Tarea de decisión léxica,2024.2.5,MacIntel,60.24096386,,,,,,,,,,,,,,,,,,,,,,,375.3942,376.4935,a,1,0.4102,1,376.4935,376.9936,,,,,,378,MAS,NOWORD,AGR,150,gaulo,,el,,0.4102,,376.9936,376.9937,0.573324653,0.125208333,0,0,0,,0,162,162,377,1,hielo,,,,,
,,,,,,6140c26c2ee391b3f4601f01,676192165fb32c2e1fb7aee6,67d1f41f93c04bc02fd4754f,2025-03-12_14h53.19.709,Tarea de decisión léxica,2024.2.5,MacIntel,60.24096386,,,,,,,,,,,,,,,,,,,,,,,376.9951,378.2926,l,1,0.6276,1,378.2927,378.7933,,,,,,251,MAS,WORD,DIS,150,señor,,la,,0.6276,,378.7934,378.7935,0.573324653,0.125208333,0,0,0,,0,163,163,250,1,refor,,,,,
,,,,,,6140c26c2ee391b3f4601f01,676192165fb32c2e1fb7aee6,67d1f41f93c04bc02fd4754f,2025-03-12_14h53.19.709,Tarea de decisión léxica,2024.2.5,MacIntel,60.24096386,,,,,,,,,,,,,,,,,,,,,,,378.7946,379.9937,l,1,0.5002,1,379.9937,380.4938,,,,,,313,MAS,WORD,AGR,150,novio,,el,,0.5002,,380.4938,380.4939,0.573324653,0.125208333,0,0,0,,0,164,164,312,1,govio,,,,,
,,,,,,6140c26c2ee391b3f4601f01,676192165fb32c2e1fb7aee6,67d1f41f93c04bc02fd4754f,2025-03-12_14h53.19.709,Tarea de decisión léxica,2024.2.5,MacIntel,60.24096386,,,,,,,,,,,,,,,,,,,,,,,380.495,381.6264,l,1,0.4376,1,381.6265,382.1269,,,,,,231,FEM,WORD,DIS,150,bota,,el,,0.4376,,382.1279,382.1288,0.573324653,0.125208333,0,0,0,,0,165,165,230,1,heta,,,,,
,,,,,,6140c26c2ee391b3f4601f01,676192165fb32c2e1fb7aee6,67d1f41f93c04bc02fd4754f,2025-03-12_14h53.19.709,Tarea de decisión léxica,2024.2.5,MacIntel,60.24096386,,,,,,,,,,,,,,,,,,,,,,,382.1296,383.1934,l,1,0.3816,1,383.1934,383.6929,,,,,,11,MAS,WORD,DIS,150,lado,,la,,0.3816,,383.693,383.6932,0.573324653,0.125208333,0,0,0,,0,166,166,10,1,bapo,,,,,
,,,,,,6140c26c2ee391b3f4601f01,676192165fb32c2e1fb7aee6,67d1f41f93c04bc02fd4754f,2025-03-12_14h53.19.709,Tarea de decisión léxica,2024.2.5,MacIntel,60.24096386,,,,,,,,,,,,,,,,,,,,,,,383.6942,384.6941,a,0,0.3082,0,384.695,385.1936,,,,,,201,FEM,WORD,AGR,150,cuna,,la,,0.3082,,385.1937,385.1938,0.573324653,0.125208333,0,0,0,,0,167,167,200,1,cusa,,,,,
,,,,,,6140c26c2ee391b3f4601f01,676192165fb32c2e1fb7aee6,67d1f41f93c04bc02fd4754f,2025-03-12_14h53.19.709,Tarea de decisión léxica,2024.2.5,MacIntel,60.24096386,,,,,,,,,,,,,,,,,,,,,,,385.1948,386.4266,l,1,0.5579,1,386.4273,386.9274,,,,,,407,FEM,WORD,DIS,150,cueva,,el,,0.5579,,386.9274,386.9276,0.573324653,0.125208333,0,0,0,,0,168,168,406,1,cauba,,,,,
,,,,,,6140c26c2ee391b3f4601f01,676192165fb32c2e1fb7aee6,67d1f41f93c04bc02fd4754f,2025-03-12_14h53.19.709,Tarea de decisión léxica,2024.2.5,MacIntel,60.24096386,,,,,,,,,,,,,,,,,,,,,,,386.9286,388.0608,a,1,0.4559,1,388.0609,388.5609,,,,,,224,FEM,NOWORD,DIS,150,cira,,el,,0.4559,,388.5609,388.5611,0.573324653,0.125208333,0,0,0,,0,169,169,223,1,cera,,,,,
,,,,,,6140c26c2ee391b3f4601f01,676192165fb32c2e1fb7aee6,67d1f41f93c04bc02fd4754f,2025-03-12_14h53.19.709,Tarea de decisión léxica,2024.2.5,MacIntel,60.24096386,,,,,,,,,,,,,,,,,,,,,,,388.562,389.7277,l,1,0.4664,1,389.7278,390.2267,,,,,,21,MAS,WORD,AGR,150,plan,,el,,0.4664,,390.2274,390.2286,0.573324653,0.125208333,0,0,0,,0,170,170,20,1,blan,,,,,
,,,,,,6140c26c2ee391b3f4601f01,676192165fb32c2e1fb7aee6,67d1f41f93c04bc02fd4754f,2025-03-12_14h53.19.709,Tarea de decisión léxica,2024.2.5,MacIntel,60.24096386,,,,,,,,,,,,,,,,,,,,,,,390.2293,391.4271,a,1,0.5264,1,391.4271,391.9279,,,,,,266,FEM,NOWORD,AGR,150,pitat,,la,,0.5264,,391.928,391.928,0.573324653,0.125208333,0,0,0,,0,171,171,265,1,mitad,,,,,
,,,,,,6140c26c2ee391b3f4601f01,676192165fb32c2e1fb7aee6,67d1f41f93c04bc02fd4754f,2025-03-12_14h53.19.709,Tarea de decisión léxica,2024.2.5,MacIntel,60.24096386,,,,,,,,,,,,,,,,,,,,,,,391.9289,393.1605,a,1,0.5473,1,393.1605,393.6611,,,,,,56,MAS,NOWORD,DIS,150,jado,,la,,0.5473,,393.6612,393.6613,0.573324653,0.125208333,0,0,0,,0,172,172,55,1,gato,,,,,
,,,,,,6140c26c2ee391b3f4601f01,676192165fb32c2e1fb7aee6,67d1f41f93c04bc02fd4754f,2025-03-12_14h53.19.709,Tarea de decisión léxica,2024.2.5,MacIntel,60.24096386,,,,,,,,,,,,,,,,,,,,,,,393.6622,394.8614,a,1,0.5008,1,394.8615,395.3606,,,,,,324,FEM,NOWORD,DIS,150,certa,,el,,0.5008,,395.3607,395.3607,0.573324653,0.125208333,0,0,0,,0,173,173,323,1,cinta,,,,,
,,,,,,6140c26c2ee391b3f4601f01,676192165fb32c2e1fb7aee6,67d1f41f93c04bc02fd4754f,2025-03-12_14h53.19.709,Tarea de decisión léxica,2024.2.5,MacIntel,60.24096386,,,,,,,,,,,,,,,,,,,,,,,395.3613,396.5609,l,1,0.5284,1,396.561,397.0613,,,,,,283,MAS,WORD,DIS,150,sueño,,la,,0.5284,,397.0613,397.0615,0.573324653,0.125208333,0,0,0,,0,174,174,282,1,tuevo,,,,,
,,,,,,6140c26c2ee391b3f4601f01,676192165fb32c2e1fb7aee6,67d1f41f93c04bc02fd4754f,2025-03-12_14h53.19.709,Tarea de decisión léxica,2024.2.5,MacIntel,60.24096386,,,,,,,,,,,,,,,,,,,,,,,397.0623,398.1941,l,1,0.4534,1,398.1942,398.6949,,,,,,99,MAS,WORD,DIS,150,lobo,,la,,0.4534,,398.696,398.697,0.573324653,0.125208333,0,0,0,,0,175,175,98,1,soro,,,,,
,,,,,,6140c26c2ee391b3f4601f01,676192165fb32c2e1fb7aee6,67d1f41f93c04bc02fd4754f,2025-03-12_14h53.19.709,Tarea de decisión léxica,2024.2.5,MacIntel,60.24096386,,,,,,,,,,,,,,,,,,,,,,,398.6978,399.6941,l,1,0.3229,1,399.6941,400.1942,,,,,,89,MAS,WORD,AGR,150,humo,,el,,0.3229,,400.1942,400.1943,0.573324653,0.125208333,0,0,0,,0,176,176,88,1,guso,,,,,
,,,,,,6140c26c2ee391b3f4601f01,676192165fb32c2e1fb7aee6,67d1f41f93c04bc02fd4754f,2025-03-12_14h53.19.709,Tarea de decisión léxica,2024.2.5,MacIntel,60.24096386,,,,,,,,,,,,,,,,,,,,,,,400.1953,401.328,a,1,0.456,1,401.328,401.8285,,,,,,404,FEM,NOWORD,DIS,150,grisa,,el,,0.456,,401.8285,401.8286,0.573324653,0.125208333,0,0,0,,0,177,177,403,1,prima,,,,,
,,,,,,6140c26c2ee391b3f4601f01,676192165fb32c2e1fb7aee6,67d1f41f93c04bc02fd4754f,2025-03-12_14h53.19.709,Tarea de decisión léxica,2024.2.5,MacIntel,60.24096386,,,,,,,,,,,,,,,,,,,,,,,401.8296,403.1286,a,1,0.6088,1,403.1287,403.6284,,,,,,430,FEM,NOWORD,AGR,150,tenta,,la,,0.6088,,403.6285,403.6286,0.573324653,0.125208333,0,0,0,,0,178,178,429,1,tarta,,,,,
,,,,,,6140c26c2ee391b3f4601f01,676192165fb32c2e1fb7aee6,67d1f41f93c04bc02fd4754f,2025-03-12_14h53.19.709,Tarea de decisión léxica,2024.2.5,MacIntel,60.24096386,,,,,,,,,,,,,,,,,,,,,,,403.6297,404.7951,a,1,0.4757,1,404.7953,405.2955,,,,,,214,FEM,NOWORD,AGR,150,bana,,la,,0.4757,,405.2965,405.2975,0.573324653,0.125208333,0,0,0,,0,179,179,213,1,rama,,,,,
,,,,,,6140c26c2ee391b3f4601f01,676192165fb32c2e1fb7aee6,67d1f41f93c04bc02fd4754f,2025-03-12_14h53.19.709,Tarea de decisión léxica,2024.2.5,MacIntel,60.24096386,,,,,,,,,,,,,,,,,,,,,,,405.2982,406.4278,a,1,0.4483,1,406.4279,406.9279,,,,,,152,MAS,NOWORD,DIS,150,sogo,,la,,0.4483,,406.9279,406.9281,0.573324653,0.125208333,0,0,0,,0,180,180,151,1,tomo,,,,,
,,,,,,6140c26c2ee391b3f4601f01,676192165fb32c2e1fb7aee6,67d1f41f93c04bc02fd4754f,2025-03-12_14h53.19.709,Tarea de decisión léxica,2024.2.5,MacIntel,60.24096386,,,,,,,,,,,,,,,,,,,,,,,406.9288,408.0946,a,1,0.474,1,408.0946,408.5959,,,,,,248,FEM,NOWORD,DIS,150,trida,,el,,0.474,,408.5959,408.596,0.573324653,0.125208333,0,0,0,,0,181,181,247,1,chica,,,,,
,,,,,,6140c26c2ee391b3f4601f01,676192165fb32c2e1fb7aee6,67d1f41f93c04bc02fd4754f,2025-03-12_14h53.19.709,Tarea de decisión léxica,2024.2.5,MacIntel,60.24096386,,,,,,,,,,,,,,,,,,,,,,,408.5969,409.7624,l,1,0.4854,1,409.7625,410.2618,,,,,,367,MAS,WORD,DIS,150,reloj,,la,,0.4854,,410.2619,410.262,0.573324653,0.125208333,0,0,0,,0,182,182,366,1,rerob,,,,,
,,,,,,6140c26c2ee391b3f4601f01,676192165fb32c2e1fb7aee6,67d1f41f93c04bc02fd4754f,2025-03-12_14h53.19.709,Tarea de decisión léxica,2024.2.5,MacIntel,60.24096386,,,,,,,,,,,,,,,,,,,,,,,410.263,411.3292,l,1,0.3718,1,411.3292,411.8293,,,,,,91,FEM,WORD,DIS,150,taza,,el,,0.3718,,411.8293,411.8294,0.573324653,0.125208333,0,0,0,,0,183,183,90,1,sava,,,,,
,,,,,,6140c26c2ee391b3f4601f01,676192165fb32c2e1fb7aee6,67d1f41f93c04bc02fd4754f,2025-03-12_14h53.19.709,Tarea de decisión léxica,2024.2.5,MacIntel,60.24096386,,,,,,,,,,,,,,,,,,,,,,,411.8303,413.0626,a,0,0.5367,0,413.0633,413.5626,,,,,,223,FEM,WORD,DIS,150,cera,,el,,0.5367,,413.5637,413.5645,0.573324653,0.125208333,0,0,0,,0,184,184,222,1,cira,,,,,
,,,,,,6140c26c2ee391b3f4601f01,676192165fb32c2e1fb7aee6,67d1f41f93c04bc02fd4754f,2025-03-12_14h53.19.709,Tarea de decisión léxica,2024.2.5,MacIntel,60.24096386,,,,,,,,,,,,,,,,,,,,,,,413.5653,414.8289,l,0,0.5838,0,414.8289,415.3296,,,,,,82,FEM,NOWORD,AGR,150,vasa,,la,,0.5838,,415.3296,415.3297,0.573324653,0.125208333,0,0,0,,0,185,185,81,1,dama,,,,,
,,,,,,6140c26c2ee391b3f4601f01,676192165fb32c2e1fb7aee6,67d1f41f93c04bc02fd4754f,2025-03-12_14h53.19.709,Tarea de decisión léxica,2024.2.5,MacIntel,60.24096386,,,,,,,,,,,,,,,,,,,,,,,415.3308,416.396,l,1,0.3898,1,416.397,416.8962,,,,,,373,FEM,WORD,AGR,150,pizza,,la,,0.3898,,416.8963,416.8964,0.573324653,0.125208333,0,0,0,,0,186,186,372,1,pogza,,,,,
,,,,,,6140c26c2ee391b3f4601f01,676192165fb32c2e1fb7aee6,67d1f41f93c04bc02fd4754f,2025-03-12_14h53.19.709,Tarea de decisión léxica,2024.2.5,MacIntel,60.24096386,,,,,,,,,,,,,,,,,,,,,,,416.8977,417.963,l,1,0.3671,1,417.9631,418.4625,,,,,,369,MAS,WORD,AGR,150,ruido,,el,,0.3671,,418.4625,418.4626,0.573324653,0.125208333,0,0,0,,0,187,187,368,1,rioco,,,,,
,,,,,,6140c26c2ee391b3f4601f01,676192165fb32c2e1fb7aee6,67d1f41f93c04bc02fd4754f,2025-03-12_14h53.19.709,Tarea de decisión léxica,2024.2.5,MacIntel,60.24096386,,,,,,,,,,,,,,,,,,,,,,,418.4635,419.662,l,1,0.5024,1,419.6621,420.1631,,,,,,303,MAS,WORD,DIS,150,barco,,la,,0.5024,,420.1631,420.1633,0.573324653,0.125208333,0,0,0,,0,188,188,302,1,lanco,,,,,
,,,,,,6140c26c2ee391b3f4601f01,676192165fb32c2e1fb7aee6,67d1f41f93c04bc02fd4754f,2025-03-12_14h53.19.709,Tarea de decisión léxica,2024.2.5,MacIntel,60.24096386,,,,,,,,,,,,,,,,,,,,,,,420.1642,421.3299,a,1,0.4719,1,421.33,421.8294,,,,,,6,FEM,NOWORD,AGR,150,poga,,la,,0.4719,,421.8304,421.8316,0.573324653,0.125208333,0,0,0,,0,189,189,5,1,cosa,,,,,
,,,,,,6140c26c2ee391b3f4601f01,676192165fb32c2e1fb7aee6,67d1f41f93c04bc02fd4754f,2025-03-12_14h53.19.709,Tarea de decisión léxica,2024.2.5,MacIntel,60.24096386,,,,,,,,,,,,,,,,,,,,,,,421.8323,423.329,l,1,0.8077,1,423.3291,423.8295,,,,,,189,MAS,WORD,AGR,150,puño,,el,,0.8077,,423.8296,423.8297,0.573324653,0.125208333,0,0,0,,0,190,190,188,1,muvo,,,,,
,,,,,,6140c26c2ee391b3f4601f01,676192165fb32c2e1fb7aee6,67d1f41f93c04bc02fd4754f,2025-03-12_14h53.19.709,Tarea de decisión léxica,2024.2.5,MacIntel,60.24096386,,,,,,,,,,,,,,,,,,,,,,,423.8306,424.9634,a,1,0.4566,1,424.9635,425.4633,,,,,,318,FEM,NOWORD,AGR,150,plaad,,la,,0.4566,,425.4633,425.4634,0.573324653,0.125208333,0,0,0,,0,191,191,317,1,playa,,,,,
,,,,,,6140c26c2ee391b3f4601f01,676192165fb32c2e1fb7aee6,67d1f41f93c04bc02fd4754f,2025-03-12_14h53.19.709,Tarea de decisión léxica,2024.2.5,MacIntel,60.24096386,,,,,,,,,,,,,,,,,,,,,,,425.4643,426.6301,a,1,0.4902,1,426.6302,427.1293,,,,,,194,FEM,NOWORD,AGR,150,foda,,la,,0.4902,,427.1293,427.1294,0.573324653,0.125208333,0,0,0,,0,192,192,193,1,loca,,,,,
,,,,,,6140c26c2ee391b3f4601f01,676192165fb32c2e1fb7aee6,67d1f41f93c04bc02fd4754f,2025-03-12_14h53.19.709,Tarea de decisión léxica,2024.2.5,MacIntel,60.24096386,,,,,,,,,,,,,,,,,,,,,,,427.1303,428.2304,l,1,0.4123,1,428.2305,428.7304,,,,,,179,MAS,WORD,DIS,150,toro,,la,,0.4123,,428.7304,428.7305,0.573324653,0.125208333,0,0,0,,0,193,193,178,1,sono,,,,,
,,,,,,6140c26c2ee391b3f4601f01,676192165fb32c2e1fb7aee6,67d1f41f93c04bc02fd4754f,2025-03-12_14h53.19.709,Tarea de decisión léxica,2024.2.5,MacIntel,60.24096386,,,,,,,,,,,,,,,,,,,,,,,428.7316,429.8637,a,1,0.4588,1,429.8637,430.3638,,,,,,32,FEM,NOWORD,DIS,150,bova,,el,,0.4588,,430.365,430.366,0.573324653,0.125208333,0,0,0,,0,194,194,31,1,ropa,,,,,
,,,,,,6140c26c2ee391b3f4601f01,676192165fb32c2e1fb7aee6,67d1f41f93c04bc02fd4754f,2025-03-12_14h53.19.709,Tarea de decisión léxica,2024.2.5,MacIntel,60.24096386,,,,,,,,,,,,,,,,,,,,,,,430.3668,431.5638,a,1,0.5039,1,431.5639,432.063,,,,,,326,FEM,NOWORD,AGR,150,mabia,,la,,0.5039,,432.063,432.0632,0.573324653,0.125208333,0,0,0,,0,195,195,325,1,magia,,,,,
,,,,,,6140c26c2ee391b3f4601f01,676192165fb32c2e1fb7aee6,67d1f41f93c04bc02fd4754f,2025-03-12_14h53.19.709,Tarea de decisión léxica,2024.2.5,MacIntel,60.24096386,,,,,,,,,,,,,,,,,,,,,,,432.0643,433.2963,a,1,0.5603,1,433.2963,433.797,,,,,,316,FEM,NOWORD,DIS,150,riosa,,el,,0.5603,,433.797,433.7971,0.573324653,0.125208333,0,0,0,,0,196,196,315,1,reina,,,,,
,,,,,,6140c26c2ee391b3f4601f01,676192165fb32c2e1fb7aee6,67d1f41f93c04bc02fd4754f,2025-03-12_14h53.19.709,Tarea de decisión léxica,2024.2.5,MacIntel,60.24096386,,,,,,,,,,,,,,,,,,,,,,,433.798,435.2642,a,1,0.7823,1,435.2643,435.7633,,,,,,412,MAS,NOWORD,DIS,150,mobro,,la,,0.7823,,435.7633,435.7635,0.573324653,0.125208333,0,0,0,,0,197,197,411,1,pollo,,,,,
,,,,,,6140c26c2ee391b3f4601f01,676192165fb32c2e1fb7aee6,67d1f41f93c04bc02fd4754f,2025-03-12_14h53.19.709,Tarea de decisión léxica,2024.2.5,MacIntel,60.24096386,,,,,,,,,,,,,,,,,,,,,,,435.7644,436.8311,a,1,0.3664,1,436.8313,437.3307,,,,,,456,MAS,NOWORD,DIS,150,riaso,,la,,0.3664,,437.3307,437.3309,0.573324653,0.125208333,0,0,0,,0,198,198,455,1,reino,,,,,
,,,,,,6140c26c2ee391b3f4601f01,676192165fb32c2e1fb7aee6,67d1f41f93c04bc02fd4754f,2025-03-12_14h53.19.709,Tarea de decisión léxica,2024.2.5,MacIntel,60.24096386,,,,,,,,,,,,,,,,,,,,,,,437.332,438.4637,a,1,0.4542,1,438.4638,438.9634,,,,,,94,FEM,NOWORD,AGR,150,rona,,la,,0.4542,,438.9646,438.9656,0.573324653,0.125208333,0,0,0,,0,199,199,93,1,bola,,,,,
,,,,,,6140c26c2ee391b3f4601f01,676192165fb32c2e1fb7aee6,67d1f41f93c04bc02fd4754f,2025-03-12_14h53.19.709,Tarea de decisión léxica,2024.2.5,MacIntel,60.24096386,,,,,,,,,,,,,,,,,,,,,,,438.9663,440.0645,l,1,0.4235,1,440.0647,440.564,,,,,,349,MAS,WORD,AGR,150,color,,el,,0.4235,,440.5641,440.5641,0.573324653,0.125208333,0,0,0,,0,200,200,348,1,cosir,,,,,
,,,,,,6140c26c2ee391b3f4601f01,676192165fb32c2e1fb7aee6,67d1f41f93c04bc02fd4754f,2025-03-12_14h53.19.709,Tarea de decisión léxica,2024.2.5,MacIntel,60.24096386,,,,,,,,,,,,,,,,,,,,,,,440.565,441.7307,l,1,0.4877,1,441.7308,442.2313,,,,,,169,MAS,WORD,AGR,150,cubo,,el,,0.4877,,442.2313,442.2314,0.573324653,0.125208333,0,0,0,,0,201,201,168,1,mibo,,,,,
,,,,,,6140c26c2ee391b3f4601f01,676192165fb32c2e1fb7aee6,67d1f41f93c04bc02fd4754f,2025-03-12_14h53.19.709,Tarea de decisión léxica,2024.2.5,MacIntel,60.24096386,,,,,,,,,,,,,,,,,,,,,,,442.2322,443.2647,l,1,0.3516,1,443.2647,443.7642,,,,,,253,MAS,WORD,AGR,150,chico,,el,,0.3516,,443.7643,443.7643,0.573324653,0.125208333,0,0,0,,0,202,202,252,1,trido,,,,,
,,,,,,6140c26c2ee391b3f4601f01,676192165fb32c2e1fb7aee6,67d1f41f93c04bc02fd4754f,2025-03-12_14h53.19.709,Tarea de decisión léxica,2024.2.5,MacIntel,60.24096386,,,,,,,,,,,,,,,,,,,,,,,443.7652,444.8977,l,1,0.4363,1,444.8978,445.3976,,,,,,137,MAS,WORD,AGR,150,nene,,el,,0.4363,,445.3987,445.4001,0.573324653,0.125208333,0,0,0,,0,203,203,136,1,pamo,,,,,
,,,,,,6140c26c2ee391b3f4601f01,676192165fb32c2e1fb7aee6,67d1f41f93c04bc02fd4754f,2025-03-12_14h53.19.709,Tarea de decisión léxica,2024.2.5,MacIntel,60.24096386,,,,,,,,,,,,,,,,,,,,,,,445.4008,446.431,l,1,0.3538,1,446.4311,446.9312,,,,,,123,FEM,WORD,DIS,150,flor,,el,,0.3538,,446.9312,446.9313,0.573324653,0.125208333,0,0,0,,0,204,204,122,1,maba,,,,,
,,,,,,6140c26c2ee391b3f4601f01,676192165fb32c2e1fb7aee6,67d1f41f93c04bc02fd4754f,2025-03-12_14h53.19.709,Tarea de decisión léxica,2024.2.5,MacIntel,60.24096386,,,,,,,,,,,,,,,,,,,,,,,446.9325,447.9982,a,1,0.3899,1,447.9983,448.4975,,,,,,468,MAS,NOWORD,DIS,150,peiso,,la,,0.3899,,448.4976,448.4977,0.573324653,0.125208333,0,0,0,,0,205,205,467,1,piano,,,,,
,,,,,,6140c26c2ee391b3f4601f01,676192165fb32c2e1fb7aee6,67d1f41f93c04bc02fd4754f,2025-03-12_14h53.19.709,Tarea de decisión léxica,2024.2.5,MacIntel,60.24096386,,,,,,,,,,,,,,,,,,,,,,,448.4987,449.4644,l,1,0.2938,1,449.4645,449.965,,,,,,391,MAS,WORD,DIS,150,dueño,,la,,0.2938,,449.9651,449.9651,0.573324653,0.125208333,0,0,0,,0,206,206,390,1,dievo,,,,,
,,,,,,6140c26c2ee391b3f4601f01,676192165fb32c2e1fb7aee6,67d1f41f93c04bc02fd4754f,2025-03-12_14h53.19.709,Tarea de decisión léxica,2024.2.5,MacIntel,60.24096386,,,,,,,,,,,,,,,,,,,,,,,449.9659,451.0319,l,1,0.3932,1,451.0319,451.5319,,,,,,267,MAS,WORD,DIS,150,libro,,la,,0.3932,,451.532,451.5321,0.573324653,0.125208333,0,0,0,,0,207,207,266,1,figro,,,,,
,,,,,,6140c26c2ee391b3f4601f01,676192165fb32c2e1fb7aee6,67d1f41f93c04bc02fd4754f,2025-03-12_14h53.19.709,Tarea de decisión léxica,2024.2.5,MacIntel,60.24096386,,,,,,,,,,,,,,,,,,,,,,,451.533,453.3653,l,1,1.1355,1,453.3654,453.8648,,,,,,291,FEM,WORD,DIS,150,pista,,el,,1.1355,,453.8658,453.8666,0.573324653,0.125208333,0,0,0,,0,208,208,290,1,mesta,,,,,
,,,,,,6140c26c2ee391b3f4601f01,676192165fb32c2e1fb7aee6,67d1f41f93c04bc02fd4754f,2025-03-12_14h53.19.709,Tarea de decisión léxica,2024.2.5,MacIntel,60.24096386,,,,,,,,,,,,,,,,,,,,,,,453.8673,455.0315,a,1,0.4669,1,455.0316,455.5321,,,,,,190,MAS,NOWORD,AGR,150,muvo,,el,,0.4669,,455.5322,455.5323,0.573324653,0.125208333,0,0,0,,0,209,209,189,1,puño,,,,,
,,,,,,6140c26c2ee391b3f4601f01,676192165fb32c2e1fb7aee6,67d1f41f93c04bc02fd4754f,2025-03-12_14h53.19.709,Tarea de decisión léxica,2024.2.5,MacIntel,60.24096386,,,,,,,,,,,,,,,,,,,,,,,455.5331,456.6651,a,1,0.4465,1,456.6652,457.1656,,,,,,98,MAS,NOWORD,AGR,150,fopo,,el,,0.4465,,457.1657,457.1659,0.573324653,0.125208333,0,0,0,,0,210,210,97,1,mono,,,,,
,,,,,,6140c26c2ee391b3f4601f01,676192165fb32c2e1fb7aee6,67d1f41f93c04bc02fd4754f,2025-03-12_14h53.19.709,Tarea de decisión léxica,2024.2.5,MacIntel,60.24096386,,,,,,,,,,,,,,,,,,,,,,,457.1668,458.3984,l,1,0.55,1,458.3984,458.8991,,,,,,27,MAS,WORD,DIS,150,baño,,la,,0.55,,458.8992,458.8993,0.573324653,0.125208333,0,0,0,,0,211,211,26,1,ravo,,,,,
,,,,,,6140c26c2ee391b3f4601f01,676192165fb32c2e1fb7aee6,67d1f41f93c04bc02fd4754f,2025-03-12_14h53.19.709,Tarea de decisión léxica,2024.2.5,MacIntel,60.24096386,,,,,,,,,,,,,,,,,,,,,,,458.9003,459.9991,l,1,0.4038,1,459.9992,460.4984,,,,,,85,MAS,WORD,AGR,150,lago,,el,,0.4038,,460.4984,460.4985,0.573324653,0.125208333,0,0,0,,0,212,212,84,1,babo,,,,,
,,,,,,6140c26c2ee391b3f4601f01,676192165fb32c2e1fb7aee6,67d1f41f93c04bc02fd4754f,2025-03-12_14h53.19.709,Tarea de decisión léxica,2024.2.5,MacIntel,60.24096386,,,,,,,,,,,,,,,,,,,,,,,460.4994,461.7654,l,1,0.5741,1,461.7655,462.266,,,,,,17,FEM,WORD,AGR,150,mamá,,la,,0.5741,,462.2669,462.2677,0.573324653,0.125208333,0,0,0,,0,213,213,16,1,paba,,,,,
,,,,,,6140c26c2ee391b3f4601f01,676192165fb32c2e1fb7aee6,67d1f41f93c04bc02fd4754f,2025-03-12_14h53.19.709,Tarea de decisión léxica,2024.2.5,MacIntel,60.24096386,,,,,,,,,,,,,,,,,,,,,,,462.2686,463.3664,a,1,0.4299,1,463.3665,463.8652,,,,,,288,FEM,NOWORD,DIS,150,fosta,,el,,0.4299,,463.8653,463.8654,0.573324653,0.125208333,0,0,0,,0,214,214,287,1,lista,,,,,
,,,,,,6140c26c2ee391b3f4601f01,676192165fb32c2e1fb7aee6,67d1f41f93c04bc02fd4754f,2025-03-12_14h53.19.709,Tarea de decisión léxica,2024.2.5,MacIntel,60.24096386,,,,,,,,,,,,,,,,,,,,,,,463.8662,465.2658,a,1,0.7107,1,465.2659,465.766,,,,,,414,FEM,NOWORD,AGR,150,bieda,,la,,0.7107,,465.7661,465.7662,0.573324653,0.125208333,0,0,0,,0,215,215,413,1,rueda,,,,,
,,,,,,6140c26c2ee391b3f4601f01,676192165fb32c2e1fb7aee6,67d1f41f93c04bc02fd4754f,2025-03-12_14h53.19.709,Tarea de decisión léxica,2024.2.5,MacIntel,60.24096386,,,,,,,,,,,,,,,,,,,,,,,465.7672,467.2662,l,1,0.8194,1,467.2662,467.7661,,,,,,459,MAS,WORD,DIS,150,grado,,la,,0.8194,,467.7663,467.7663,0.573324653,0.125208333,0,0,0,,0,216,216,458,1,fraco,,,,,
,,,,,,6140c26c2ee391b3f4601f01,676192165fb32c2e1fb7aee6,67d1f41f93c04bc02fd4754f,2025-03-12_14h53.19.709,Tarea de decisión léxica,2024.2.5,MacIntel,60.24096386,,,,,,,,,,,,,,,,,,,,,,,467.7673,468.9659,a,1,0.5004,1,468.966,469.4664,,,,,,148,FEM,NOWORD,DIS,150,pama,,el,,0.5004,,469.4665,469.4667,0.573324653,0.125208333,0,0,0,,0,217,217,147,1,hoja,,,,,
,,,,,,6140c26c2ee391b3f4601f01,676192165fb32c2e1fb7aee6,67d1f41f93c04bc02fd4754f,2025-03-12_14h53.19.709,Tarea de decisión léxica,2024.2.5,MacIntel,60.24096386,,,,,,,,,,,,,,,,,,,,,,,469.4674,470.6659,a,1,0.5187,1,470.666,471.1659,,,,,,424,MAS,NOWORD,DIS,150,quigo,,la,,0.5187,,471.1666,471.1674,0.573324653,0.125208333,0,0,0,,0,218,218,423,1,queso,,,,,
,,,,,,6140c26c2ee391b3f4601f01,676192165fb32c2e1fb7aee6,67d1f41f93c04bc02fd4754f,2025-03-12_14h53.19.709,Tarea de decisión léxica,2024.2.5,MacIntel,60.24096386,,,,,,,,,,,,,,,,,,,,,,,471.1681,472.3002,a,1,0.4431,1,472.3003,472.7992,,,,,,322,MAS,NOWORD,AGR,150,rarco,,el,,0.4431,,472.7992,472.7994,0.573324653,0.125208333,0,0,0,,0,219,219,321,1,banco,,,,,
,,,,,,6140c26c2ee391b3f4601f01,676192165fb32c2e1fb7aee6,67d1f41f93c04bc02fd4754f,2025-03-12_14h53.19.709,Tarea de decisión léxica,2024.2.5,MacIntel,60.24096386,,,,,,,,,,,,,,,,,,,,,,,472.8002,473.8668,l,1,0.3686,1,473.8669,474.3668,,,,,,215,FEM,WORD,DIS,150,raíz,,el,,0.3686,,474.3669,474.367,0.573324653,0.125208333,0,0,0,,0,220,220,214,1,raua,,,,,
,,,,,,6140c26c2ee391b3f4601f01,676192165fb32c2e1fb7aee6,67d1f41f93c04bc02fd4754f,2025-03-12_14h53.19.709,Tarea de decisión léxica,2024.2.5,MacIntel,60.24096386,,,,,,,,,,,,,,,,,,,,,,,474.368,475.4327,a,1,0.3884,1,475.4328,475.9337,,,,,,70,FEM,NOWORD,AGR,150,ñola,,la,,0.3884,,475.9337,475.9338,0.573324653,0.125208333,0,0,0,,0,221,221,69,1,zona,,,,,
,,,,,,6140c26c2ee391b3f4601f01,676192165fb32c2e1fb7aee6,67d1f41f93c04bc02fd4754f,2025-03-12_14h53.19.709,Tarea de decisión léxica,2024.2.5,MacIntel,60.24096386,,,,,,,,,,,,,,,,,,,,,,,475.9346,477.0327,a,1,0.4188,1,477.0327,477.5336,,,,,,118,MAS,NOWORD,AGR,150,movo,,el,,0.4188,,477.5337,477.5338,0.573324653,0.125208333,0,0,0,,0,222,222,117,1,palo,,,,,
,,,,,,6140c26c2ee391b3f4601f01,676192165fb32c2e1fb7aee6,67d1f41f93c04bc02fd4754f,2025-03-12_14h53.19.709,Tarea de decisión léxica,2024.2.5,MacIntel,60.24096386,,,,,,,,,,,,,,,,,,,,,,,477.5347,478.633,a,1,0.4007,1,478.6331,479.1334,,,,,,222,FEM,NOWORD,AGR,150,puca,,la,,0.4007,,479.1345,479.1354,0.573324653,0.125208333,0,0,0,,0,223,223,221,1,mula,,,,,
,,,,,,6140c26c2ee391b3f4601f01,676192165fb32c2e1fb7aee6,67d1f41f93c04bc02fd4754f,2025-03-12_14h53.19.709,Tarea de decisión léxica,2024.2.5,MacIntel,60.24096386,,,,,,,,,,,,,,,,,,,,,,,479.1364,480.1334,a,1,0.328,1,480.1335,480.634,,,,,,308,MAS,NOWORD,DIS,150,holol,,la,,0.328,,480.634,480.6342,0.573324653,0.125208333,0,0,0,,0,224,224,307,1,hotel,,,,,
,,,,,,6140c26c2ee391b3f4601f01,676192165fb32c2e1fb7aee6,67d1f41f93c04bc02fd4754f,2025-03-12_14h53.19.709,Tarea de decisión léxica,2024.2.5,MacIntel,60.24096386,,,,,,,,,,,,,,,,,,,,,,,480.6352,481.7665,l,1,0.4477,1,481.7666,482.267,,,,,,243,MAS,WORD,DIS,150,amigo,,la,,0.4477,,482.2671,482.2672,0.573324653,0.125208333,0,0,0,,0,225,225,242,1,asamo,,,,,
,,,,,,6140c26c2ee391b3f4601f01,676192165fb32c2e1fb7aee6,67d1f41f93c04bc02fd4754f,2025-03-12_14h53.19.709,Tarea de decisión léxica,2024.2.5,MacIntel,60.24096386,,,,,,,,,,,,,,,,,,,,,,,482.2681,483.3005,l,1,0.3555,1,483.3005,483.8008,,,,,,25,FEM,WORD,AGR,150,cama,,la,,0.3555,,483.8008,483.801,0.573324653,0.125208333,0,0,0,,0,226,226,24,1,paza,,,,,
,,,,,,6140c26c2ee391b3f4601f01,676192165fb32c2e1fb7aee6,67d1f41f93c04bc02fd4754f,2025-03-12_14h53.19.709,Tarea de decisión léxica,2024.2.5,MacIntel,60.24096386,,,,,,,,,,,,,,,,,,,,,,,483.8021,485.0334,a,1,0.5512,1,485.0335,485.5336,,,,,,132,FEM,NOWORD,DIS,150,fada,,el,,0.5512,,485.5347,485.536,0.573324653,0.125208333,0,0,0,,0,227,227,131,1,mina,,,,,
,,,,,,6140c26c2ee391b3f4601f01,676192165fb32c2e1fb7aee6,67d1f41f93c04bc02fd4754f,2025-03-12_14h53.19.709,Tarea de decisión léxica,2024.2.5,MacIntel,60.24096386,,,,,,,,,,,,,,,,,,,,,,,485.5367,486.7001,l,1,0.4705,1,486.7002,487.2005,,,,,,401,MAS,WORD,AGR,150,polvo,,el,,0.4705,,487.2005,487.2007,0.573324653,0.125208333,0,0,0,,0,228,228,400,1,pirvo,,,,,
,,,,,,6140c26c2ee391b3f4601f01,676192165fb32c2e1fb7aee6,67d1f41f93c04bc02fd4754f,2025-03-12_14h53.19.709,Tarea de decisión léxica,2024.2.5,MacIntel,60.24096386,,,,,,,,,,,,,,,,,,,,,,,487.2018,488.3681,a,0,0.4679,0,488.3689,488.8674,,,,,,219,FEM,WORD,DIS,150,pipa,,el,,0.4679,,488.8674,488.8675,0.573324653,0.125208333,0,0,0,,0,229,229,218,1,miva,,,,,
,,,,,,6140c26c2ee391b3f4601f01,676192165fb32c2e1fb7aee6,67d1f41f93c04bc02fd4754f,2025-03-12_14h53.19.709,Tarea de decisión léxica,2024.2.5,MacIntel,60.24096386,,,,,,,,,,,,,,,,,,,,,,,488.8684,490.0671,a,1,0.5255,1,490.0677,490.568,,,,,,154,MAS,NOWORD,AGR,150,tado,,el,,0.5255,,490.5681,490.5682,0.573324653,0.125208333,0,0,0,,0,230,230,153,1,pato,,,,,
,,,,,,6140c26c2ee391b3f4601f01,676192165fb32c2e1fb7aee6,67d1f41f93c04bc02fd4754f,2025-03-12_14h53.19.709,Tarea de decisión léxica,2024.2.5,MacIntel,60.24096386,,,,,,,,,,,,,,,,,,,,,,,490.5692,491.7675,a,1,0.5212,1,491.7676,492.268,,,,,,96,FEM,NOWORD,DIS,151,neda,,el,,0.5212,,492.2682,492.2682,0.573324653,0.125208333,0,0,0,,0,231,231,95,1,moda,,,,,
,,,,,,6140c26c2ee391b3f4601f01,676192165fb32c2e1fb7aee6,67d1f41f93c04bc02fd4754f,2025-03-12_14h53.19.709,Tarea de decisión léxica,2024.2.5,MacIntel,60.24096386,,,,,,,,,,,,,,,,,,,,,,,492.2694,493.5682,a,1,0.6008,1,493.5683,494.0676,,,,,,188,MAS,NOWORD,DIS,150,suto,,la,,0.6008,,494.0687,494.0696,0.573324653,0.125208333,0,0,0,,0,232,232,187,1,mito,,,,,
,,,,,,6140c26c2ee391b3f4601f01,676192165fb32c2e1fb7aee6,67d1f41f93c04bc02fd4754f,2025-03-12_14h53.19.709,Tarea de decisión léxica,2024.2.5,MacIntel,60.24096386,,,,,,,,,,,,,,,,,,,,,,,494.0703,495.2017,l,1,0.4441,1,495.2018,495.7013,,,,,,411,MAS,WORD,DIS,150,pollo,,la,,0.4441,,495.7014,495.7016,0.573324653,0.125208333,0,0,0,,0,233,233,410,1,mobro,,,,,
,,,,,,6140c26c2ee391b3f4601f01,676192165fb32c2e1fb7aee6,67d1f41f93c04bc02fd4754f,2025-03-12_14h53.19.709,Tarea de decisión léxica,2024.2.5,MacIntel,60.24096386,,,,,,,,,,,,,,,,,,,,,,,495.7025,496.9684,l,1,0.5735,1,496.9684,497.4684,,,,,,285,MAS,WORD,AGR,150,error,,el,,0.5735,,497.4685,497.4686,0.573324653,0.125208333,0,0,0,,0,234,234,284,1,echor,,,,,
,,,,,,6140c26c2ee391b3f4601f01,676192165fb32c2e1fb7aee6,67d1f41f93c04bc02fd4754f,2025-03-12_14h53.19.709,Tarea de decisión léxica,2024.2.5,MacIntel,60.24096386,,,,,,,,,,,,,,,,,,,,,,,497.4696,498.5351,l,1,0.3723,1,498.5352,499.0352,,,,,,109,MAS,WORD,AGR,150,rayo,,el,,0.3723,,499.0353,499.0354,0.573324653,0.125208333,0,0,0,,0,235,235,108,1,suno,,,,,
,,,,,,6140c26c2ee391b3f4601f01,676192165fb32c2e1fb7aee6,67d1f41f93c04bc02fd4754f,2025-03-12_14h53.19.709,Tarea de decisión léxica,2024.2.5,MacIntel,60.24096386,,,,,,,,,,,,,,,,,,,,,,,499.0364,500.1348,l,0,0.4232,0,500.1354,500.6354,,,,,,180,MAS,NOWORD,DIS,150,sono,,la,,0.4232,,500.6354,500.6355,0.573324653,0.125208333,0,0,0,,0,236,236,179,1,toro,,,,,
,,,,,,6140c26c2ee391b3f4601f01,676192165fb32c2e1fb7aee6,67d1f41f93c04bc02fd4754f,2025-03-12_14h53.19.709,Tarea de decisión léxica,2024.2.5,MacIntel,60.24096386,,,,,,,,,,,,,,,,,,,,,,,500.6363,501.8021,l,1,0.4748,1,501.803,502.3015,,,,,,239,MAS,WORD,DIS,150,mozo,,la,,0.4748,,502.3025,502.3034,0.573324653,0.125208333,0,0,0,,0,237,237,238,1,poño,,,,,
,,,,,,6140c26c2ee391b3f4601f01,676192165fb32c2e1fb7aee6,67d1f41f93c04bc02fd4754f,2025-03-12_14h53.19.709,Tarea de decisión léxica,2024.2.5,MacIntel,60.24096386,,,,,,,,,,,,,,,,,,,,,,,502.3041,503.3688,l,1,0.3763,1,503.369,503.8688,,,,,,33,FEM,WORD,AGR,150,boca,,la,,0.3763,,503.8689,503.869,0.573324653,0.125208333,0,0,0,,0,238,238,32,1,loda,,,,,
,,,,,,6140c26c2ee391b3f4601f01,676192165fb32c2e1fb7aee6,67d1f41f93c04bc02fd4754f,2025-03-12_14h53.19.709,Tarea de decisión léxica,2024.2.5,MacIntel,60.24096386,,,,,,,,,,,,,,,,,,,,,,,503.87,505.3357,a,1,0.7878,1,505.3358,505.8353,,,,,,302,FEM,NOWORD,AGR,150,ranga,,la,,0.7878,,505.8353,505.8354,0.573324653,0.125208333,0,0,0,,0,239,239,301,1,banda,,,,,
,,,,,,6140c26c2ee391b3f4601f01,676192165fb32c2e1fb7aee6,67d1f41f93c04bc02fd4754f,2025-03-12_14h53.19.709,Tarea de decisión léxica,2024.2.5,MacIntel,60.24096386,,,,,,,,,,,,,,,,,,,,,,,505.8366,506.8025,l,1,0.283,1,506.8025,507.3021,,,,,,443,MAS,WORD,DIS,150,salón,,la,,0.283,,507.3021,507.3023,0.573324653,0.125208333,0,0,0,,0,240,240,442,1,taron,,,,,
,,,,,,6140c26c2ee391b3f4601f01,676192165fb32c2e1fb7aee6,67d1f41f93c04bc02fd4754f,2025-03-12_14h53.19.709,Tarea de decisión léxica,2024.2.5,MacIntel,60.24096386,,,,,,,,,,,,,,,,,,,,,,,507.3032,508.3353,l,1,0.3606,1,508.3353,508.835,,,,,,357,FEM,WORD,AGR,150,bruja,,la,,0.3606,,508.835,508.8351,0.573324653,0.125208333,0,0,0,,0,241,241,356,1,gruba,,,,,
,,,,,,6140c26c2ee391b3f4601f01,676192165fb32c2e1fb7aee6,67d1f41f93c04bc02fd4754f,2025-03-12_14h53.19.709,Tarea de decisión léxica,2024.2.5,MacIntel,60.24096386,,,,,,,,,,,,,,,,,,,,,,,508.8362,509.9351,a,1,0.4285,1,509.9352,510.436,,,,,,454,FEM,NOWORD,AGR,150,pafia,,la,,0.4285,,510.4371,510.438,0.573324653,0.125208333,0,0,0,,0,242,242,453,1,mafia,,,,,
,,,,,,6140c26c2ee391b3f4601f01,676192165fb32c2e1fb7aee6,67d1f41f93c04bc02fd4754f,2025-03-12_14h53.19.709,Tarea de decisión léxica,2024.2.5,MacIntel,60.24096386,,,,,,,,,,,,,,,,,,,,,,,510.4388,511.5358,a,1,0.4207,1,511.536,512.0361,,,,,,68,FEM,NOWORD,DIS,150,gesa,,el,,0.4207,,512.0361,512.0363,0.573324653,0.125208333,0,0,0,,0,243,243,67,1,nena,,,,,
,,,,,,6140c26c2ee391b3f4601f01,676192165fb32c2e1fb7aee6,67d1f41f93c04bc02fd4754f,2025-03-12_14h53.19.709,Tarea de decisión léxica,2024.2.5,MacIntel,60.24096386,,,,,,,,,,,,,,,,,,,,,,,512.0371,513.2363,l,1,0.5048,1,513.2364,513.736,,,,,,289,FEM,WORD,AGR,150,bomba,,la,,0.5048,,513.736,513.7361,0.573324653,0.125208333,0,0,0,,0,244,244,288,1,bumpa,,,,,
,,,,,,6140c26c2ee391b3f4601f01,676192165fb32c2e1fb7aee6,67d1f41f93c04bc02fd4754f,2025-03-12_14h53.19.709,Tarea de decisión léxica,2024.2.5,MacIntel,60.24096386,,,,,,,,,,,,,,,,,,,,,,,513.737,514.8363,l,1,0.4265,1,514.8363,515.3362,,,,,,101,MAS,WORD,AGR,150,tono,,el,,0.4265,,515.3362,515.3363,0.573324653,0.125208333,0,0,0,,0,245,245,100,1,gito,,,,,
,,,,,,6140c26c2ee391b3f4601f01,676192165fb32c2e1fb7aee6,67d1f41f93c04bc02fd4754f,2025-03-12_14h53.19.709,Tarea de decisión léxica,2024.2.5,MacIntel,60.24096386,,,,,,,,,,,,,,,,,,,,,,,515.3371,516.3366,l,1,0.3073,1,516.3366,516.8357,,,,,,63,FEM,WORD,DIS,150,luna,,el,,0.3073,,516.8358,516.8359,0.573324653,0.125208333,0,0,0,,0,246,246,62,1,funa,,,,,
,,,,,,6140c26c2ee391b3f4601f01,676192165fb32c2e1fb7aee6,67d1f41f93c04bc02fd4754f,2025-03-12_14h53.19.709,Tarea de decisión léxica,2024.2.5,MacIntel,60.24096386,,,,,,,,,,,,,,,,,,,,,,,516.8369,518.0699,a,1,0.5372,1,518.0699,518.5694,,,,,,88,MAS,NOWORD,DIS,150,damo,,la,,0.5372,,518.5703,518.5712,0.573324653,0.125208333,0,0,0,,0,247,247,87,1,vaso,,,,,
,,,,,,6140c26c2ee391b3f4601f01,676192165fb32c2e1fb7aee6,67d1f41f93c04bc02fd4754f,2025-03-12_14h53.19.709,Tarea de decisión léxica,2024.2.5,MacIntel,60.24096386,,,,,,,,,,,,,,,,,,,,,,,518.5719,519.7361,l,1,0.4761,1,519.7361,520.2367,,,,,,121,MAS,WORD,AGR,150,hoyo,,el,,0.4761,,520.2367,520.2369,0.573324653,0.125208333,0,0,0,,0,248,248,120,1,bomo,,,,,
,,,,,,6140c26c2ee391b3f4601f01,676192165fb32c2e1fb7aee6,67d1f41f93c04bc02fd4754f,2025-03-12_14h53.19.709,Tarea de decisión léxica,2024.2.5,MacIntel,60.24096386,,,,,,,,,,,,,,,,,,,,,,,520.2379,521.2701,l,1,0.3463,1,521.2702,521.7699,,,,,,427,FEM,WORD,DIS,150,oreja,,el,,0.3463,,521.77,521.7701,0.573324653,0.125208333,0,0,0,,0,249,249,426,1,oseva,,,,,
,,,,,,6140c26c2ee391b3f4601f01,676192165fb32c2e1fb7aee6,67d1f41f93c04bc02fd4754f,2025-03-12_14h53.19.709,Tarea de decisión léxica,2024.2.5,MacIntel,60.24096386,,,,,,,,,,,,,,,,,,,,,,,521.7712,522.9361,a,0,0.4938,0,522.9367,523.436,,,,,,127,MAS,WORD,DIS,150,pico,,la,,0.4938,,523.4361,523.4362,0.573324653,0.125208333,0,0,0,,0,250,250,126,1,itio,,,,,
,,,,,,6140c26c2ee391b3f4601f01,676192165fb32c2e1fb7aee6,67d1f41f93c04bc02fd4754f,2025-03-12_14h53.19.709,Tarea de decisión léxica,2024.2.5,MacIntel,60.24096386,,,,,,,,,,,,,,,,,,,,,,,523.4372,524.4694,l,1,0.3326,1,524.4701,524.9703,,,,,,241,MAS,WORD,AGR,150,mundo,,el,,0.3326,,524.9714,524.9725,0.573324653,0.125208333,0,0,0,,0,251,251,240,1,mirdo,,,,,
,,,,,,6140c26c2ee391b3f4601f01,676192165fb32c2e1fb7aee6,67d1f41f93c04bc02fd4754f,2025-03-12_14h53.19.709,Tarea de decisión léxica,2024.2.5,MacIntel,60.24096386,,,,,,,,,,,,,,,,,,,,,,,524.9733,525.9371,l,1,0.2932,1,525.9371,526.4371,,,,,,229,MAS,WORD,AGR,150,amor,,el,,0.2932,,526.4372,526.4374,0.573324653,0.125208333,0,0,0,,0,252,252,228,1,ador,,,,,
,,,,,,6140c26c2ee391b3f4601f01,676192165fb32c2e1fb7aee6,67d1f41f93c04bc02fd4754f,2025-03-12_14h53.19.709,Tarea de decisión léxica,2024.2.5,MacIntel,60.24096386,,,,,,,,,,,,,,,,,,,,,,,526.4383,527.4369,l,1,0.3228,1,527.437,527.9371,,,,,,449,FEM,WORD,AGR,150,pluma,,la,,0.3228,,527.9372,527.9373,0.573324653,0.125208333,0,0,0,,0,253,253,448,1,crusa,,,,,
,,,,,,6140c26c2ee391b3f4601f01,676192165fb32c2e1fb7aee6,67d1f41f93c04bc02fd4754f,2025-03-12_14h53.19.709,Tarea de decisión léxica,2024.2.5,MacIntel,60.24096386,,,,,,,,,,,,,,,,,,,,,,,527.9382,528.9033,l,1,0.2943,1,528.9034,529.4035,,,,,,3,FEM,WORD,DIS,150,vida,,el,,0.2943,,529.4036,529.4036,0.573324653,0.125208333,0,0,0,,0,254,254,2,1,dica,,,,,
,,,,,,6140c26c2ee391b3f4601f01,676192165fb32c2e1fb7aee6,67d1f41f93c04bc02fd4754f,2025-03-12_14h53.19.709,Tarea de decisión léxica,2024.2.5,MacIntel,60.24096386,,,,,,,,,,,,,,,,,,,,,,,529.4045,530.3707,l,1,0.2827,1,530.3708,530.8702,,,,,,319,MAS,WORD,DIS,150,suelo,,la,,0.2827,,530.8703,530.8704,0.573324653,0.125208333,0,0,0,,0,255,255,318,1,tuero,,,,,
,,,,,,6140c26c2ee391b3f4601f01,676192165fb32c2e1fb7aee6,67d1f41f93c04bc02fd4754f,2025-03-12_14h53.19.709,Tarea de decisión léxica,2024.2.5,MacIntel,60.24096386,,,,,,,,,,,,,,,,,,,,,,,530.8713,531.9034,a,1,0.3427,1,531.9035,532.4044,,,,,,330,MAS,NOWORD,AGR,150,nueno,,el,,0.3427,,532.4056,532.4067,0.573324653,0.125208333,0,0,0,,0,256,256,329,1,hueso,,,,,
,,,,,,6140c26c2ee391b3f4601f01,676192165fb32c2e1fb7aee6,67d1f41f93c04bc02fd4754f,2025-03-12_14h53.19.709,Tarea de decisión léxica,2024.2.5,MacIntel,60.24096386,,,,,,,,,,,,,,,,,,,,,,,532.4073,533.5043,l,1,0.414,1,533.5044,534.0044,,,,,,295,MAS,WORD,DIS,150,dolor,,la,,0.414,,534.0045,534.0047,0.573324653,0.125208333,0,0,0,,0,257,257,294,1,goler,,,,,
,,,,,,6140c26c2ee391b3f4601f01,676192165fb32c2e1fb7aee6,67d1f41f93c04bc02fd4754f,2025-03-12_14h53.19.709,Tarea de decisión léxica,2024.2.5,MacIntel,60.24096386,,,,,,,,,,,,,,,,,,,,,,,534.0058,535.2043,l,1,0.5246,1,535.2043,535.7034,,,,,,207,MAS,WORD,DIS,150,kilo,,la,,0.5246,,535.7035,535.7037,0.573324653,0.125208333,0,0,0,,0,258,258,206,1,kedo,,,,,
,,,,,,6140c26c2ee391b3f4601f01,676192165fb32c2e1fb7aee6,67d1f41f93c04bc02fd4754f,2025-03-12_14h53.19.709,Tarea de decisión léxica,2024.2.5,MacIntel,60.24096386,,,,,,,,,,,,,,,,,,,,,,,535.7047,536.8047,a,1,0.4103,1,536.8048,537.3043,,,,,,208,MAS,NOWORD,DIS,150,kedo,,la,,0.4103,,537.3043,537.3044,0.573324653,0.125208333,0,0,0,,0,259,259,207,1,kilo,,,,,
,,,,,,6140c26c2ee391b3f4601f01,676192165fb32c2e1fb7aee6,67d1f41f93c04bc02fd4754f,2025-03-12_14h53.19.709,Tarea de decisión léxica,2024.2.5,MacIntel,60.24096386,,,,,,,,,,,,,,,,,,,,,,,537.3052,538.3375,l,1,0.3352,1,538.3375,538.838,,,,,,361,FEM,WORD,AGR,150,torre,,la,,0.3352,,538.838,538.8381,0.573324653,0.125208333,0,0,0,,0,260,260,360,1,solle,,,,,
