counterbalancing_condition,consent_prescreening.block_1/declare_consent,consent_prescreening.block_1/age_years,consent_prescreening.block_1/gender,consent_prescreening.block_1/language_disorder,consent_prescreening.block_1/first_language,PROLIFIC_PID,STUDY_ID,SESSION_ID,date,expName,psychopyVersion,OS,frameRate,check_prescreening_answers.started,check_prescreening_answers.stopped,Instructions.started,Instructions.stopped,instr_done_keyboard.keys,instr_done_keyboard.rt,instr_done_keyboard.duration,instr_done_touch.x,instr_done_touch.y,instr_done_touch.leftButton,instr_done_touch.midButton,instr_done_touch.rightButton,instruction_pages.thisRepN,instruction_pages.thisTrialN,instruction_pages.thisN,instruction_pages.thisIndex,instruction_pages.ran,pageN,phase,instruct_text,has_image,instruct_image,presentTrial.started,presentTrial.stopped,response.keys,response.corr,rt,corr,feedback.started,feedback.stopped,practice_trials.thisRepN,practice_trials.thisTrialN,practice_trials.thisN,practice_trials.thisIndex,practice_trials.ran,TrialID,Gender,StimulusType,Condition,PrimeDuration,Prime,len,Flanker,corrAns,response.rt,response.duration,Break.started,Break.stopped,break_done_touch.x,break_done_touch.y,break_done_touch.leftButton,break_done_touch.midButton,break_done_touch.rightButton,break_done_keyboard.keys,experiment_trials.thisRepN,experiment_trials.thisTrialN,experiment_trials.thisN,experiment_trials.thisIndex,experiment_trials.ran,PairedWith,break_done_keyboard.rt,break_done_keyboard.duration,End.started,End.stopped
1,"[""over_18"",""comfortable"",""read_info"",""consent_given""]",22,F,"[""none""]","[""spanish""]",61503885693f6ebde3f2fcbc,676192165fb32c2e1fb7aee6,67d1942325158f41a334c2f9,2025-03-12_15h06.09.008,Tarea de decisión léxica,2024.2.5,Win32,30.58103976,,,,,,,,,,,,,,,,,,,,,,,,,,,,,,,,,,,,,,,,,,,,,,,,,,,,,,,,,,,,,,,,
,,,,,,61503885693f6ebde3f2fcbc,676192165fb32c2e1fb7aee6,67d1942325158f41a334c2f9,2025-03-12_15h06.09.008,Tarea de decisión léxica,2024.2.5,Win32,30.58103976,18.4824,18.4826,,,,,,,,,,,,,,,,,,,,,,,,,,,,,,,,,,,,,,,,,,,,,,,,,,,,,,,,,,,,,,
,,,,,,61503885693f6ebde3f2fcbc,676192165fb32c2e1fb7aee6,67d1942325158f41a334c2f9,2025-03-12_15h06.09.008,Tarea de decisión léxica,2024.2.5,Win32,30.58103976,,,18.5486,44.0558,space,25.3907,,-0.116666653,-0.069444444,0,0,0,0,0,0,0,1,1,instructions,"INSTRUCCIONES
Va a realizar una prueba de decisión léxica. Desde el comienzo de la prueba mire siempre al centro de la pantalla. Se presentará una serie de cadenas de letras, una a la vez, en la pantalla. Su tarea consiste en determinar si cada cadena de letras constituye una palabra real en español o una no-palabra (una secuencia de letras que no constituye una palabra real). 

Pulse la tecla ESPACIO para continuar.",0,keyboardresponseWN.png,,,,,,,,,,,,,,,,,,,,,,,,,,,,,,,,,,,,,,,,,,
,,,,,,61503885693f6ebde3f2fcbc,676192165fb32c2e1fb7aee6,67d1942325158f41a334c2f9,2025-03-12_15h06.09.008,Tarea de decisión léxica,2024.2.5,Win32,30.58103976,,,44.0605,62.0742,space,17.9776,,-0.116666653,-0.069444444,0,0,0,0,1,1,1,1,2,instructions,"El procedimiento es el siguiente: Aparecerán dos barras verticales posicionadas en el centro de la pantalla, separadas por un pequeño espacio.Por favor, enfoque su atención en el espacio entre las barras. Esto preparará sus ojos para la siguiente cadena de letras, que aparecerá entre las dos barras durante un instante.

Pulse la tecla ESPACIO para continuar.",0,keyboardresponseWN.png,,,,,,,,,,,,,,,,,,,,,,,,,,,,,,,,,,,,,,,,,,
,,,,,,61503885693f6ebde3f2fcbc,676192165fb32c2e1fb7aee6,67d1942325158f41a334c2f9,2025-03-12_15h06.09.008,Tarea de decisión léxica,2024.2.5,Win32,30.58103976,,,62.0851,141.49,space,79.3115,,-0.116666653,-0.069444444,0,0,0,0,2,2,2,1,3,instructions,"En el teclado de su dispositivo, pulse la tecla ""A"" si la cadena de letras es una palabra real en español (por ejemplo: ""mano"") y la tecla ""L"" si la cadena de letras es una no-palabra (por ejemplo: ""minu"").
Pulse la tecla ESPACIO para continuar.",1,keyboardresponseWN.png,,,,,,,,,,,,,,,,,,,,,,,,,,,,,,,,,,,,,,,,,,
,,,,,,61503885693f6ebde3f2fcbc,676192165fb32c2e1fb7aee6,67d1942325158f41a334c2f9,2025-03-12_15h06.09.008,Tarea de decisión léxica,2024.2.5,Win32,30.58103976,,,141.5025,156.7829,space,15.231,,-0.116666653,-0.069444444,0,0,0,0,3,3,3,1,4,instructions,"Es muy importante que responda con la mayor rapidez y precisión posibles. Si no responde dentro de 2 segundos, aparecerá el mensaje ""Muy lento"" y el experimento pasará a la siguiente palabra. Inmediatamente después de su respuesta se indicará si fue correcta o no. Los primeros 15 intentos serán de práctica y habrá dos descansos durante la prueba.

Pulse la tecla ESPACIO  para iniciar la parte de práctica.",0,keyboardresponseWN.png,,,,,,,,,,,,,,,,,,,,,,,,,,,,,,,,,,,,,,,,,,
,,,,,,61503885693f6ebde3f2fcbc,676192165fb32c2e1fb7aee6,67d1942325158f41a334c2f9,2025-03-12_15h06.09.008,Tarea de decisión léxica,2024.2.5,Win32,30.58103976,,,,,,,,,,,,,,,,,,,,,,,156.8252,159.4739,,0,,-1,159.4748,159.9725,0,0,0,5,1,1006,FEM,WORD,AGR,150,cara,4,la,l,,,,,,,,,,,,,,,,,,,,
,,,,,,61503885693f6ebde3f2fcbc,676192165fb32c2e1fb7aee6,67d1942325158f41a334c2f9,2025-03-12_15h06.09.008,Tarea de decisión léxica,2024.2.5,Win32,30.58103976,,,,,,,,,,,,,,,,,,,,,,,159.976,162.3315,l,0,1.6709,0,162.3515,162.8305,0,1,1,9,1,1010,MAS,WORD,DIS,150,video,5,la,l,1.6709,,,,,,,,,,,,,,,,,,,
,,,,,,61503885693f6ebde3f2fcbc,676192165fb32c2e1fb7aee6,67d1942325158f41a334c2f9,2025-03-12_15h06.09.008,Tarea de decisión léxica,2024.2.5,Win32,30.58103976,,,,,,,,,,,,,,,,,,,,,,,162.8327,163.8609,a,1,0.3212,1,163.8625,164.36,0,2,2,8,1,1009,FEM,WORD,AGR,150,viejo,5,la,l,0.3212,,,,,,,,,,,,,,,,,,,
,,,,,,61503885693f6ebde3f2fcbc,676192165fb32c2e1fb7aee6,67d1942325158f41a334c2f9,2025-03-12_15h06.09.008,Tarea de decisión léxica,2024.2.5,Win32,30.58103976,,,,,,,,,,,,,,,,,,,,,,,164.3645,165.5572,a,1,0.5028,1,165.5575,166.0558,0,3,3,7,1,1008,MAS,WORD,DIS,150,frío,4,la,l,0.5028,,,,,,,,,,,,,,,,,,,
,,,,,,61503885693f6ebde3f2fcbc,676192165fb32c2e1fb7aee6,67d1942325158f41a334c2f9,2025-03-12_15h06.09.008,Tarea de decisión léxica,2024.2.5,Win32,30.58103976,,,,,,,,,,,,,,,,,,,,,,,166.0576,167.352,l,1,0.6003,1,167.3524,167.8501,0,4,4,0,1,1001,FEM,NOWORD,AGR,150,croz,4,la,a,0.6003,,,,,,,,,,,,,,,,,,,
,,,,,,61503885693f6ebde3f2fcbc,676192165fb32c2e1fb7aee6,67d1942325158f41a334c2f9,2025-03-12_15h06.09.008,Tarea de decisión léxica,2024.2.5,Win32,30.58103976,,,,,,,,,,,,,,,,,,,,,,,167.8525,169.1135,l,1,0.5562,1,169.1136,169.6122,0,5,5,4,1,1005,MAS,NOWORD,DIS,150,nobad,5,la,a,0.5562,,,,,,,,,,,,,,,,,,,
,,,,,,61503885693f6ebde3f2fcbc,676192165fb32c2e1fb7aee6,67d1942325158f41a334c2f9,2025-03-12_15h06.09.008,Tarea de decisión léxica,2024.2.5,Win32,30.58103976,,,,,,,,,,,,,,,,,,,,,,,169.6169,170.7435,l,1,0.434,1,170.7436,171.2418,0,6,6,2,1,1003,FEM,NOWORD,DIS,150,muvor,5,el,a,0.434,,,,,,,,,,,,,,,,,,,
,,,,,,61503885693f6ebde3f2fcbc,676192165fb32c2e1fb7aee6,67d1942325158f41a334c2f9,2025-03-12_15h06.09.008,Tarea de decisión léxica,2024.2.5,Win32,30.58103976,,,,,,,,,,,,,,,,,,,,,,,171.2464,172.3396,a,1,0.423,1,172.34,172.8371,0,7,7,6,1,1007,MAS,WORD,DIS,150,masa,4,la,l,0.423,,,,,,,,,,,,,,,,,,,
,,,,,,61503885693f6ebde3f2fcbc,676192165fb32c2e1fb7aee6,67d1942325158f41a334c2f9,2025-03-12_15h06.09.008,Tarea de decisión léxica,2024.2.5,Win32,30.58103976,,,,,,,,,,,,,,,,,,,,,,,172.8396,175.4739,,0,0.423,-1,175.4755,175.9697,0,8,8,3,1,1004,FEM,NOWORD,AGR,150,bireo,5,la,a,,,,,,,,,,,,,,,,,,,,
,,,,,,61503885693f6ebde3f2fcbc,676192165fb32c2e1fb7aee6,67d1942325158f41a334c2f9,2025-03-12_15h06.09.008,Tarea de decisión léxica,2024.2.5,Win32,30.58103976,,,,,,,,,,,,,,,,,,,,,,,175.9716,177.6398,l,1,0.983,1,177.6413,178.1392,0,9,9,1,1,1002,FEM,NOWORD,DIS,150,mabo,4,el,a,0.983,,,,,,,,,,,,,,,,,,,
,,,,,,61503885693f6ebde3f2fcbc,676192165fb32c2e1fb7aee6,67d1942325158f41a334c2f9,2025-03-12_15h06.09.008,Tarea de decisión léxica,2024.2.5,Win32,30.58103976,,,218.5059,235.1077,space,16.5144,,0.346296381,-0.022222236,0,0,0,,,,,,,,,,,235.219,236.5204,a,1,0.5934,1,236.5205,237.0261,,,,,,477,MAS,WORD,DIS,150,botón,,la,,0.5934,,237.0265,237.0339,0.346296381,-0.022222236,0,0,0,,0,0,0,476,1,hocon,,,,
,,,,,,61503885693f6ebde3f2fcbc,676192165fb32c2e1fb7aee6,67d1942325158f41a334c2f9,2025-03-12_15h06.09.008,Tarea de decisión léxica,2024.2.5,Win32,30.58103976,,,,,,,,,,,,,,,,,,,,,,,237.0358,238.2491,a,1,0.5218,1,238.2498,238.7427,,,,,,251,MAS,WORD,DIS,150,señor,,la,,0.5218,,238.7427,238.743,0.346296381,-0.022222236,0,0,0,,0,1,1,250,1,refor,,,,
,,,,,,61503885693f6ebde3f2fcbc,676192165fb32c2e1fb7aee6,67d1942325158f41a334c2f9,2025-03-12_15h06.09.008,Tarea de decisión léxica,2024.2.5,Win32,30.58103976,,,,,,,,,,,,,,,,,,,,,,,238.7448,239.8123,l,1,0.3845,1,239.8124,240.3036,,,,,,452,FEM,NOWORD,DIS,150,clita,,el,,0.3845,,240.3059,240.3075,0.346296381,-0.022222236,0,0,0,,0,2,2,451,1,fruta,,,,
,,,,,,61503885693f6ebde3f2fcbc,676192165fb32c2e1fb7aee6,67d1942325158f41a334c2f9,2025-03-12_15h06.09.008,Tarea de decisión léxica,2024.2.5,Win32,30.58103976,,,,,,,,,,,,,,,,,,,,,,,240.3092,241.368,l,1,0.3691,1,241.3681,241.8684,,,,,,410,MAS,NOWORD,AGR,150,pafro,,el,,0.3691,,241.8685,241.8688,0.346296381,-0.022222236,0,0,0,,0,3,3,409,1,carro,,,,
,,,,,,61503885693f6ebde3f2fcbc,676192165fb32c2e1fb7aee6,67d1942325158f41a334c2f9,2025-03-12_15h06.09.008,Tarea de decisión léxica,2024.2.5,Win32,30.58103976,,,,,,,,,,,,,,,,,,,,,,,241.8707,242.8321,l,1,0.2838,1,242.8323,243.3054,,,,,,122,MAS,NOWORD,AGR,150,bomo,,el,,0.2838,,243.3055,243.3056,0.346296381,-0.022222236,0,0,0,,0,4,4,121,1,hoyo,,,,
,,,,,,61503885693f6ebde3f2fcbc,676192165fb32c2e1fb7aee6,67d1942325158f41a334c2f9,2025-03-12_15h06.09.008,Tarea de decisión léxica,2024.2.5,Win32,30.58103976,,,,,,,,,,,,,,,,,,,,,,,243.3078,244.5925,a,0,0.586,0,244.594,245.078,,,,,,248,FEM,NOWORD,DIS,150,trida,,el,,0.586,,245.078,245.0782,0.346296381,-0.022222236,0,0,0,,0,5,5,247,1,chica,,,,
,,,,,,61503885693f6ebde3f2fcbc,676192165fb32c2e1fb7aee6,67d1942325158f41a334c2f9,2025-03-12_15h06.09.008,Tarea de decisión léxica,2024.2.5,Win32,30.58103976,,,,,,,,,,,,,,,,,,,,,,,245.0797,246.0791,a,0,0.3039,0,246.0792,246.5857,,,,,,408,FEM,NOWORD,DIS,150,cauba,,el,,0.3039,,246.5858,246.5861,0.346296381,-0.022222236,0,0,0,,0,6,6,407,1,cueva,,,,
,,,,,,61503885693f6ebde3f2fcbc,676192165fb32c2e1fb7aee6,67d1942325158f41a334c2f9,2025-03-12_15h06.09.008,Tarea de decisión léxica,2024.2.5,Win32,30.58103976,,,,,,,,,,,,,,,,,,,,,,,246.5877,247.7205,a,0,0.4477,0,247.7206,248.2304,,,,,,384,FEM,NOWORD,DIS,150,brame,,el,,0.4477,,248.233,248.2346,0.346296381,-0.022222236,0,0,0,,0,7,7,383,1,frase,,,,
,,,,,,61503885693f6ebde3f2fcbc,676192165fb32c2e1fb7aee6,67d1942325158f41a334c2f9,2025-03-12_15h06.09.008,Tarea de decisión léxica,2024.2.5,Win32,30.58103976,,,,,,,,,,,,,,,,,,,,,,,248.236,249.4505,a,1,0.5014,1,249.4519,249.9263,,,,,,265,FEM,WORD,AGR,150,mitad,,la,,0.5014,,249.9263,249.9265,0.346296381,-0.022222236,0,0,0,,0,8,8,264,1,pitat,,,,
,,,,,,61503885693f6ebde3f2fcbc,676192165fb32c2e1fb7aee6,67d1942325158f41a334c2f9,2025-03-12_15h06.09.008,Tarea de decisión léxica,2024.2.5,Win32,30.58103976,,,,,,,,,,,,,,,,,,,,,,,249.9279,250.9899,l,1,0.3663,1,250.9902,251.4873,,,,,,396,FEM,NOWORD,DIS,150,paeda,,el,,0.3663,,251.4877,251.4881,0.346296381,-0.022222236,0,0,0,,0,9,9,395,1,caída,,,,
,,,,,,61503885693f6ebde3f2fcbc,676192165fb32c2e1fb7aee6,67d1942325158f41a334c2f9,2025-03-12_15h06.09.008,Tarea de decisión léxica,2024.2.5,Win32,30.58103976,,,,,,,,,,,,,,,,,,,,,,,251.4901,252.669,a,0,0.4643,0,252.6703,253.159,,,,,,106,FEM,NOWORD,AGR,150,vina,,la,,0.4643,,253.1591,253.1594,0.346296381,-0.022222236,0,0,0,,0,10,10,105,1,sopa,,,,
,,,,,,61503885693f6ebde3f2fcbc,676192165fb32c2e1fb7aee6,67d1942325158f41a334c2f9,2025-03-12_15h06.09.008,Tarea de decisión léxica,2024.2.5,Win32,30.58103976,,,,,,,,,,,,,,,,,,,,,,,253.1612,254.2777,l,1,0.4181,1,254.2788,254.7556,,,,,,292,FEM,NOWORD,DIS,150,mesta,,el,,0.4181,,254.7577,254.7588,0.346296381,-0.022222236,0,0,0,,0,11,11,291,1,pista,,,,
,,,,,,61503885693f6ebde3f2fcbc,676192165fb32c2e1fb7aee6,67d1942325158f41a334c2f9,2025-03-12_15h06.09.008,Tarea de decisión léxica,2024.2.5,Win32,30.58103976,,,,,,,,,,,,,,,,,,,,,,,254.7603,255.806,l,1,0.3579,1,255.8061,256.3003,,,,,,20,MAS,NOWORD,DIS,150,himo,,la,,0.3579,,256.3003,256.3005,0.346296381,-0.022222236,0,0,0,,0,12,12,19,1,niño,,,,
,,,,,,61503885693f6ebde3f2fcbc,676192165fb32c2e1fb7aee6,67d1942325158f41a334c2f9,2025-03-12_15h06.09.008,Tarea de decisión léxica,2024.2.5,Win32,30.58103976,,,,,,,,,,,,,,,,,,,,,,,256.3024,257.4466,a,1,0.4397,1,257.4467,257.9526,,,,,,343,FEM,WORD,AGR,150,plata,,la,,0.4397,,257.9527,257.9529,0.346296381,-0.022222236,0,0,0,,0,13,13,342,1,trada,,,,
,,,,,,61503885693f6ebde3f2fcbc,676192165fb32c2e1fb7aee6,67d1942325158f41a334c2f9,2025-03-12_15h06.09.008,Tarea de decisión léxica,2024.2.5,Win32,30.58103976,,,,,,,,,,,,,,,,,,,,,,,257.9556,259.1096,l,1,0.4315,1,259.1096,259.6253,,,,,,52,FEM,NOWORD,DIS,150,mava,,el,,0.4315,,259.6253,259.6255,0.346296381,-0.022222236,0,0,0,,0,14,14,51,1,caja,,,,
,,,,,,61503885693f6ebde3f2fcbc,676192165fb32c2e1fb7aee6,67d1942325158f41a334c2f9,2025-03-12_15h06.09.008,Tarea de decisión léxica,2024.2.5,Win32,30.58103976,,,,,,,,,,,,,,,,,,,,,,,259.6276,260.7905,a,1,0.4885,1,260.7906,261.2946,,,,,,435,MAS,WORD,AGR,150,ritmo,,el,,0.4885,,261.2947,261.2948,0.346296381,-0.022222236,0,0,0,,0,15,15,434,1,ricno,,,,
,,,,,,61503885693f6ebde3f2fcbc,676192165fb32c2e1fb7aee6,67d1942325158f41a334c2f9,2025-03-12_15h06.09.008,Tarea de decisión léxica,2024.2.5,Win32,30.58103976,,,,,,,,,,,,,,,,,,,,,,,261.2967,262.4942,a,1,0.5167,1,262.4943,262.9925,,,,,,101,MAS,WORD,DIS,150,tono,,la,,0.5167,,262.995,262.9961,0.346296381,-0.022222236,0,0,0,,0,16,16,100,1,gito,,,,
,,,,,,61503885693f6ebde3f2fcbc,676192165fb32c2e1fb7aee6,67d1942325158f41a334c2f9,2025-03-12_15h06.09.008,Tarea de decisión léxica,2024.2.5,Win32,30.58103976,,,,,,,,,,,,,,,,,,,,,,,262.9973,264.2273,a,1,0.5473,1,264.2274,264.7283,,,,,,5,FEM,WORD,DIS,150,cosa,,el,,0.5473,,264.7285,264.7287,0.346296381,-0.022222236,0,0,0,,0,17,17,4,1,poga,,,,
,,,,,,61503885693f6ebde3f2fcbc,676192165fb32c2e1fb7aee6,67d1942325158f41a334c2f9,2025-03-12_15h06.09.008,Tarea de decisión léxica,2024.2.5,Win32,30.58103976,,,,,,,,,,,,,,,,,,,,,,,264.7304,265.8869,l,1,0.4664,1,265.887,266.3872,,,,,,48,MAS,NOWORD,DIS,150,chub,,la,,0.4664,,266.3873,266.3875,0.346296381,-0.022222236,0,0,0,,0,18,18,47,1,club,,,,
,,,,,,61503885693f6ebde3f2fcbc,676192165fb32c2e1fb7aee6,67d1942325158f41a334c2f9,2025-03-12_15h06.09.008,Tarea de decisión léxica,2024.2.5,Win32,30.58103976,,,,,,,,,,,,,,,,,,,,,,,266.3892,267.5576,a,1,0.4732,1,267.5577,268.0382,,,,,,107,MAS,WORD,AGR,150,saco,,el,,0.4732,,268.0385,268.0386,0.346296381,-0.022222236,0,0,0,,0,19,19,106,1,raot,,,,
,,,,,,61503885693f6ebde3f2fcbc,676192165fb32c2e1fb7aee6,67d1942325158f41a334c2f9,2025-03-12_15h06.09.008,Tarea de decisión léxica,2024.2.5,Win32,30.58103976,,,,,,,,,,,,,,,,,,,,,,,268.0405,269.2235,l,1,0.4905,1,269.2236,269.7302,,,,,,186,MAS,NOWORD,AGR,150,raol,,el,,0.4905,,269.7303,269.7303,0.346296381,-0.022222236,0,0,0,,0,20,20,185,1,baúl,,,,
,,,,,,61503885693f6ebde3f2fcbc,676192165fb32c2e1fb7aee6,67d1942325158f41a334c2f9,2025-03-12_15h06.09.008,Tarea de decisión léxica,2024.2.5,Win32,30.58103976,,,,,,,,,,,,,,,,,,,,,,,269.732,270.8312,a,1,0.4058,1,270.8314,271.3207,,,,,,167,FEM,WORD,DIS,150,jefa,,el,,0.4058,,271.3228,271.324,0.346296381,-0.022222236,0,0,0,,0,21,21,166,1,zifa,,,,
,,,,,,61503885693f6ebde3f2fcbc,676192165fb32c2e1fb7aee6,67d1942325158f41a334c2f9,2025-03-12_15h06.09.008,Tarea de decisión léxica,2024.2.5,Win32,30.58103976,,,,,,,,,,,,,,,,,,,,,,,271.3251,272.3756,a,1,0.3755,1,272.3757,272.8833,,,,,,25,FEM,WORD,AGR,150,cama,,la,,0.3755,,272.8834,272.8836,0.346296381,-0.022222236,0,0,0,,0,22,22,24,1,paza,,,,
,,,,,,61503885693f6ebde3f2fcbc,676192165fb32c2e1fb7aee6,67d1942325158f41a334c2f9,2025-03-12_15h06.09.008,Tarea de decisión léxica,2024.2.5,Win32,30.58103976,,,,,,,,,,,,,,,,,,,,,,,272.8855,273.9729,a,1,0.3936,1,273.973,274.4669,,,,,,123,FEM,WORD,DIS,150,flor,,el,,0.3936,,274.467,274.4672,0.346296381,-0.022222236,0,0,0,,0,23,23,122,1,maba,,,,
,,,,,,61503885693f6ebde3f2fcbc,676192165fb32c2e1fb7aee6,67d1942325158f41a334c2f9,2025-03-12_15h06.09.008,Tarea de decisión léxica,2024.2.5,Win32,30.58103976,,,,,,,,,,,,,,,,,,,,,,,274.4689,275.545,a,1,0.3976,1,275.5451,276.0492,,,,,,461,FEM,WORD,DIS,150,tabla,,el,,0.3976,,276.0493,276.0494,0.346296381,-0.022222236,0,0,0,,0,24,24,460,1,pagra,,,,
,,,,,,61503885693f6ebde3f2fcbc,676192165fb32c2e1fb7aee6,67d1942325158f41a334c2f9,2025-03-12_15h06.09.008,Tarea de decisión léxica,2024.2.5,Win32,30.58103976,,,,,,,,,,,,,,,,,,,,,,,276.0513,277.0753,a,1,0.3358,1,277.0754,277.5394,,,,,,141,FEM,WORD,AGR,150,cruz,,la,,0.3358,,277.5396,277.5397,0.346296381,-0.022222236,0,0,0,,0,25,25,140,1,sina,,,,
,,,,,,61503885693f6ebde3f2fcbc,676192165fb32c2e1fb7aee6,67d1942325158f41a334c2f9,2025-03-12_15h06.09.008,Tarea de decisión léxica,2024.2.5,Win32,30.58103976,,,,,,,,,,,,,,,,,,,,,,,277.5419,278.6523,a,1,0.3842,1,278.6524,279.1772,,,,,,17,FEM,WORD,AGR,150,mamá,,la,,0.3842,,279.1799,279.1813,0.346296381,-0.022222236,0,0,0,,0,26,26,16,1,paba,,,,
,,,,,,61503885693f6ebde3f2fcbc,676192165fb32c2e1fb7aee6,67d1942325158f41a334c2f9,2025-03-12_15h06.09.008,Tarea de decisión léxica,2024.2.5,Win32,30.58103976,,,,,,,,,,,,,,,,,,,,,,,279.1826,280.1836,a,1,0.31,1,280.1837,280.6606,,,,,,429,FEM,WORD,AGR,150,tarta,,la,,0.31,,280.6607,280.6608,0.346296381,-0.022222236,0,0,0,,0,27,27,428,1,tenta,,,,
,,,,,,61503885693f6ebde3f2fcbc,676192165fb32c2e1fb7aee6,67d1942325158f41a334c2f9,2025-03-12_15h06.09.008,Tarea de decisión léxica,2024.2.5,Win32,30.58103976,,,,,,,,,,,,,,,,,,,,,,,280.6628,281.7282,l,0,0.3742,0,281.7294,282.219,,,,,,117,MAS,WORD,DIS,150,palo,,la,,0.3742,,282.2192,282.2192,0.346296381,-0.022222236,0,0,0,,0,28,28,116,1,movo,,,,
,,,,,,61503885693f6ebde3f2fcbc,676192165fb32c2e1fb7aee6,67d1942325158f41a334c2f9,2025-03-12_15h06.09.008,Tarea de decisión léxica,2024.2.5,Win32,30.58103976,,,,,,,,,,,,,,,,,,,,,,,282.2217,283.4733,a,1,0.574,1,283.4744,283.9812,,,,,,7,MAS,WORD,DIS,150,hijo,,la,,0.574,,283.9812,283.9814,0.346296381,-0.022222236,0,0,0,,0,29,29,6,1,nivo,,,,
,,,,,,61503885693f6ebde3f2fcbc,676192165fb32c2e1fb7aee6,67d1942325158f41a334c2f9,2025-03-12_15h06.09.008,Tarea de decisión léxica,2024.2.5,Win32,30.58103976,,,,,,,,,,,,,,,,,,,,,,,283.9838,285.0207,a,1,0.3505,1,285.0208,285.5126,,,,,,233,FEM,WORD,DIS,150,lana,,el,,0.3505,,285.5127,285.5128,0.346296381,-0.022222236,0,0,0,,0,30,30,232,1,fasa,,,,
,,,,,,61503885693f6ebde3f2fcbc,676192165fb32c2e1fb7aee6,67d1942325158f41a334c2f9,2025-03-12_15h06.09.008,Tarea de decisión léxica,2024.2.5,Win32,30.58103976,,,,,,,,,,,,,,,,,,,,,,,285.5147,286.5221,a,0,0.3177,0,286.5233,286.9877,,,,,,344,FEM,NOWORD,DIS,150,trada,,el,,0.3177,,286.9898,286.9917,0.346296381,-0.022222236,0,0,0,,0,31,31,343,1,plata,,,,
,,,,,,61503885693f6ebde3f2fcbc,676192165fb32c2e1fb7aee6,67d1942325158f41a334c2f9,2025-03-12_15h06.09.008,Tarea de decisión léxica,2024.2.5,Win32,30.58103976,,,,,,,,,,,,,,,,,,,,,,,286.9933,288.0886,a,1,0.407,1,288.0901,288.6164,,,,,,133,FEM,WORD,DIS,150,vaca,,el,,0.407,,288.6164,288.6166,0.346296381,-0.022222236,0,0,0,,0,32,32,132,1,vesa,,,,
,,,,,,61503885693f6ebde3f2fcbc,676192165fb32c2e1fb7aee6,67d1942325158f41a334c2f9,2025-03-12_15h06.09.008,Tarea de decisión léxica,2024.2.5,Win32,30.58103976,,,,,,,,,,,,,,,,,,,,,,,288.6189,289.7202,a,1,0.4307,1,289.7204,290.2162,,,,,,315,FEM,WORD,AGR,150,reina,,la,,0.4307,,290.2163,290.2164,0.346296381,-0.022222236,0,0,0,,0,33,33,314,1,riosa,,,,
,,,,,,61503885693f6ebde3f2fcbc,676192165fb32c2e1fb7aee6,67d1942325158f41a334c2f9,2025-03-12_15h06.09.008,Tarea de decisión léxica,2024.2.5,Win32,30.58103976,,,,,,,,,,,,,,,,,,,,,,,290.218,291.3848,l,1,0.4852,1,291.385,291.8746,,,,,,372,FEM,NOWORD,DIS,150,mosta,,el,,0.4852,,291.8746,291.8749,0.346296381,-0.022222236,0,0,0,,0,34,34,371,1,pasta,,,,
,,,,,,61503885693f6ebde3f2fcbc,676192165fb32c2e1fb7aee6,67d1942325158f41a334c2f9,2025-03-12_15h06.09.008,Tarea de decisión léxica,2024.2.5,Win32,30.58103976,,,,,,,,,,,,,,,,,,,,,,,291.8767,293.1519,l,1,0.5868,1,293.1522,293.665,,,,,,26,FEM,NOWORD,AGR,150,paza,,la,,0.5868,,293.6672,293.6688,0.346296381,-0.022222236,0,0,0,,0,35,35,25,1,cama,,,,
,,,,,,61503885693f6ebde3f2fcbc,676192165fb32c2e1fb7aee6,67d1942325158f41a334c2f9,2025-03-12_15h06.09.008,Tarea de decisión léxica,2024.2.5,Win32,30.58103976,,,,,,,,,,,,,,,,,,,,,,,293.6705,294.9153,a,1,0.5675,1,294.9154,295.4235,,,,,,245,FEM,WORD,DIS,150,madre,,el,,0.5675,,295.4236,295.4236,0.346296381,-0.022222236,0,0,0,,0,36,36,244,1,pafle,,,,
,,,,,,61503885693f6ebde3f2fcbc,676192165fb32c2e1fb7aee6,67d1942325158f41a334c2f9,2025-03-12_15h06.09.008,Tarea de decisión léxica,2024.2.5,Win32,30.58103976,,,,,,,,,,,,,,,,,,,,,,,295.4257,296.5089,a,1,0.3746,1,296.5091,296.9925,,,,,,407,FEM,WORD,AGR,150,cueva,,la,,0.3746,,296.9927,296.9928,0.346296381,-0.022222236,0,0,0,,0,37,37,406,1,cauba,,,,
,,,,,,61503885693f6ebde3f2fcbc,676192165fb32c2e1fb7aee6,67d1942325158f41a334c2f9,2025-03-12_15h06.09.008,Tarea de decisión léxica,2024.2.5,Win32,30.58103976,,,,,,,,,,,,,,,,,,,,,,,296.9947,298.0602,a,1,0.3923,1,298.0612,298.5447,,,,,,65,MAS,WORD,AGR,150,dios,,el,,0.3923,,298.5448,298.545,0.346296381,-0.022222236,0,0,0,,0,38,38,64,1,nios,,,,
,,,,,,61503885693f6ebde3f2fcbc,676192165fb32c2e1fb7aee6,67d1942325158f41a334c2f9,2025-03-12_15h06.09.008,Tarea de decisión léxica,2024.2.5,Win32,30.58103976,,,,,,,,,,,,,,,,,,,,,,,298.5469,299.7327,a,1,0.4852,1,299.7328,300.2299,,,,,,347,FEM,WORD,AGR,150,pieza,,la,,0.4852,,300.23,300.2301,0.346296381,-0.022222236,0,0,0,,0,39,39,346,1,mueza,,,,
,,,,,,61503885693f6ebde3f2fcbc,676192165fb32c2e1fb7aee6,67d1942325158f41a334c2f9,2025-03-12_15h06.09.008,Tarea de decisión léxica,2024.2.5,Win32,30.58103976,,,,,,,,,,,,,,,,,,,,,,,300.2318,301.5186,l,1,0.6071,1,301.5186,302.0157,,,,,,40,MAS,NOWORD,DIS,150,redo,,la,,0.6071,,302.0184,302.0196,0.346296381,-0.022222236,0,0,0,,0,40,40,39,1,voto,,,,
,,,,,,61503885693f6ebde3f2fcbc,676192165fb32c2e1fb7aee6,67d1942325158f41a334c2f9,2025-03-12_15h06.09.008,Tarea de decisión léxica,2024.2.5,Win32,30.58103976,,,,,,,,,,,,,,,,,,,,,,,302.021,303.166,l,1,0.4663,1,303.166,303.6575,,,,,,188,MAS,NOWORD,DIS,150,suto,,la,,0.4663,,303.6577,303.6578,0.346296381,-0.022222236,0,0,0,,0,41,41,187,1,mito,,,,
,,,,,,61503885693f6ebde3f2fcbc,676192165fb32c2e1fb7aee6,67d1942325158f41a334c2f9,2025-03-12_15h06.09.008,Tarea de decisión léxica,2024.2.5,Win32,30.58103976,,,,,,,,,,,,,,,,,,,,,,,303.6598,304.7334,l,1,0.3879,1,304.7335,305.227,,,,,,46,FEM,NOWORD,AGR,150,pema,,la,,0.3879,,305.2272,305.2273,0.346296381,-0.022222236,0,0,0,,0,42,42,45,1,mesa,,,,
,,,,,,61503885693f6ebde3f2fcbc,676192165fb32c2e1fb7aee6,67d1942325158f41a334c2f9,2025-03-12_15h06.09.008,Tarea de decisión léxica,2024.2.5,Win32,30.58103976,,,,,,,,,,,,,,,,,,,,,,,305.229,306.3116,l,1,0.4113,1,306.3117,306.8121,,,,,,386,FEM,NOWORD,AGR,150,febra,,la,,0.4113,,306.8122,306.8123,0.346296381,-0.022222236,0,0,0,,0,43,43,385,1,letra,,,,
,,,,,,61503885693f6ebde3f2fcbc,676192165fb32c2e1fb7aee6,67d1942325158f41a334c2f9,2025-03-12_15h06.09.008,Tarea de decisión léxica,2024.2.5,Win32,30.58103976,,,,,,,,,,,,,,,,,,,,,,,306.814,307.9245,l,1,0.4264,1,307.9245,308.4035,,,,,,206,FEM,NOWORD,AGR,150,bara,,la,,0.4264,,308.4036,308.4037,0.346296381,-0.022222236,0,0,0,,0,44,44,205,1,rana,,,,
,,,,,,61503885693f6ebde3f2fcbc,676192165fb32c2e1fb7aee6,67d1942325158f41a334c2f9,2025-03-12_15h06.09.008,Tarea de decisión léxica,2024.2.5,Win32,30.58103976,,,,,,,,,,,,,,,,,,,,,,,308.4057,309.5557,a,1,0.4527,1,309.5559,310.0499,,,,,,243,MAS,WORD,AGR,150,amigo,,el,,0.4527,,310.0515,310.0525,0.346296381,-0.022222236,0,0,0,,0,45,45,242,1,asamo,,,,
,,,,,,61503885693f6ebde3f2fcbc,676192165fb32c2e1fb7aee6,67d1942325158f41a334c2f9,2025-03-12_15h06.09.008,Tarea de decisión léxica,2024.2.5,Win32,30.58103976,,,,,,,,,,,,,,,,,,,,,,,310.054,311.2646,a,1,0.5097,1,311.2647,311.7518,,,,,,73,MAS,WORD,DIS,150,odio,,la,,0.5097,,311.7518,311.752,0.346296381,-0.022222236,0,0,0,,0,46,46,72,1,omio,,,,
,,,,,,61503885693f6ebde3f2fcbc,676192165fb32c2e1fb7aee6,67d1942325158f41a334c2f9,2025-03-12_15h06.09.008,Tarea de decisión léxica,2024.2.5,Win32,30.58103976,,,,,,,,,,,,,,,,,,,,,,,311.7537,313.03,l,1,0.587,1,313.0302,313.5634,,,,,,422,MAS,NOWORD,AGR,150,griso,,el,,0.587,,313.5634,313.5635,0.346296381,-0.022222236,0,0,0,,0,47,47,421,1,primo,,,,
,,,,,,61503885693f6ebde3f2fcbc,676192165fb32c2e1fb7aee6,67d1942325158f41a334c2f9,2025-03-12_15h06.09.008,Tarea de decisión léxica,2024.2.5,Win32,30.58103976,,,,,,,,,,,,,,,,,,,,,,,313.5659,314.8688,l,1,0.6315,1,314.869,315.3586,,,,,,120,MAS,NOWORD,DIS,150,hooy,,la,,0.6315,,315.3586,315.3588,0.346296381,-0.022222236,0,0,0,,0,48,48,119,1,pozo,,,,
,,,,,,61503885693f6ebde3f2fcbc,676192165fb32c2e1fb7aee6,67d1942325158f41a334c2f9,2025-03-12_15h06.09.008,Tarea de decisión léxica,2024.2.5,Win32,30.58103976,,,,,,,,,,,,,,,,,,,,,,,315.3609,316.4985,a,1,0.4376,1,316.4986,316.9952,,,,,,335,FEM,WORD,DIS,150,costa,,el,,0.4376,,316.9953,316.9955,0.346296381,-0.022222236,0,0,0,,0,49,49,334,1,pesta,,,,
,,,,,,61503885693f6ebde3f2fcbc,676192165fb32c2e1fb7aee6,67d1942325158f41a334c2f9,2025-03-12_15h06.09.008,Tarea de decisión léxica,2024.2.5,Win32,30.58103976,,,,,,,,,,,,,,,,,,,,,,,316.9975,318.2173,a,1,0.5396,1,318.2175,318.7113,,,,,,203,FEM,WORD,AGR,150,leña,,la,,0.5396,,318.7133,318.7146,0.346296381,-0.022222236,0,0,0,,0,50,50,202,1,beja,,,,
,,,,,,61503885693f6ebde3f2fcbc,676192165fb32c2e1fb7aee6,67d1942325158f41a334c2f9,2025-03-12_15h06.09.008,Tarea de decisión léxica,2024.2.5,Win32,30.58103976,,,,,,,,,,,,,,,,,,,,,,,318.7162,320.4502,a,1,1.0451,1,320.4503,320.9669,,,,,,263,FEM,WORD,DIS,150,vista,,el,,1.0451,,320.9671,320.9672,0.346296381,-0.022222236,0,0,0,,0,51,51,262,1,dosta,,,,
,,,,,,61503885693f6ebde3f2fcbc,676192165fb32c2e1fb7aee6,67d1942325158f41a334c2f9,2025-03-12_15h06.09.008,Tarea de decisión léxica,2024.2.5,Win32,30.58103976,,,,,,,,,,,,,,,,,,,,,,,320.969,322.1842,l,1,0.5304,1,322.1844,322.661,,,,,,166,FEM,NOWORD,AGR,150,dera,,la,,0.5304,,322.6611,322.6612,0.346296381,-0.022222236,0,0,0,,0,52,52,165,1,vela,,,,
,,,,,,61503885693f6ebde3f2fcbc,676192165fb32c2e1fb7aee6,67d1942325158f41a334c2f9,2025-03-12_15h06.09.008,Tarea de decisión léxica,2024.2.5,Win32,30.58103976,,,,,,,,,,,,,,,,,,,,,,,322.663,323.9244,l,1,0.5381,1,323.9247,324.4211,,,,,,402,MAS,NOWORD,AGR,150,pirvo,,el,,0.5381,,324.4211,324.4213,0.346296381,-0.022222236,0,0,0,,0,53,53,401,1,polvo,,,,
,,,,,,61503885693f6ebde3f2fcbc,676192165fb32c2e1fb7aee6,67d1942325158f41a334c2f9,2025-03-12_15h06.09.008,Tarea de decisión léxica,2024.2.5,Win32,30.58103976,,,,,,,,,,,,,,,,,,,,,,,324.4239,325.6355,l,1,0.5389,1,325.6356,326.1197,,,,,,398,FEM,NOWORD,AGR,150,trigi,,la,,0.5389,,326.1198,326.12,0.346296381,-0.022222236,0,0,0,,0,54,54,397,1,tribu,,,,
,,,,,,61503885693f6ebde3f2fcbc,676192165fb32c2e1fb7aee6,67d1942325158f41a334c2f9,2025-03-12_15h06.09.008,Tarea de decisión léxica,2024.2.5,Win32,30.58103976,,,,,,,,,,,,,,,,,,,,,,,326.1219,327.262,a,0,0.4507,0,327.2634,327.7669,,,,,,450,FEM,NOWORD,AGR,150,crusa,,la,,0.4507,,327.7685,327.7695,0.346296381,-0.022222236,0,0,0,,0,55,55,449,1,pluma,,,,
,,,,,,61503885693f6ebde3f2fcbc,676192165fb32c2e1fb7aee6,67d1942325158f41a334c2f9,2025-03-12_15h06.09.008,Tarea de decisión léxica,2024.2.5,Win32,30.58103976,,,,,,,,,,,,,,,,,,,,,,,327.7708,328.8808,a,1,0.4305,1,328.8819,329.394,,,,,,105,FEM,WORD,AGR,150,sopa,,la,,0.4305,,329.394,329.3943,0.346296381,-0.022222236,0,0,0,,0,56,56,104,1,vina,,,,
,,,,,,61503885693f6ebde3f2fcbc,676192165fb32c2e1fb7aee6,67d1942325158f41a334c2f9,2025-03-12_15h06.09.008,Tarea de decisión léxica,2024.2.5,Win32,30.58103976,,,,,,,,,,,,,,,,,,,,,,,329.3957,330.5896,l,1,0.5025,1,330.5898,331.0652,,,,,,376,FEM,NOWORD,DIS,150,sasna,,el,,0.5025,,331.0653,331.0655,0.346296381,-0.022222236,0,0,0,,0,57,57,375,1,salsa,,,,
,,,,,,61503885693f6ebde3f2fcbc,676192165fb32c2e1fb7aee6,67d1942325158f41a334c2f9,2025-03-12_15h06.09.008,Tarea de decisión léxica,2024.2.5,Win32,30.58103976,,,,,,,,,,,,,,,,,,,,,,,331.0673,332.1871,a,1,0.4237,1,332.1872,332.6879,,,,,,51,FEM,WORD,DIS,150,caja,,el,,0.4237,,332.688,332.6882,0.346296381,-0.022222236,0,0,0,,0,58,58,50,1,mava,,,,
,,,,,,61503885693f6ebde3f2fcbc,676192165fb32c2e1fb7aee6,67d1942325158f41a334c2f9,2025-03-12_15h06.09.008,Tarea de decisión léxica,2024.2.5,Win32,30.58103976,,,,,,,,,,,,,,,,,,,,,,,332.69,333.8759,l,1,0.4548,1,333.8761,334.3805,,,,,,124,FEM,NOWORD,DIS,150,maba,,el,,0.4548,,334.3824,334.3836,0.346296381,-0.022222236,0,0,0,,0,59,59,123,1,flor,,,,
,,,,,,61503885693f6ebde3f2fcbc,676192165fb32c2e1fb7aee6,67d1942325158f41a334c2f9,2025-03-12_15h06.09.008,Tarea de decisión léxica,2024.2.5,Win32,30.58103976,,,,,,,,,,,,,,,,,,,,,,,334.385,335.6106,a,1,0.5293,1,335.6109,336.1199,,,,,,313,MAS,WORD,AGR,150,novio,,el,,0.5293,,336.12,336.1201,0.346296381,-0.022222236,0,0,0,,0,60,60,312,1,govio,,,,
,,,,,,61503885693f6ebde3f2fcbc,676192165fb32c2e1fb7aee6,67d1942325158f41a334c2f9,2025-03-12_15h06.09.008,Tarea de decisión léxica,2024.2.5,Win32,30.58103976,,,,,,,,,,,,,,,,,,,,,,,336.1219,337.2989,a,1,0.4938,1,337.2991,337.7879,,,,,,81,FEM,WORD,AGR,150,dama,,la,,0.4938,,337.7879,337.788,0.346296381,-0.022222236,0,0,0,,0,61,61,80,1,vasa,,,,
,,,,,,61503885693f6ebde3f2fcbc,676192165fb32c2e1fb7aee6,67d1942325158f41a334c2f9,2025-03-12_15h06.09.008,Tarea de decisión léxica,2024.2.5,Win32,30.58103976,,,,,,,,,,,,,,,,,,,,,,,337.7902,339.0062,l,1,0.5227,1,339.0063,339.4862,,,,,,308,MAS,NOWORD,DIS,150,holol,,la,,0.5227,,339.4864,339.4865,0.346296381,-0.022222236,0,0,0,,0,62,62,307,1,hotel,,,,
,,,,,,61503885693f6ebde3f2fcbc,676192165fb32c2e1fb7aee6,67d1942325158f41a334c2f9,2025-03-12_15h06.09.008,Tarea de decisión léxica,2024.2.5,Win32,30.58103976,,,,,,,,,,,,,,,,,,,,,,,339.4885,340.6954,l,1,0.5051,1,340.6956,341.1975,,,,,,346,FEM,NOWORD,AGR,150,anera,,la,,0.5051,,341.1977,341.1978,0.346296381,-0.022222236,0,0,0,,0,63,63,345,1,arena,,,,
,,,,,,61503885693f6ebde3f2fcbc,676192165fb32c2e1fb7aee6,67d1942325158f41a334c2f9,2025-03-12_15h06.09.008,Tarea de decisión léxica,2024.2.5,Win32,30.58103976,,,,,,,,,,,,,,,,,,,,,,,341.1996,342.2914,a,1,0.417,1,342.2915,342.8008,,,,,,357,FEM,WORD,DIS,150,bruja,,el,,0.417,,342.8025,342.8035,0.346296381,-0.022222236,0,0,0,,0,64,64,356,1,gruba,,,,
,,,,,,61503885693f6ebde3f2fcbc,676192165fb32c2e1fb7aee6,67d1942325158f41a334c2f9,2025-03-12_15h06.09.008,Tarea de decisión léxica,2024.2.5,Win32,30.58103976,,,,,,,,,,,,,,,,,,,,,,,342.8046,344.1605,l,1,0.6494,1,344.1606,344.6605,,,,,,260,MAS,NOWORD,DIS,150,jaumo,,la,,0.6494,,344.6607,344.6608,0.346296381,-0.022222236,0,0,0,,0,65,65,259,1,juego,,,,
,,,,,,61503885693f6ebde3f2fcbc,676192165fb32c2e1fb7aee6,67d1942325158f41a334c2f9,2025-03-12_15h06.09.008,Tarea de decisión léxica,2024.2.5,Win32,30.58103976,,,,,,,,,,,,,,,,,,,,,,,344.6625,345.8582,a,1,0.5089,1,345.8584,346.3638,,,,,,311,MAS,WORD,DIS,150,honor,,la,,0.5089,,346.3639,346.364,0.346296381,-0.022222236,0,0,0,,0,66,66,310,1,nosor,,,,
,,,,,,61503885693f6ebde3f2fcbc,676192165fb32c2e1fb7aee6,67d1942325158f41a334c2f9,2025-03-12_15h06.09.008,Tarea de decisión léxica,2024.2.5,Win32,30.58103976,,,,,,,,,,,,,,,,,,,,,,,346.3656,347.6046,a,1,0.5557,1,347.6048,348.0824,,,,,,39,MAS,WORD,AGR,150,voto,,el,,0.5557,,348.0826,348.0827,0.346296381,-0.022222236,0,0,0,,0,67,67,38,1,redo,,,,
,,,,,,61503885693f6ebde3f2fcbc,676192165fb32c2e1fb7aee6,67d1942325158f41a334c2f9,2025-03-12_15h06.09.008,Tarea de decisión léxica,2024.2.5,Win32,30.58103976,,,,,,,,,,,,,,,,,,,,,,,348.0841,349.3003,l,1,0.5199,1,349.3003,349.7986,,,,,,142,FEM,NOWORD,AGR,150,sina,,la,,0.5199,,349.7987,349.7989,0.346296381,-0.022222236,0,0,0,,0,68,68,141,1,cruz,,,,
,,,,,,61503885693f6ebde3f2fcbc,676192165fb32c2e1fb7aee6,67d1942325158f41a334c2f9,2025-03-12_15h06.09.008,Tarea de decisión léxica,2024.2.5,Win32,30.58103976,,,,,,,,,,,,,,,,,,,,,,,349.8006,350.994,a,1,0.52,1,350.9941,351.4995,,,,,,445,MAS,WORD,AGR,150,actor,,el,,0.52,,351.5012,351.5028,0.346296381,-0.022222236,0,0,0,,0,69,69,444,1,ascor,,,,
,,,,,,61503885693f6ebde3f2fcbc,676192165fb32c2e1fb7aee6,67d1942325158f41a334c2f9,2025-03-12_15h06.09.008,Tarea de decisión léxica,2024.2.5,Win32,30.58103976,,,,,,,,,,,,,,,,,,,,,,,351.5042,352.7269,l,1,0.5461,1,352.7271,353.2256,,,,,,442,FEM,NOWORD,AGR,150,telza,,la,,0.5461,,353.2257,353.2259,0.346296381,-0.022222236,0,0,0,,0,70,70,441,1,selva,,,,
,,,,,,61503885693f6ebde3f2fcbc,676192165fb32c2e1fb7aee6,67d1942325158f41a334c2f9,2025-03-12_15h06.09.008,Tarea de decisión léxica,2024.2.5,Win32,30.58103976,,,,,,,,,,,,,,,,,,,,,,,353.2285,354.4337,l,1,0.5262,1,354.4338,354.9283,,,,,,300,FEM,NOWORD,DIS,150,bosga,,el,,0.5262,,354.9284,354.9285,0.346296381,-0.022222236,0,0,0,,0,71,71,299,1,bolsa,,,,
,,,,,,61503885693f6ebde3f2fcbc,676192165fb32c2e1fb7aee6,67d1942325158f41a334c2f9,2025-03-12_15h06.09.008,Tarea de decisión léxica,2024.2.5,Win32,30.58103976,,,,,,,,,,,,,,,,,,,,,,,354.9298,356.2777,a,1,0.6685,1,356.2779,356.7864,,,,,,67,FEM,WORD,AGR,150,nena,,la,,0.6685,,356.7865,356.7865,0.346296381,-0.022222236,0,0,0,,0,72,72,66,1,gesa,,,,
,,,,,,61503885693f6ebde3f2fcbc,676192165fb32c2e1fb7aee6,67d1942325158f41a334c2f9,2025-03-12_15h06.09.008,Tarea de decisión léxica,2024.2.5,Win32,30.58103976,,,,,,,,,,,,,,,,,,,,,,,356.7879,357.9384,a,1,0.4661,1,357.9386,358.4138,,,,,,333,FEM,WORD,AGR,150,tarea,,la,,0.4661,,358.4139,358.4141,0.346296381,-0.022222236,0,0,0,,0,73,73,332,1,dalea,,,,
,,,,,,61503885693f6ebde3f2fcbc,676192165fb32c2e1fb7aee6,67d1942325158f41a334c2f9,2025-03-12_15h06.09.008,Tarea de decisión léxica,2024.2.5,Win32,30.58103976,,,,,,,,,,,,,,,,,,,,,,,358.4158,359.5453,a,1,0.4503,1,359.5454,360.0436,,,,,,163,FEM,WORD,DIS,150,fama,,el,,0.4503,,360.0455,360.0469,0.346296381,-0.022222236,0,0,0,,0,74,74,162,1,laga,,,,
,,,,,,61503885693f6ebde3f2fcbc,676192165fb32c2e1fb7aee6,67d1942325158f41a334c2f9,2025-03-12_15h06.09.008,Tarea de decisión léxica,2024.2.5,Win32,30.58103976,,,,,,,,,,,,,,,,,,,,,,,360.0482,361.384,l,1,0.6452,1,361.3842,361.8854,,,,,,284,MAS,NOWORD,DIS,150,tuevo,,la,,0.6452,,361.8854,361.8856,0.346296381,-0.022222236,0,0,0,,0,75,75,283,1,sueño,,,,
,,,,,,61503885693f6ebde3f2fcbc,676192165fb32c2e1fb7aee6,67d1942325158f41a334c2f9,2025-03-12_15h06.09.008,Tarea de decisión léxica,2024.2.5,Win32,30.58103976,,,,,,,,,,,,,,,,,,,,,,,361.8877,363.1263,l,1,0.5584,1,363.1265,363.6055,,,,,,354,FEM,NOWORD,AGR,150,cezca,,la,,0.5584,,363.6056,363.6056,0.346296381,-0.022222236,0,0,0,,0,76,76,353,1,celda,,,,
,,,,,,61503885693f6ebde3f2fcbc,676192165fb32c2e1fb7aee6,67d1942325158f41a334c2f9,2025-03-12_15h06.09.008,Tarea de decisión léxica,2024.2.5,Win32,30.58103976,,,,,,,,,,,,,,,,,,,,,,,363.6073,364.8694,l,1,0.5809,1,364.8695,365.3497,,,,,,246,FEM,NOWORD,AGR,150,pafle,,la,,0.5809,,365.3497,365.3499,0.346296381,-0.022222236,0,0,0,,0,77,77,245,1,madre,,,,
,,,,,,61503885693f6ebde3f2fcbc,676192165fb32c2e1fb7aee6,67d1942325158f41a334c2f9,2025-03-12_15h06.09.008,Tarea de decisión léxica,2024.2.5,Win32,30.58103976,,,,,,,,,,,,,,,,,,,,,,,365.3517,366.5918,l,1,0.5616,1,366.5919,367.081,,,,,,254,MAS,NOWORD,AGR,150,trido,,el,,0.5616,,367.0811,367.0812,0.346296381,-0.022222236,0,0,0,,0,78,78,253,1,chico,,,,
,,,,,,61503885693f6ebde3f2fcbc,676192165fb32c2e1fb7aee6,67d1942325158f41a334c2f9,2025-03-12_15h06.09.008,Tarea de decisión léxica,2024.2.5,Win32,30.58103976,,,,,,,,,,,,,,,,,,,,,,,367.0828,368.4433,a,1,0.6745,1,368.4434,368.9699,,,,,,1,FEM,WORD,DIS,150,casa,,el,,0.6745,,368.9718,368.9729,0.346296381,-0.022222236,0,0,0,,0,79,79,0,1,mada,,,,
,,,,,,61503885693f6ebde3f2fcbc,676192165fb32c2e1fb7aee6,67d1942325158f41a334c2f9,2025-03-12_15h06.09.008,Tarea de decisión léxica,2024.2.5,Win32,30.58103976,,,,,,,,,,,,,,,,,,,,,,,368.9741,370.0903,a,1,0.4451,1,370.0904,370.5985,,,,,,281,MAS,WORD,AGR,150,cielo,,el,,0.4451,,370.5985,370.5987,0.346296381,-0.022222236,0,0,0,,0,80,80,280,1,cauro,,,,
,,,,,,61503885693f6ebde3f2fcbc,676192165fb32c2e1fb7aee6,67d1942325158f41a334c2f9,2025-03-12_15h06.09.008,Tarea de decisión léxica,2024.2.5,Win32,30.58103976,,,,,,,,,,,,,,,,,,,,,,,370.6005,371.7025,a,1,0.4139,1,371.7026,372.1872,,,,,,423,MAS,WORD,DIS,150,queso,,la,,0.4139,,372.1873,372.1874,0.346296381,-0.022222236,0,0,0,,0,81,81,422,1,quigo,,,,
,,,,,,61503885693f6ebde3f2fcbc,676192165fb32c2e1fb7aee6,67d1942325158f41a334c2f9,2025-03-12_15h06.09.008,Tarea de decisión léxica,2024.2.5,Win32,30.58103976,,,,,,,,,,,,,,,,,,,,,,,372.1893,373.2669,l,1,0.4116,1,373.267,373.7581,,,,,,424,MAS,NOWORD,DIS,150,quigo,,la,,0.4116,,373.7582,373.7583,0.346296381,-0.022222236,0,0,0,,0,82,82,423,1,queso,,,,
,,,,,,61503885693f6ebde3f2fcbc,676192165fb32c2e1fb7aee6,67d1942325158f41a334c2f9,2025-03-12_15h06.09.008,Tarea de decisión léxica,2024.2.5,Win32,30.58103976,,,,,,,,,,,,,,,,,,,,,,,373.7599,375.2046,l,1,0.7586,1,375.2047,375.6999,,,,,,388,FEM,NOWORD,DIS,150,bresa,,el,,0.7586,,375.7017,375.7032,0.346296381,-0.022222236,0,0,0,,0,83,83,387,1,crema,,,,
,,,,,,61503885693f6ebde3f2fcbc,676192165fb32c2e1fb7aee6,67d1942325158f41a334c2f9,2025-03-12_15h06.09.008,Tarea de decisión léxica,2024.2.5,Win32,30.58103976,,,,,,,,,,,,,,,,,,,,,,,375.7044,376.7612,a,0,0.3816,0,376.763,377.2708,,,,,,36,MAS,NOWORD,DIS,150,meno,,la,,0.3816,,377.2709,377.271,0.346296381,-0.022222236,0,0,0,,0,84,84,35,1,pelo,,,,
,,,,,,61503885693f6ebde3f2fcbc,676192165fb32c2e1fb7aee6,67d1942325158f41a334c2f9,2025-03-12_15h06.09.008,Tarea de decisión léxica,2024.2.5,Win32,30.58103976,,,,,,,,,,,,,,,,,,,,,,,377.2727,378.6048,l,1,0.6379,1,378.6059,379.0932,,,,,,222,FEM,NOWORD,AGR,150,puca,,la,,0.6379,,379.0932,379.0934,0.346296381,-0.022222236,0,0,0,,0,85,85,221,1,mula,,,,
,,,,,,61503885693f6ebde3f2fcbc,676192165fb32c2e1fb7aee6,67d1942325158f41a334c2f9,2025-03-12_15h06.09.008,Tarea de decisión léxica,2024.2.5,Win32,30.58103976,,,,,,,,,,,,,,,,,,,,,,,379.095,380.1807,l,1,0.4016,1,380.1808,380.674,,,,,,160,MAS,NOWORD,DIS,150,bilo,,la,,0.4016,,380.6741,380.6743,0.346296381,-0.022222236,0,0,0,,0,86,86,159,1,giro,,,,
,,,,,,61503885693f6ebde3f2fcbc,676192165fb32c2e1fb7aee6,67d1942325158f41a334c2f9,2025-03-12_15h06.09.008,Tarea de decisión léxica,2024.2.5,Win32,30.58103976,,,,,,,,,,,,,,,,,,,,,,,380.6759,381.8054,a,1,0.4611,1,381.8055,382.3093,,,,,,319,MAS,WORD,DIS,150,suelo,,la,,0.4611,,382.3094,382.3095,0.346296381,-0.022222236,0,0,0,,0,87,87,318,1,tuero,,,,
,,,,,,61503885693f6ebde3f2fcbc,676192165fb32c2e1fb7aee6,67d1942325158f41a334c2f9,2025-03-12_15h06.09.008,Tarea de decisión léxica,2024.2.5,Win32,30.58103976,,,,,,,,,,,,,,,,,,,,,,,382.3113,383.7128,l,0,0.7134,0,383.7152,384.1991,,,,,,135,MAS,WORD,DIS,150,tubo,,la,,0.7134,,384.2009,384.202,0.346296381,-0.022222236,0,0,0,,0,88,88,134,1,geso,,,,
,,,,,,61503885693f6ebde3f2fcbc,676192165fb32c2e1fb7aee6,67d1942325158f41a334c2f9,2025-03-12_15h06.09.008,Tarea de decisión léxica,2024.2.5,Win32,30.58103976,,,,,,,,,,,,,,,,,,,,,,,384.2031,385.4366,l,1,0.5271,1,385.4377,385.9214,,,,,,230,MAS,NOWORD,AGR,150,ador,,el,,0.5271,,385.9215,385.9216,0.346296381,-0.022222236,0,0,0,,0,89,89,229,1,amor,,,,
,,,,,,61503885693f6ebde3f2fcbc,676192165fb32c2e1fb7aee6,67d1942325158f41a334c2f9,2025-03-12_15h06.09.008,Tarea de decisión léxica,2024.2.5,Win32,30.58103976,,,,,,,,,,,,,,,,,,,,,,,385.9238,387.3247,a,1,0.7158,1,387.3248,387.8109,,,,,,479,MAS,WORD,AGR,150,rumbo,,el,,0.7158,,387.8109,387.8111,0.346296381,-0.022222236,0,0,0,,0,90,90,478,1,rimpo,,,,
,,,,,,61503885693f6ebde3f2fcbc,676192165fb32c2e1fb7aee6,67d1942325158f41a334c2f9,2025-03-12_15h06.09.008,Tarea de decisión léxica,2024.2.5,Win32,30.58103976,,,,,,,,,,,,,,,,,,,,,,,387.8132,388.9987,l,1,0.4778,1,388.9988,389.4907,,,,,,468,MAS,NOWORD,DIS,150,peiso,,la,,0.4778,,389.4908,389.4909,0.346296381,-0.022222236,0,0,0,,0,91,91,467,1,piano,,,,
,,,,,,61503885693f6ebde3f2fcbc,676192165fb32c2e1fb7aee6,67d1942325158f41a334c2f9,2025-03-12_15h06.09.008,Tarea de decisión léxica,2024.2.5,Win32,30.58103976,,,,,,,,,,,,,,,,,,,,,,,389.4927,390.5574,l,1,0.3911,1,390.5576,391.0966,,,,,,462,FEM,NOWORD,AGR,150,pagra,,la,,0.3911,,391.0967,391.0968,0.346296381,-0.022222236,0,0,0,,0,92,92,461,1,tabla,,,,
,,,,,,61503885693f6ebde3f2fcbc,676192165fb32c2e1fb7aee6,67d1942325158f41a334c2f9,2025-03-12_15h06.09.008,Tarea de decisión léxica,2024.2.5,Win32,30.58103976,,,,,,,,,,,,,,,,,,,,,,,391.0982,392.1419,a,0,0.3488,0,392.1433,392.6379,,,,,,470,MAS,NOWORD,AGR,150,matia,,el,,0.3488,,392.6401,392.6414,0.346296381,-0.022222236,0,0,0,,0,93,93,469,1,patio,,,,
,,,,,,61503885693f6ebde3f2fcbc,676192165fb32c2e1fb7aee6,67d1942325158f41a334c2f9,2025-03-12_15h06.09.008,Tarea de decisión léxica,2024.2.5,Win32,30.58103976,,,,,,,,,,,,,,,,,,,,,,,392.6425,393.7368,l,1,0.3949,1,393.7395,394.2356,,,,,,170,MAS,NOWORD,AGR,150,mibo,,el,,0.3949,,394.2357,394.2359,0.346296381,-0.022222236,0,0,0,,0,94,94,169,1,cubo,,,,
,,,,,,61503885693f6ebde3f2fcbc,676192165fb32c2e1fb7aee6,67d1942325158f41a334c2f9,2025-03-12_15h06.09.008,Tarea de decisión léxica,2024.2.5,Win32,30.58103976,,,,,,,,,,,,,,,,,,,,,,,394.2377,395.2977,l,1,0.3857,1,395.2979,395.7913,,,,,,212,FEM,NOWORD,DIS,150,joad,,el,,0.3857,,395.7914,395.7915,0.346296381,-0.022222236,0,0,0,,0,95,95,211,1,joya,,,,
,,,,,,61503885693f6ebde3f2fcbc,676192165fb32c2e1fb7aee6,67d1942325158f41a334c2f9,2025-03-12_15h06.09.008,Tarea de decisión léxica,2024.2.5,Win32,30.58103976,,,,,,,,,,,,,,,,,,,,,,,395.7934,396.914,a,0,0.4324,0,396.9149,397.4101,,,,,,174,FEM,NOWORD,AGR,150,boma,,la,,0.4324,,397.4102,397.4102,0.346296381,-0.022222236,0,0,0,,0,96,96,173,1,rosa,,,,
,,,,,,61503885693f6ebde3f2fcbc,676192165fb32c2e1fb7aee6,67d1942325158f41a334c2f9,2025-03-12_15h06.09.008,Tarea de decisión léxica,2024.2.5,Win32,30.58103976,,,,,,,,,,,,,,,,,,,,,,,397.4122,398.5808,l,1,0.4911,1,398.5821,399.0972,,,,,,126,MAS,NOWORD,AGR,150,vudo,,el,,0.4911,,399.0973,399.0974,0.346296381,-0.022222236,0,0,0,,0,97,97,125,1,lujo,,,,
,,,,,,61503885693f6ebde3f2fcbc,676192165fb32c2e1fb7aee6,67d1942325158f41a334c2f9,2025-03-12_15h06.09.008,Tarea de decisión léxica,2024.2.5,Win32,30.58103976,,,,,,,,,,,,,,,,,,,,,,,399.0987,400.3177,a,1,0.5259,1,400.3178,400.8156,,,,,,465,FEM,WORD,DIS,150,aguja,,el,,0.5259,,400.8176,400.8187,0.346296381,-0.022222236,0,0,0,,0,98,98,464,1,asuba,,,,
,,,,,,61503885693f6ebde3f2fcbc,676192165fb32c2e1fb7aee6,67d1942325158f41a334c2f9,2025-03-12_15h06.09.008,Tarea de decisión léxica,2024.2.5,Win32,30.58103976,,,,,,,,,,,,,,,,,,,,,,,400.8199,401.9622,a,1,0.4684,1,401.9624,402.4559,,,,,,279,FEM,WORD,DIS,150,prisa,,el,,0.4684,,402.4559,402.4561,0.346296381,-0.022222236,0,0,0,,0,99,99,278,1,grina,,,,
,,,,,,61503885693f6ebde3f2fcbc,676192165fb32c2e1fb7aee6,67d1942325158f41a334c2f9,2025-03-12_15h06.09.008,Tarea de decisión léxica,2024.2.5,Win32,30.58103976,,,,,,,,,,,,,,,,,,,,,,,402.4581,403.7981,l,1,0.6486,1,403.7982,404.2768,,,,,,268,MAS,NOWORD,DIS,150,figro,,la,,0.6486,,404.2768,404.277,0.346296381,-0.022222236,0,0,0,,0,100,100,267,1,libro,,,,
,,,,,,61503885693f6ebde3f2fcbc,676192165fb32c2e1fb7aee6,67d1942325158f41a334c2f9,2025-03-12_15h06.09.008,Tarea de decisión léxica,2024.2.5,Win32,30.58103976,,,,,,,,,,,,,,,,,,,,,,,404.2789,405.4495,a,1,0.4837,1,405.4496,405.9473,,,,,,259,MAS,WORD,AGR,150,juego,,el,,0.4837,,405.9473,405.9475,0.346296381,-0.022222236,0,0,0,,0,101,101,258,1,jaumo,,,,
,,,,,,61503885693f6ebde3f2fcbc,676192165fb32c2e1fb7aee6,67d1942325158f41a334c2f9,2025-03-12_15h06.09.008,Tarea de decisión léxica,2024.2.5,Win32,30.58103976,,,,,,,,,,,,,,,,,,,,,,,405.9498,407.2668,l,1,0.6226,1,407.2668,407.7651,,,,,,288,FEM,NOWORD,DIS,150,fosta,,el,,0.6226,,407.7651,407.7652,0.346296381,-0.022222236,0,0,0,,0,102,102,287,1,lista,,,,
,,,,,,61503885693f6ebde3f2fcbc,676192165fb32c2e1fb7aee6,67d1942325158f41a334c2f9,2025-03-12_15h06.09.008,Tarea de decisión léxica,2024.2.5,Win32,30.58103976,,,,,,,,,,,,,,,,,,,,,,,407.7668,409.14,l,1,0.6234,1,409.14,409.6288,,,,,,340,MAS,NOWORD,DIS,150,plajo,,la,,0.6234,,409.6306,409.632,0.346296381,-0.022222236,0,0,0,,0,103,103,339,1,brazo,,,,
,,,,,,61503885693f6ebde3f2fcbc,676192165fb32c2e1fb7aee6,67d1942325158f41a334c2f9,2025-03-12_15h06.09.008,Tarea de decisión léxica,2024.2.5,Win32,30.58103976,,,,,,,,,,,,,,,,,,,,,,,409.6333,411.0579,l,1,0.7258,1,411.058,411.5537,,,,,,18,FEM,NOWORD,AGR,150,paba,,la,,0.7258,,411.5538,411.5539,0.346296381,-0.022222236,0,0,0,,0,104,104,17,1,mamá,,,,
,,,,,,61503885693f6ebde3f2fcbc,676192165fb32c2e1fb7aee6,67d1942325158f41a334c2f9,2025-03-12_15h06.09.008,Tarea de decisión léxica,2024.2.5,Win32,30.58103976,,,,,,,,,,,,,,,,,,,,,,,411.556,412.7774,l,1,0.5613,1,412.7776,413.2836,,,,,,360,MAS,NOWORD,DIS,150,cacer,,la,,0.5613,,413.2836,413.2838,0.346296381,-0.022222236,0,0,0,,0,105,105,359,1,calor,,,,
,,,,,,61503885693f6ebde3f2fcbc,676192165fb32c2e1fb7aee6,67d1942325158f41a334c2f9,2025-03-12_15h06.09.008,Tarea de decisión léxica,2024.2.5,Win32,30.58103976,,,,,,,,,,,,,,,,,,,,,,,413.2855,414.562,l,1,0.5916,1,414.5623,415.0582,,,,,,480,MAS,NOWORD,DIS,150,rimpo,,la,,0.5916,,415.0583,415.0585,0.346296381,-0.022222236,0,0,0,,0,106,106,479,1,rumbo,,,,
,,,,,,61503885693f6ebde3f2fcbc,676192165fb32c2e1fb7aee6,67d1942325158f41a334c2f9,2025-03-12_15h06.09.008,Tarea de decisión léxica,2024.2.5,Win32,30.58103976,,,,,,,,,,,,,,,,,,,,,,,415.0602,416.2241,l,1,0.4809,1,416.2243,416.7123,,,,,,118,MAS,NOWORD,AGR,150,movo,,el,,0.4809,,416.7142,416.7153,0.346296381,-0.022222236,0,0,0,,0,107,107,117,1,palo,,,,
,,,,,,61503885693f6ebde3f2fcbc,676192165fb32c2e1fb7aee6,67d1942325158f41a334c2f9,2025-03-12_15h06.09.008,Tarea de decisión léxica,2024.2.5,Win32,30.58103976,,,,,,,,,,,,,,,,,,,,,,,416.7164,417.9536,a,1,0.5578,1,417.9537,418.426,,,,,,71,FEM,WORD,AGR,150,isla,,la,,0.5578,,418.4261,418.4262,0.346296381,-0.022222236,0,0,0,,0,108,108,70,1,urla,,,,
,,,,,,61503885693f6ebde3f2fcbc,676192165fb32c2e1fb7aee6,67d1942325158f41a334c2f9,2025-03-12_15h06.09.008,Tarea de decisión léxica,2024.2.5,Win32,30.58103976,,,,,,,,,,,,,,,,,,,,,,,418.428,419.6203,a,1,0.5151,1,419.6205,420.1221,,,,,,455,MAS,WORD,AGR,150,reino,,el,,0.5151,,420.1222,420.1224,0.346296381,-0.022222236,0,0,0,,0,109,109,454,1,riaso,,,,
,,,,,,61503885693f6ebde3f2fcbc,676192165fb32c2e1fb7aee6,67d1942325158f41a334c2f9,2025-03-12_15h06.09.008,Tarea de decisión léxica,2024.2.5,Win32,30.58103976,,,,,,,,,,,,,,,,,,,,,,,420.1242,421.3126,a,1,0.5245,1,421.3128,421.8167,,,,,,349,MAS,WORD,DIS,150,color,,la,,0.5245,,421.8167,421.8169,0.346296381,-0.022222236,0,0,0,,0,110,110,348,1,cosir,,,,
,,,,,,61503885693f6ebde3f2fcbc,676192165fb32c2e1fb7aee6,67d1942325158f41a334c2f9,2025-03-12_15h06.09.008,Tarea de decisión léxica,2024.2.5,Win32,30.58103976,,,,,,,,,,,,,,,,,,,,,,,421.8186,422.9137,a,1,0.4035,1,422.9138,423.4425,,,,,,3,FEM,WORD,AGR,150,vida,,la,,0.4035,,423.4426,423.4427,0.346296381,-0.022222236,0,0,0,,0,111,111,2,1,dica,,,,
,,,,,,61503885693f6ebde3f2fcbc,676192165fb32c2e1fb7aee6,67d1942325158f41a334c2f9,2025-03-12_15h06.09.008,Tarea de decisión léxica,2024.2.5,Win32,30.58103976,,,,,,,,,,,,,,,,,,,,,,,423.4447,424.5835,l,1,0.4462,1,424.5836,425.0758,,,,,,98,MAS,NOWORD,AGR,150,fopo,,el,,0.4462,,425.0779,425.079,0.346296381,-0.022222236,0,0,0,,0,112,112,97,1,mono,,,,
,,,,,,61503885693f6ebde3f2fcbc,676192165fb32c2e1fb7aee6,67d1942325158f41a334c2f9,2025-03-12_15h06.09.008,Tarea de decisión léxica,2024.2.5,Win32,30.58103976,,,,,,,,,,,,,,,,,,,,,,,425.0802,426.2948,l,1,0.522,1,426.2949,426.8024,,,,,,150,MAS,NOWORD,AGR,150,pafo,,el,,0.522,,426.8024,426.8025,0.346296381,-0.022222236,0,0,0,,0,113,113,149,1,cabo,,,,
,,,,,,61503885693f6ebde3f2fcbc,676192165fb32c2e1fb7aee6,67d1942325158f41a334c2f9,2025-03-12_15h06.09.008,Tarea de decisión léxica,2024.2.5,Win32,30.58103976,,,,,,,,,,,,,,,,,,,,,,,426.8043,427.8889,l,1,0.4214,1,427.889,428.3749,,,,,,68,FEM,NOWORD,DIS,150,gesa,,el,,0.4214,,428.3751,428.3752,0.346296381,-0.022222236,0,0,0,,0,114,114,67,1,nena,,,,
,,,,,,61503885693f6ebde3f2fcbc,676192165fb32c2e1fb7aee6,67d1942325158f41a334c2f9,2025-03-12_15h06.09.008,Tarea de decisión léxica,2024.2.5,Win32,30.58103976,,,,,,,,,,,,,,,,,,,,,,,428.3768,429.6664,a,1,0.6023,1,429.6667,430.1574,,,,,,201,FEM,WORD,DIS,150,cuna,,el,,0.6023,,430.1574,430.1577,0.346296381,-0.022222236,0,0,0,,0,115,115,200,1,cusa,,,,
,,,,,,61503885693f6ebde3f2fcbc,676192165fb32c2e1fb7aee6,67d1942325158f41a334c2f9,2025-03-12_15h06.09.008,Tarea de decisión léxica,2024.2.5,Win32,30.58103976,,,,,,,,,,,,,,,,,,,,,,,430.1596,431.379,a,1,0.5385,1,431.379,431.8723,,,,,,267,MAS,WORD,AGR,150,libro,,el,,0.5385,,431.8724,431.8725,0.346296381,-0.022222236,0,0,0,,0,116,116,266,1,figro,,,,
,,,,,,61503885693f6ebde3f2fcbc,676192165fb32c2e1fb7aee6,67d1942325158f41a334c2f9,2025-03-12_15h06.09.008,Tarea de decisión léxica,2024.2.5,Win32,30.58103976,,,,,,,,,,,,,,,,,,,,,,,431.8742,433.0059,a,1,0.4688,1,433.006,433.4526,,,,,,165,FEM,WORD,AGR,150,vela,,la,,0.4688,,433.4545,433.4559,0.346296381,-0.022222236,0,0,0,,0,117,117,164,1,dera,,,,
,,,,,,61503885693f6ebde3f2fcbc,676192165fb32c2e1fb7aee6,67d1942325158f41a334c2f9,2025-03-12_15h06.09.008,Tarea de decisión léxica,2024.2.5,Win32,30.58103976,,,,,,,,,,,,,,,,,,,,,,,433.4572,434.677,l,1,0.543,1,434.6771,435.1703,,,,,,172,MAS,NOWORD,DIS,150,niro,,la,,0.543,,435.1704,435.1706,0.346296381,-0.022222236,0,0,0,,0,118,118,171,1,hilo,,,,
,,,,,,61503885693f6ebde3f2fcbc,676192165fb32c2e1fb7aee6,67d1942325158f41a334c2f9,2025-03-12_15h06.09.008,Tarea de decisión léxica,2024.2.5,Win32,30.58103976,,,,,,,,,,,,,,,,,,,,,,,435.1724,436.2394,l,1,0.3956,1,436.2396,436.7362,,,,,,16,FEM,NOWORD,DIS,150,odea,,el,,0.3956,,436.7362,436.7363,0.346296381,-0.022222236,0,0,0,,0,119,119,15,1,idea,,,,
,,,,,,61503885693f6ebde3f2fcbc,676192165fb32c2e1fb7aee6,67d1942325158f41a334c2f9,2025-03-12_15h06.09.008,Tarea de decisión léxica,2024.2.5,Win32,30.58103976,,,,,,,,,,,,,,,,,,,,,,,436.738,437.8562,l,1,0.4207,1,437.8564,438.3516,,,,,,352,MAS,NOWORD,DIS,150,duepo,,la,,0.4207,,438.3517,438.3519,0.346296381,-0.022222236,0,0,0,,0,120,120,351,1,vuelo,,,,
,,,,,,61503885693f6ebde3f2fcbc,676192165fb32c2e1fb7aee6,67d1942325158f41a334c2f9,2025-03-12_15h06.09.008,Tarea de decisión léxica,2024.2.5,Win32,30.58103976,,,,,,,,,,,,,,,,,,,,,,,438.3539,439.6276,a,1,0.5917,1,439.6278,440.1572,,,,,,425,FEM,WORD,AGR,150,viuda,,la,,0.5917,,440.1573,440.1574,0.346296381,-0.022222236,0,0,0,,0,121,121,424,1,virca,,,,
,,,,,,61503885693f6ebde3f2fcbc,676192165fb32c2e1fb7aee6,67d1942325158f41a334c2f9,2025-03-12_15h06.09.008,Tarea de decisión léxica,2024.2.5,Win32,30.58103976,,,,,,,,,,,,,,,,,,,,,,,440.1589,441.4708,l,1,0.607,1,441.4708,441.9526,,,,,,264,FEM,NOWORD,DIS,150,dosta,,el,,0.607,,441.955,441.9562,0.346296381,-0.022222236,0,0,0,,0,122,122,263,1,vista,,,,
,,,,,,61503885693f6ebde3f2fcbc,676192165fb32c2e1fb7aee6,67d1942325158f41a334c2f9,2025-03-12_15h06.09.008,Tarea de decisión léxica,2024.2.5,Win32,30.58103976,,,,,,,,,,,,,,,,,,,,,,,441.9573,443.318,a,1,0.6619,1,443.3181,443.8181,,,,,,273,FEM,WORD,AGR,150,broma,,la,,0.6619,,443.8183,443.8183,0.346296381,-0.022222236,0,0,0,,0,123,123,272,1,frosa,,,,
,,,,,,61503885693f6ebde3f2fcbc,676192165fb32c2e1fb7aee6,67d1942325158f41a334c2f9,2025-03-12_15h06.09.008,Tarea de decisión léxica,2024.2.5,Win32,30.58103976,,,,,,,,,,,,,,,,,,,,,,,443.8203,445.0012,l,0,0.5016,0,445.0025,445.4889,,,,,,241,MAS,WORD,DIS,150,mundo,,la,,0.5016,,445.4889,445.4892,0.346296381,-0.022222236,0,0,0,,0,124,124,240,1,mirdo,,,,
,,,,,,61503885693f6ebde3f2fcbc,676192165fb32c2e1fb7aee6,67d1942325158f41a334c2f9,2025-03-12_15h06.09.008,Tarea de decisión léxica,2024.2.5,Win32,30.58103976,,,,,,,,,,,,,,,,,,,,,,,445.4911,446.8424,l,1,0.6673,1,446.8433,447.3491,,,,,,294,MAS,NOWORD,AGR,150,cacso,,el,,0.6673,,447.3492,447.3493,0.346296381,-0.022222236,0,0,0,,0,125,125,293,1,campo,,,,
,,,,,,61503885693f6ebde3f2fcbc,676192165fb32c2e1fb7aee6,67d1942325158f41a334c2f9,2025-03-12_15h06.09.008,Tarea de decisión léxica,2024.2.5,Win32,30.58103976,,,,,,,,,,,,,,,,,,,,,,,447.3512,448.5619,l,1,0.5284,1,448.562,449.0565,,,,,,266,FEM,NOWORD,AGR,150,pitat,,la,,0.5284,,449.0566,449.0567,0.346296381,-0.022222236,0,0,0,,0,126,126,265,1,mitad,,,,
,,,,,,61503885693f6ebde3f2fcbc,676192165fb32c2e1fb7aee6,67d1942325158f41a334c2f9,2025-03-12_15h06.09.008,Tarea de decisión léxica,2024.2.5,Win32,30.58103976,,,,,,,,,,,,,,,,,,,,,,,449.0584,450.3066,l,1,0.5543,1,450.3067,450.7885,,,,,,84,FEM,NOWORD,DIS,150,taga,,el,,0.5543,,450.7905,450.7916,0.346296381,-0.022222236,0,0,0,,0,127,127,83,1,bala,,,,
,,,,,,61503885693f6ebde3f2fcbc,676192165fb32c2e1fb7aee6,67d1942325158f41a334c2f9,2025-03-12_15h06.09.008,Tarea de decisión léxica,2024.2.5,Win32,30.58103976,,,,,,,,,,,,,,,,,,,,,,,450.7927,451.9176,l,1,0.4349,1,451.9178,452.4029,,,,,,204,FEM,NOWORD,DIS,150,beja,,el,,0.4349,,452.4033,452.4035,0.346296381,-0.022222236,0,0,0,,0,128,128,203,1,leña,,,,
,,,,,,61503885693f6ebde3f2fcbc,676192165fb32c2e1fb7aee6,67d1942325158f41a334c2f9,2025-03-12_15h06.09.008,Tarea de decisión léxica,2024.2.5,Win32,30.58103976,,,,,,,,,,,,,,,,,,,,,,,452.4054,453.6447,l,1,0.5586,1,453.6448,454.1389,,,,,,152,MAS,NOWORD,DIS,150,sogo,,la,,0.5586,,454.139,454.139,0.346296381,-0.022222236,0,0,0,,0,129,129,151,1,tomo,,,,
,,,,,,61503885693f6ebde3f2fcbc,676192165fb32c2e1fb7aee6,67d1942325158f41a334c2f9,2025-03-12_15h06.09.008,Tarea de decisión léxica,2024.2.5,Win32,30.58103976,,,,,,,,,,,,,,,,,,,,,,,454.1409,455.5675,l,1,0.7181,1,455.5676,456.0802,,,,,,332,MAS,NOWORD,DIS,150,erato,,la,,0.7181,,456.0803,456.0803,0.346296381,-0.022222236,0,0,0,,0,130,130,331,1,éxito,,,,
,,,,,,61503885693f6ebde3f2fcbc,676192165fb32c2e1fb7aee6,67d1942325158f41a334c2f9,2025-03-12_15h06.09.008,Tarea de decisión léxica,2024.2.5,Win32,30.58103976,,,,,,,,,,,,,,,,,,,,,,,456.082,457.3511,a,1,0.5784,1,457.3512,457.8408,,,,,,299,FEM,WORD,DIS,150,bolsa,,el,,0.5784,,457.8436,457.8448,0.346296381,-0.022222236,0,0,0,,0,131,131,298,1,bosga,,,,
,,,,,,61503885693f6ebde3f2fcbc,676192165fb32c2e1fb7aee6,67d1942325158f41a334c2f9,2025-03-12_15h06.09.008,Tarea de decisión léxica,2024.2.5,Win32,30.58103976,,,,,,,,,,,,,,,,,,,,,,,457.846,459.227,l,1,0.6929,1,459.2272,459.7201,,,,,,10,MAS,NOWORD,AGR,150,sibo,,el,,0.6929,,459.7202,459.7203,0.346296381,-0.022222236,0,0,0,,0,132,132,9,1,tipo,,,,
,,,,,,61503885693f6ebde3f2fcbc,676192165fb32c2e1fb7aee6,67d1942325158f41a334c2f9,2025-03-12_15h06.09.008,Tarea de decisión léxica,2024.2.5,Win32,30.58103976,,,,,,,,,,,,,,,,,,,,,,,459.722,461.1273,a,1,0.6964,1,461.1273,461.6036,,,,,,401,MAS,WORD,AGR,150,polvo,,el,,0.6964,,461.6037,461.6039,0.346296381,-0.022222236,0,0,0,,0,133,133,400,1,pirvo,,,,
,,,,,,61503885693f6ebde3f2fcbc,676192165fb32c2e1fb7aee6,67d1942325158f41a334c2f9,2025-03-12_15h06.09.008,Tarea de decisión léxica,2024.2.5,Win32,30.58103976,,,,,,,,,,,,,,,,,,,,,,,461.6057,463.0547,a,1,0.7807,1,463.0548,463.5512,,,,,,451,FEM,WORD,DIS,150,fruta,,el,,0.7807,,463.5512,463.5513,0.346296381,-0.022222236,0,0,0,,0,134,134,450,1,clita,,,,
,,,,,,61503885693f6ebde3f2fcbc,676192165fb32c2e1fb7aee6,67d1942325158f41a334c2f9,2025-03-12_15h06.09.008,Tarea de decisión léxica,2024.2.5,Win32,30.58103976,,,,,,,,,,,,,,,,,,,,,,,463.5526,464.6786,l,1,0.4365,1,464.6788,465.1576,,,,,,356,FEM,NOWORD,DIS,150,bepla,,el,,0.4365,,465.1577,465.1578,0.346296381,-0.022222236,0,0,0,,0,135,135,355,1,regla,,,,
,,,,,,61503885693f6ebde3f2fcbc,676192165fb32c2e1fb7aee6,67d1942325158f41a334c2f9,2025-03-12_15h06.09.008,Tarea de decisión léxica,2024.2.5,Win32,30.58103976,,,,,,,,,,,,,,,,,,,,,,,465.1592,466.7196,a,1,0.8651,1,466.7197,467.2209,,,,,,53,FEM,WORD,AGR,150,boda,,la,,0.8651,,467.2227,467.2238,0.346296381,-0.022222236,0,0,0,,0,136,136,52,1,rora,,,,
,,,,,,61503885693f6ebde3f2fcbc,676192165fb32c2e1fb7aee6,67d1942325158f41a334c2f9,2025-03-12_15h06.09.008,Tarea de decisión léxica,2024.2.5,Win32,30.58103976,,,,,,,,,,,,,,,,,,,,,,,467.2249,468.404,a,1,0.5024,1,468.4042,468.9154,,,,,,365,FEM,WORD,AGR,150,ducha,,la,,0.5024,,468.9155,468.9157,0.346296381,-0.022222236,0,0,0,,0,137,137,364,1,gulla,,,,
,,,,,,61503885693f6ebde3f2fcbc,676192165fb32c2e1fb7aee6,67d1942325158f41a334c2f9,2025-03-12_15h06.09.008,Tarea de decisión léxica,2024.2.5,Win32,30.58103976,,,,,,,,,,,,,,,,,,,,,,,468.9172,470.2103,l,1,0.596,1,470.2105,470.7118,,,,,,154,MAS,NOWORD,AGR,150,tado,,el,,0.596,,470.7119,470.7121,0.346296381,-0.022222236,0,0,0,,0,138,138,153,1,pato,,,,
,,,,,,61503885693f6ebde3f2fcbc,676192165fb32c2e1fb7aee6,67d1942325158f41a334c2f9,2025-03-12_15h06.09.008,Tarea de decisión léxica,2024.2.5,Win32,30.58103976,,,,,,,,,,,,,,,,,,,,,,,470.7139,472.1774,a,1,0.7854,1,472.1776,472.6782,,,,,,463,FEM,WORD,AGR,150,cabra,,la,,0.7854,,472.6782,472.6784,0.346296381,-0.022222236,0,0,0,,0,139,139,462,1,matla,,,,
,,,,,,61503885693f6ebde3f2fcbc,676192165fb32c2e1fb7aee6,67d1942325158f41a334c2f9,2025-03-12_15h06.09.008,Tarea de decisión léxica,2024.2.5,Win32,30.58103976,,,,,,,,,,,,,,,,,,,,,,,472.6801,473.9461,a,1,0.5397,1,473.9463,474.4342,,,,,,193,FEM,WORD,DIS,150,loca,,el,,0.5397,,474.4344,474.4345,0.346296381,-0.022222236,0,0,0,,0,140,140,192,1,foda,,,,
,,,,,,61503885693f6ebde3f2fcbc,676192165fb32c2e1fb7aee6,67d1942325158f41a334c2f9,2025-03-12_15h06.09.008,Tarea de decisión léxica,2024.2.5,Win32,30.58103976,,,,,,,,,,,,,,,,,,,,,,,474.4366,475.6302,l,1,0.5212,1,475.6303,476.127,,,,,,90,MAS,NOWORD,AGR,150,guso,,el,,0.5212,,476.1288,476.1298,0.346296381,-0.022222236,0,0,0,,0,141,141,89,1,humo,,,,
,,,,,,61503885693f6ebde3f2fcbc,676192165fb32c2e1fb7aee6,67d1942325158f41a334c2f9,2025-03-12_15h06.09.008,Tarea de decisión léxica,2024.2.5,Win32,30.58103976,,,,,,,,,,,,,,,,,,,,,,,476.1308,477.5168,l,1,0.7071,1,477.5169,478.0179,,,,,,364,FEM,NOWORD,DIS,150,veida,,el,,0.7071,,478.0179,478.0181,0.346296381,-0.022222236,0,0,0,,0,142,142,363,1,deuda,,,,
,,,,,,61503885693f6ebde3f2fcbc,676192165fb32c2e1fb7aee6,67d1942325158f41a334c2f9,2025-03-12_15h06.09.008,Tarea de decisión léxica,2024.2.5,Win32,30.58103976,,,,,,,,,,,,,,,,,,,,,,,478.0205,479.3175,a,1,0.574,1,479.3177,479.8226,,,,,,91,FEM,WORD,AGR,150,taza,,la,,0.574,,479.8227,479.8228,0.346296381,-0.022222236,0,0,0,,0,143,143,90,1,sava,,,,
,,,,,,61503885693f6ebde3f2fcbc,676192165fb32c2e1fb7aee6,67d1942325158f41a334c2f9,2025-03-12_15h06.09.008,Tarea de decisión léxica,2024.2.5,Win32,30.58103976,,,,,,,,,,,,,,,,,,,,,,,479.8244,481.1972,a,1,0.6971,1,481.1973,481.6919,,,,,,293,MAS,WORD,DIS,150,campo,,la,,0.6971,,481.692,481.6921,0.346296381,-0.022222236,0,0,0,,0,144,144,292,1,cacso,,,,
,,,,,,61503885693f6ebde3f2fcbc,676192165fb32c2e1fb7aee6,67d1942325158f41a334c2f9,2025-03-12_15h06.09.008,Tarea de decisión léxica,2024.2.5,Win32,30.58103976,,,,,,,,,,,,,,,,,,,,,,,481.694,482.8595,l,1,0.4797,1,482.8596,483.3533,,,,,,50,FEM,NOWORD,AGR,150,ecat,,la,,0.4797,,483.3533,483.3535,0.346296381,-0.022222236,0,0,0,,0,145,145,49,1,edad,,,,
,,,,,,61503885693f6ebde3f2fcbc,676192165fb32c2e1fb7aee6,67d1942325158f41a334c2f9,2025-03-12_15h06.09.008,Tarea de decisión léxica,2024.2.5,Win32,30.58103976,,,,,,,,,,,,,,,,,,,,,,,483.3569,484.6693,a,1,0.6419,1,484.6694,485.17,,,,,,433,MAS,WORD,DIS,150,disco,,la,,0.6419,,485.1718,485.1727,0.346296381,-0.022222236,0,0,0,,0,146,146,432,1,durco,,,,
,,,,,,61503885693f6ebde3f2fcbc,676192165fb32c2e1fb7aee6,67d1942325158f41a334c2f9,2025-03-12_15h06.09.008,Tarea de decisión léxica,2024.2.5,Win32,30.58103976,,,,,,,,,,,,,,,,,,,,,,,485.1739,486.2828,l,1,0.433,1,486.283,486.7769,,,,,,12,MAS,NOWORD,DIS,150,bapo,,la,,0.433,,486.7769,486.7771,0.346296381,-0.022222236,0,0,0,,0,147,147,11,1,lado,,,,
,,,,,,61503885693f6ebde3f2fcbc,676192165fb32c2e1fb7aee6,67d1942325158f41a334c2f9,2025-03-12_15h06.09.008,Tarea de decisión léxica,2024.2.5,Win32,30.58103976,,,,,,,,,,,,,,,,,,,,,,,486.7794,487.9504,l,1,0.4924,1,487.9505,488.4721,,,,,,466,FEM,NOWORD,AGR,150,asuba,,la,,0.4924,,488.4723,488.4724,0.346296381,-0.022222236,0,0,0,,0,148,148,465,1,aguja,,,,
,,,,,,61503885693f6ebde3f2fcbc,676192165fb32c2e1fb7aee6,67d1942325158f41a334c2f9,2025-03-12_15h06.09.008,Tarea de decisión léxica,2024.2.5,Win32,30.58103976,,,,,,,,,,,,,,,,,,,,,,,488.4749,489.6557,a,1,0.4997,1,489.6559,490.1458,,,,,,389,MAS,WORD,DIS,150,cerdo,,la,,0.4997,,490.1458,490.146,0.346296381,-0.022222236,0,0,0,,0,149,149,388,1,cenco,,,,
,,,,,,61503885693f6ebde3f2fcbc,676192165fb32c2e1fb7aee6,67d1942325158f41a334c2f9,2025-03-12_15h06.09.008,Tarea de decisión léxica,2024.2.5,Win32,30.58103976,,,,,,,,,,,,,,,,,,,,,,,490.1478,491.6138,a,1,0.7591,1,491.614,492.1057,,,,,,217,MAS,WORD,DIS,150,luto,,la,,0.7591,,492.1058,492.1059,0.346296381,-0.022222236,0,0,0,,0,150,150,216,1,budo,,,,
,,,,,,61503885693f6ebde3f2fcbc,676192165fb32c2e1fb7aee6,67d1942325158f41a334c2f9,2025-03-12_15h06.09.008,Tarea de decisión léxica,2024.2.5,Win32,30.58103976,,,,,,,,,,,,,,,,,,,,,,,492.1079,493.5067,l,1,0.7162,1,493.5068,494.005,,,,,,148,FEM,NOWORD,DIS,150,pama,,el,,0.7162,,494.0065,494.0074,0.346296381,-0.022222236,0,0,0,,0,151,151,147,1,hoja,,,,
,,,,,,61503885693f6ebde3f2fcbc,676192165fb32c2e1fb7aee6,67d1942325158f41a334c2f9,2025-03-12_15h06.09.008,Tarea de decisión léxica,2024.2.5,Win32,30.58103976,,,,,,,,,,,,,,,,,,,,,,,494.0088,495.1428,l,1,0.4422,1,495.1429,495.6392,,,,,,14,FEM,NOWORD,AGR,150,nola,,la,,0.4422,,495.6392,495.6394,0.346296381,-0.022222236,0,0,0,,0,152,152,13,1,hora,,,,
,,,,,,61503885693f6ebde3f2fcbc,676192165fb32c2e1fb7aee6,67d1942325158f41a334c2f9,2025-03-12_15h06.09.008,Tarea de decisión léxica,2024.2.5,Win32,30.58103976,,,,,,,,,,,,,,,,,,,,,,,495.6411,496.711,l,1,0.3834,1,496.7111,497.1865,,,,,,278,MAS,NOWORD,AGR,150,vuemo,,el,,0.3834,,497.1866,497.1867,0.346296381,-0.022222236,0,0,0,,0,153,153,277,1,fuego,,,,
,,,,,,61503885693f6ebde3f2fcbc,676192165fb32c2e1fb7aee6,67d1942325158f41a334c2f9,2025-03-12_15h06.09.008,Tarea de decisión léxica,2024.2.5,Win32,30.58103976,,,,,,,,,,,,,,,,,,,,,,,497.1885,498.7412,l,1,0.8591,1,498.7414,499.2475,,,,,,460,MAS,NOWORD,DIS,150,fraco,,la,,0.8591,,499.2476,499.2477,0.346296381,-0.022222236,0,0,0,,0,154,154,459,1,grado,,,,
,,,,,,61503885693f6ebde3f2fcbc,676192165fb32c2e1fb7aee6,67d1942325158f41a334c2f9,2025-03-12_15h06.09.008,Tarea de decisión léxica,2024.2.5,Win32,30.58103976,,,,,,,,,,,,,,,,,,,,,,,499.2494,500.7115,l,0,0.7587,0,500.7126,501.205,,,,,,379,MAS,WORD,DIS,150,turno,,la,,0.7587,,501.2076,501.209,0.346296381,-0.022222236,0,0,0,,0,155,155,378,1,tunso,,,,
,,,,,,61503885693f6ebde3f2fcbc,676192165fb32c2e1fb7aee6,67d1942325158f41a334c2f9,2025-03-12_15h06.09.008,Tarea de decisión léxica,2024.2.5,Win32,30.58103976,,,,,,,,,,,,,,,,,,,,,,,501.2102,502.5208,a,1,0.6355,1,502.5222,503.001,,,,,,93,FEM,WORD,DIS,150,bola,,el,,0.6355,,503.001,503.002,0.346296381,-0.022222236,0,0,0,,0,156,156,92,1,rona,,,,
,,,,,,61503885693f6ebde3f2fcbc,676192165fb32c2e1fb7aee6,67d1942325158f41a334c2f9,2025-03-12_15h06.09.008,Tarea de decisión léxica,2024.2.5,Win32,30.58103976,,,,,,,,,,,,,,,,,,,,,,,503.0039,504.2346,l,1,0.5125,1,504.2348,504.7119,,,,,,342,MAS,NOWORD,AGR,150,daror,,el,,0.5125,,504.712,504.7122,0.346296381,-0.022222236,0,0,0,,0,157,157,341,1,valor,,,,
,,,,,,61503885693f6ebde3f2fcbc,676192165fb32c2e1fb7aee6,67d1942325158f41a334c2f9,2025-03-12_15h06.09.008,Tarea de decisión léxica,2024.2.5,Win32,30.58103976,,,,,,,,,,,,,,,,,,,,,,,504.7145,506.1331,a,0,0.736,0,506.1345,506.6323,,,,,,412,MAS,NOWORD,DIS,150,mobro,,la,,0.736,,506.6323,506.6326,0.346296381,-0.022222236,0,0,0,,0,158,158,411,1,pollo,,,,
,,,,,,61503885693f6ebde3f2fcbc,676192165fb32c2e1fb7aee6,67d1942325158f41a334c2f9,2025-03-12_15h06.09.008,Tarea de decisión léxica,2024.2.5,Win32,30.58103976,,,,,,,,,,,,,,,,,,,,,,,506.6342,507.8959,l,0,0.5831,0,507.8959,508.3863,,,,,,443,MAS,WORD,DIS,150,salón,,la,,0.5831,,508.3864,508.388,0.346296381,-0.022222236,0,0,0,,0,159,159,442,1,taron,,,,
,,,,,,61503885693f6ebde3f2fcbc,676192165fb32c2e1fb7aee6,67d1942325158f41a334c2f9,2025-03-12_15h06.09.008,Tarea de decisión léxica,2024.2.5,Win32,30.58103976,,,,,,,,,,,,,,,,,,,,,,,508.3897,509.6729,a,1,0.6061,1,509.6744,510.1636,,,,,,169,MAS,WORD,AGR,150,cubo,,el,,0.6061,,510.1656,518.6901,0.346296381,-0.022222236,0,0,0,space,0,160,160,168,1,mibo,8.4916,,,
,,,,,,61503885693f6ebde3f2fcbc,676192165fb32c2e1fb7aee6,67d1942325158f41a334c2f9,2025-03-12_15h06.09.008,Tarea de decisión léxica,2024.2.5,Win32,30.58103976,,,,,,,,,,,,,,,,,,,,,,,518.6935,521.3229,,0,0.6061,-1,521.3243,521.8033,,,,,,144,MAS,NOWORD,DIS,150,pezo,,la,,,,521.8033,521.8034,0.346296381,-0.022222236,0,0,0,,0,161,161,143,1,pavo,,,,
,,,,,,61503885693f6ebde3f2fcbc,676192165fb32c2e1fb7aee6,67d1942325158f41a334c2f9,2025-03-12_15h06.09.008,Tarea de decisión léxica,2024.2.5,Win32,30.58103976,,,,,,,,,,,,,,,,,,,,,,,521.8053,523.0727,l,1,0.581,1,523.0737,523.5355,,,,,,272,FEM,NOWORD,DIS,150,refal,,el,,0.581,,523.5355,523.5356,0.346296381,-0.022222236,0,0,0,,0,162,162,271,1,señal,,,,
,,,,,,61503885693f6ebde3f2fcbc,676192165fb32c2e1fb7aee6,67d1942325158f41a334c2f9,2025-03-12_15h06.09.008,Tarea de decisión léxica,2024.2.5,Win32,30.58103976,,,,,,,,,,,,,,,,,,,,,,,523.5372,524.7808,a,1,0.5553,1,524.7809,525.2772,,,,,,411,MAS,WORD,AGR,150,pollo,,el,,0.5553,,525.2774,525.2774,0.346296381,-0.022222236,0,0,0,,0,163,163,410,1,mobro,,,,
,,,,,,61503885693f6ebde3f2fcbc,676192165fb32c2e1fb7aee6,67d1942325158f41a334c2f9,2025-03-12_15h06.09.008,Tarea de decisión léxica,2024.2.5,Win32,30.58103976,,,,,,,,,,,,,,,,,,,,,,,525.2795,526.6,l,1,0.6372,1,526.6001,527.0893,,,,,,60,FEM,NOWORD,DIS,150,tafa,,el,,0.6372,,527.0893,527.0895,0.346296381,-0.022222236,0,0,0,,0,164,164,59,1,sala,,,,
,,,,,,61503885693f6ebde3f2fcbc,676192165fb32c2e1fb7aee6,67d1942325158f41a334c2f9,2025-03-12_15h06.09.008,Tarea de decisión léxica,2024.2.5,Win32,30.58103976,,,,,,,,,,,,,,,,,,,,,,,527.0909,528.4149,a,1,0.644,1,528.415,528.9187,,,,,,9,MAS,WORD,AGR,150,tipo,,el,,0.644,,528.9203,528.9212,0.346296381,-0.022222236,0,0,0,,0,165,165,8,1,sibo,,,,
,,,,,,61503885693f6ebde3f2fcbc,676192165fb32c2e1fb7aee6,67d1942325158f41a334c2f9,2025-03-12_15h06.09.008,Tarea de decisión léxica,2024.2.5,Win32,30.58103976,,,,,,,,,,,,,,,,,,,,,,,528.9226,530.0459,l,1,0.4472,1,530.0461,530.5275,,,,,,130,MAS,NOWORD,AGR,150,pima,,el,,0.4472,,530.5276,530.5277,0.346296381,-0.022222236,0,0,0,,0,166,166,129,1,oído,,,,
,,,,,,61503885693f6ebde3f2fcbc,676192165fb32c2e1fb7aee6,67d1942325158f41a334c2f9,2025-03-12_15h06.09.008,Tarea de decisión léxica,2024.2.5,Win32,30.58103976,,,,,,,,,,,,,,,,,,,,,,,530.5293,531.7339,l,1,0.5298,1,531.734,532.1969,,,,,,2,FEM,NOWORD,AGR,150,mada,,la,,0.5298,,532.197,532.1971,0.346296381,-0.022222236,0,0,0,,0,167,167,1,1,casa,,,,
,,,,,,61503885693f6ebde3f2fcbc,676192165fb32c2e1fb7aee6,67d1942325158f41a334c2f9,2025-03-12_15h06.09.008,Tarea de decisión léxica,2024.2.5,Win32,30.58103976,,,,,,,,,,,,,,,,,,,,,,,532.199,533.3011,l,1,0.4124,1,533.3012,533.7828,,,,,,368,MAS,NOWORD,DIS,150,rerob,,la,,0.4124,,533.7829,533.783,0.346296381,-0.022222236,0,0,0,,0,168,168,367,1,reloj,,,,
,,,,,,61503885693f6ebde3f2fcbc,676192165fb32c2e1fb7aee6,67d1942325158f41a334c2f9,2025-03-12_15h06.09.008,Tarea de decisión léxica,2024.2.5,Win32,30.58103976,,,,,,,,,,,,,,,,,,,,,,,533.7867,535.0818,a,1,0.6139,1,535.0819,535.5716,,,,,,157,MAS,WORD,DIS,150,nido,,la,,0.6139,,535.5716,535.5718,0.346296381,-0.022222236,0,0,0,,0,169,169,156,1,hico,,,,
,,,,,,61503885693f6ebde3f2fcbc,676192165fb32c2e1fb7aee6,67d1942325158f41a334c2f9,2025-03-12_15h06.09.008,Tarea de decisión léxica,2024.2.5,Win32,30.58103976,,,,,,,,,,,,,,,,,,,,,,,535.5735,536.8905,l,1,0.6359,1,536.8906,537.3796,,,,,,72,FEM,NOWORD,DIS,150,urla,,el,,0.6359,,537.3814,537.3824,0.346296381,-0.022222236,0,0,0,,0,170,170,71,1,isla,,,,
,,,,,,61503885693f6ebde3f2fcbc,676192165fb32c2e1fb7aee6,67d1942325158f41a334c2f9,2025-03-12_15h06.09.008,Tarea de decisión léxica,2024.2.5,Win32,30.58103976,,,,,,,,,,,,,,,,,,,,,,,537.3839,538.6311,l,1,0.5606,1,538.6312,539.1214,,,,,,370,MAS,NOWORD,AGR,150,rioco,,el,,0.5606,,539.1216,539.1216,0.346296381,-0.022222236,0,0,0,,0,171,171,369,1,ruido,,,,
,,,,,,61503885693f6ebde3f2fcbc,676192165fb32c2e1fb7aee6,67d1942325158f41a334c2f9,2025-03-12_15h06.09.008,Tarea de decisión léxica,2024.2.5,Win32,30.58103976,,,,,,,,,,,,,,,,,,,,,,,539.1236,540.1869,a,1,0.3779,1,540.1869,540.6709,,,,,,271,FEM,WORD,DIS,150,señal,,el,,0.3779,,540.671,540.6712,0.346296381,-0.022222236,0,0,0,,0,172,172,270,1,refal,,,,
,,,,,,61503885693f6ebde3f2fcbc,676192165fb32c2e1fb7aee6,67d1942325158f41a334c2f9,2025-03-12_15h06.09.008,Tarea de decisión léxica,2024.2.5,Win32,30.58103976,,,,,,,,,,,,,,,,,,,,,,,540.6729,541.874,a,1,0.5088,1,541.8741,542.3663,,,,,,103,FEM,WORD,DIS,150,ruta,,el,,0.5088,,542.3663,542.3665,0.346296381,-0.022222236,0,0,0,,0,173,173,102,1,rova,,,,
,,,,,,61503885693f6ebde3f2fcbc,676192165fb32c2e1fb7aee6,67d1942325158f41a334c2f9,2025-03-12_15h06.09.008,Tarea de decisión léxica,2024.2.5,Win32,30.58103976,,,,,,,,,,,,,,,,,,,,,,,542.3682,543.5298,a,1,0.4926,1,543.53,544.0253,,,,,,215,FEM,WORD,AGR,150,raíz,,la,,0.4926,,544.0254,544.0255,0.346296381,-0.022222236,0,0,0,,0,174,174,214,1,raua,,,,
,,,,,,61503885693f6ebde3f2fcbc,676192165fb32c2e1fb7aee6,67d1942325158f41a334c2f9,2025-03-12_15h06.09.008,Tarea de decisión léxica,2024.2.5,Win32,30.58103976,,,,,,,,,,,,,,,,,,,,,,,544.0274,545.2535,l,1,0.5371,1,545.2536,545.7457,,,,,,320,MAS,NOWORD,DIS,150,tuero,,la,,0.5371,,545.7475,545.7486,0.346296381,-0.022222236,0,0,0,,0,175,175,319,1,suelo,,,,
,,,,,,61503885693f6ebde3f2fcbc,676192165fb32c2e1fb7aee6,67d1942325158f41a334c2f9,2025-03-12_15h06.09.008,Tarea de decisión léxica,2024.2.5,Win32,30.58103976,,,,,,,,,,,,,,,,,,,,,,,545.7498,547.3223,l,1,0.8709,1,547.3224,547.82,,,,,,472,FEM,NOWORD,DIS,150,prana,,el,,0.8709,,547.8201,547.8202,0.346296381,-0.022222236,0,0,0,,0,176,176,471,1,grasa,,,,
,,,,,,61503885693f6ebde3f2fcbc,676192165fb32c2e1fb7aee6,67d1942325158f41a334c2f9,2025-03-12_15h06.09.008,Tarea de decisión léxica,2024.2.5,Win32,30.58103976,,,,,,,,,,,,,,,,,,,,,,,547.822,549.0606,a,1,0.5289,1,549.0608,549.5613,,,,,,345,FEM,WORD,DIS,150,arena,,el,,0.5289,,549.5614,549.5615,0.346296381,-0.022222236,0,0,0,,0,177,177,344,1,anera,,,,
,,,,,,61503885693f6ebde3f2fcbc,676192165fb32c2e1fb7aee6,67d1942325158f41a334c2f9,2025-03-12_15h06.09.008,Tarea de decisión léxica,2024.2.5,Win32,30.58103976,,,,,,,,,,,,,,,,,,,,,,,549.5632,550.8916,l,1,0.6508,1,550.8917,551.3869,,,,,,330,MAS,NOWORD,AGR,150,nueno,,el,,0.6508,,551.387,551.3872,0.346296381,-0.022222236,0,0,0,,0,178,178,329,1,hueso,,,,
,,,,,,61503885693f6ebde3f2fcbc,676192165fb32c2e1fb7aee6,67d1942325158f41a334c2f9,2025-03-12_15h06.09.008,Tarea de decisión léxica,2024.2.5,Win32,30.58103976,,,,,,,,,,,,,,,,,,,,,,,551.3888,552.6934,a,1,0.6165,1,552.6935,553.2012,,,,,,83,FEM,WORD,DIS,150,bala,,el,,0.6165,,553.2032,553.2043,0.346296381,-0.022222236,0,0,0,,0,179,179,82,1,taga,,,,
,,,,,,61503885693f6ebde3f2fcbc,676192165fb32c2e1fb7aee6,67d1942325158f41a334c2f9,2025-03-12_15h06.09.008,Tarea de decisión léxica,2024.2.5,Win32,30.58103976,,,,,,,,,,,,,,,,,,,,,,,553.2055,554.3472,a,1,0.4586,1,554.3473,554.8456,,,,,,373,FEM,WORD,AGR,150,pizza,,la,,0.4586,,554.8457,554.8458,0.346296381,-0.022222236,0,0,0,,0,180,180,372,1,pogza,,,,
,,,,,,61503885693f6ebde3f2fcbc,676192165fb32c2e1fb7aee6,67d1942325158f41a334c2f9,2025-03-12_15h06.09.008,Tarea de decisión léxica,2024.2.5,Win32,30.58103976,,,,,,,,,,,,,,,,,,,,,,,554.8477,556.2427,l,1,0.7106,1,556.2427,556.7372,,,,,,132,FEM,NOWORD,DIS,150,fada,,el,,0.7106,,556.7372,556.7374,0.346296381,-0.022222236,0,0,0,,0,181,181,131,1,mina,,,,
,,,,,,61503885693f6ebde3f2fcbc,676192165fb32c2e1fb7aee6,67d1942325158f41a334c2f9,2025-03-12_15h06.09.008,Tarea de decisión léxica,2024.2.5,Win32,30.58103976,,,,,,,,,,,,,,,,,,,,,,,556.7399,557.9008,l,1,0.4789,1,557.9009,558.398,,,,,,318,FEM,NOWORD,AGR,150,plaad,,la,,0.4789,,558.3981,558.3982,0.346296381,-0.022222236,0,0,0,,0,182,182,317,1,playa,,,,
,,,,,,61503885693f6ebde3f2fcbc,676192165fb32c2e1fb7aee6,67d1942325158f41a334c2f9,2025-03-12_15h06.09.008,Tarea de decisión léxica,2024.2.5,Win32,30.58103976,,,,,,,,,,,,,,,,,,,,,,,558.4014,559.5986,a,1,0.5189,1,559.5987,560.0803,,,,,,125,MAS,WORD,AGR,150,lujo,,el,,0.5189,,560.0803,560.0805,0.346296381,-0.022222236,0,0,0,,0,183,183,124,1,vudo,,,,
,,,,,,61503885693f6ebde3f2fcbc,676192165fb32c2e1fb7aee6,67d1942325158f41a334c2f9,2025-03-12_15h06.09.008,Tarea de decisión léxica,2024.2.5,Win32,30.58103976,,,,,,,,,,,,,,,,,,,,,,,560.0821,561.302,l,1,0.5449,1,561.3021,561.7905,,,,,,22,MAS,NOWORD,AGR,150,blan,,el,,0.5449,,561.7933,561.7944,0.346296381,-0.022222236,0,0,0,,0,184,184,21,1,plan,,,,
,,,,,,61503885693f6ebde3f2fcbc,676192165fb32c2e1fb7aee6,67d1942325158f41a334c2f9,2025-03-12_15h06.09.008,Tarea de decisión léxica,2024.2.5,Win32,30.58103976,,,,,,,,,,,,,,,,,,,,,,,561.7956,562.9237,a,0,0.4336,0,562.9251,563.4126,,,,,,216,FEM,NOWORD,DIS,150,raua,,el,,0.4336,,563.4127,563.4128,0.346296381,-0.022222236,0,0,0,,0,185,185,215,1,raíz,,,,
,,,,,,61503885693f6ebde3f2fcbc,676192165fb32c2e1fb7aee6,67d1942325158f41a334c2f9,2025-03-12_15h06.09.008,Tarea de decisión léxica,2024.2.5,Win32,30.58103976,,,,,,,,,,,,,,,,,,,,,,,563.4147,564.5859,a,1,0.4783,1,564.5872,565.09,,,,,,405,FEM,WORD,DIS,150,barra,,el,,0.4783,,565.0901,565.0903,0.346296381,-0.022222236,0,0,0,,0,186,186,404,1,rarra,,,,
,,,,,,61503885693f6ebde3f2fcbc,676192165fb32c2e1fb7aee6,67d1942325158f41a334c2f9,2025-03-12_15h06.09.008,Tarea de decisión léxica,2024.2.5,Win32,30.58103976,,,,,,,,,,,,,,,,,,,,,,,565.0919,566.2574,l,1,0.476,1,566.2575,566.7346,,,,,,220,FEM,NOWORD,DIS,150,miva,,el,,0.476,,566.7347,566.7349,0.346296381,-0.022222236,0,0,0,,0,187,187,219,1,pipa,,,,
,,,,,,61503885693f6ebde3f2fcbc,676192165fb32c2e1fb7aee6,67d1942325158f41a334c2f9,2025-03-12_15h06.09.008,Tarea de decisión léxica,2024.2.5,Win32,30.58103976,,,,,,,,,,,,,,,,,,,,,,,566.7367,568.1753,l,1,0.7513,1,568.1755,568.6751,,,,,,244,MAS,NOWORD,DIS,150,asamo,,la,,0.7513,,568.6751,568.6753,0.346296381,-0.022222236,0,0,0,,0,188,188,243,1,amigo,,,,
,,,,,,61503885693f6ebde3f2fcbc,676192165fb32c2e1fb7aee6,67d1942325158f41a334c2f9,2025-03-12_15h06.09.008,Tarea de decisión léxica,2024.2.5,Win32,30.58103976,,,,,,,,,,,,,,,,,,,,,,,568.6772,570.1484,a,1,0.7928,1,570.1485,570.6357,,,,,,175,FEM,WORD,DIS,150,goma,,el,,0.7928,,570.6374,570.6385,0.346296381,-0.022222236,0,0,0,,0,189,189,174,1,hosa,,,,
,,,,,,61503885693f6ebde3f2fcbc,676192165fb32c2e1fb7aee6,67d1942325158f41a334c2f9,2025-03-12_15h06.09.008,Tarea de decisión léxica,2024.2.5,Win32,30.58103976,,,,,,,,,,,,,,,,,,,,,,,570.6397,571.754,l,1,0.4469,1,571.7541,572.2351,,,,,,454,FEM,NOWORD,AGR,150,pafia,,la,,0.4469,,572.2352,572.2353,0.346296381,-0.022222236,0,0,0,,0,190,190,453,1,mafia,,,,
,,,,,,61503885693f6ebde3f2fcbc,676192165fb32c2e1fb7aee6,67d1942325158f41a334c2f9,2025-03-12_15h06.09.008,Tarea de decisión léxica,2024.2.5,Win32,30.58103976,,,,,,,,,,,,,,,,,,,,,,,572.2372,573.3706,a,1,0.4512,1,573.3708,573.8713,,,,,,291,FEM,WORD,AGR,150,pista,,la,,0.4512,,573.8715,573.8716,0.346296381,-0.022222236,0,0,0,,0,191,191,290,1,mesta,,,,
,,,,,,61503885693f6ebde3f2fcbc,676192165fb32c2e1fb7aee6,67d1942325158f41a334c2f9,2025-03-12_15h06.09.008,Tarea de decisión léxica,2024.2.5,Win32,30.58103976,,,,,,,,,,,,,,,,,,,,,,,573.8736,574.9519,a,1,0.3954,1,574.9521,575.4584,,,,,,139,MAS,WORD,DIS,150,mago,,la,,0.3954,,575.4584,575.4586,0.346296381,-0.022222236,0,0,0,,0,192,192,138,1,nila,,,,
,,,,,,61503885693f6ebde3f2fcbc,676192165fb32c2e1fb7aee6,67d1942325158f41a334c2f9,2025-03-12_15h06.09.008,Tarea de decisión léxica,2024.2.5,Win32,30.58103976,,,,,,,,,,,,,,,,,,,,,,,575.4604,576.5742,a,1,0.4324,1,576.5743,577.0588,,,,,,459,MAS,WORD,AGR,150,grado,,el,,0.4324,,577.0588,577.0589,0.346296381,-0.022222236,0,0,0,,0,193,193,458,1,fraco,,,,
,,,,,,61503885693f6ebde3f2fcbc,676192165fb32c2e1fb7aee6,67d1942325158f41a334c2f9,2025-03-12_15h06.09.008,Tarea de decisión léxica,2024.2.5,Win32,30.58103976,,,,,,,,,,,,,,,,,,,,,,,577.0604,578.0365,a,1,0.2992,1,578.0367,578.5335,,,,,,283,MAS,WORD,DIS,150,sueño,,la,,0.2992,,578.5355,578.5368,0.346296381,-0.022222236,0,0,0,,0,194,194,282,1,tuevo,,,,
,,,,,,61503885693f6ebde3f2fcbc,676192165fb32c2e1fb7aee6,67d1942325158f41a334c2f9,2025-03-12_15h06.09.008,Tarea de decisión léxica,2024.2.5,Win32,30.58103976,,,,,,,,,,,,,,,,,,,,,,,578.5385,579.9431,a,0,0.7327,0,579.9441,580.4574,,,,,,400,MAS,NOWORD,DIS,150,serro,,la,,0.7327,,580.4575,580.4576,0.346296381,-0.022222236,0,0,0,,0,195,195,399,1,techo,,,,
,,,,,,61503885693f6ebde3f2fcbc,676192165fb32c2e1fb7aee6,67d1942325158f41a334c2f9,2025-03-12_15h06.09.008,Tarea de decisión léxica,2024.2.5,Win32,30.58103976,,,,,,,,,,,,,,,,,,,,,,,580.4592,581.5851,a,1,0.4408,1,581.5864,582.0794,,,,,,181,FEM,WORD,AGR,150,seda,,la,,0.4408,,582.0794,582.0795,0.346296381,-0.022222236,0,0,0,,0,196,196,180,1,teda,,,,
,,,,,,61503885693f6ebde3f2fcbc,676192165fb32c2e1fb7aee6,67d1942325158f41a334c2f9,2025-03-12_15h06.09.008,Tarea de decisión léxica,2024.2.5,Win32,30.58103976,,,,,,,,,,,,,,,,,,,,,,,582.0809,583.3561,l,1,0.6094,1,583.3563,583.8499,,,,,,226,MAS,NOWORD,AGR,150,boco,,el,,0.6094,,583.8499,583.8501,0.346296381,-0.022222236,0,0,0,,0,197,197,225,1,lodo,,,,
,,,,,,61503885693f6ebde3f2fcbc,676192165fb32c2e1fb7aee6,67d1942325158f41a334c2f9,2025-03-12_15h06.09.008,Tarea de decisión léxica,2024.2.5,Win32,30.58103976,,,,,,,,,,,,,,,,,,,,,,,583.8517,585.0335,a,1,0.5091,1,585.0336,585.5272,,,,,,467,MAS,WORD,DIS,150,piano,,la,,0.5091,,585.5273,585.5273,0.346296381,-0.022222236,0,0,0,,0,198,198,466,1,peiso,,,,
,,,,,,61503885693f6ebde3f2fcbc,676192165fb32c2e1fb7aee6,67d1942325158f41a334c2f9,2025-03-12_15h06.09.008,Tarea de decisión léxica,2024.2.5,Win32,30.58103976,,,,,,,,,,,,,,,,,,,,,,,585.5291,586.7788,a,1,0.5671,1,586.7789,587.2908,,,,,,29,MAS,WORD,DIS,150,modo,,la,,0.5671,,587.2927,587.2938,0.346296381,-0.022222236,0,0,0,,0,199,199,28,1,pono,,,,
,,,,,,61503885693f6ebde3f2fcbc,676192165fb32c2e1fb7aee6,67d1942325158f41a334c2f9,2025-03-12_15h06.09.008,Tarea de decisión léxica,2024.2.5,Win32,30.58103976,,,,,,,,,,,,,,,,,,,,,,,587.295,588.3611,a,1,0.3749,1,588.3612,588.869,,,,,,213,FEM,WORD,DIS,150,rama,,el,,0.3749,,588.8691,588.8692,0.346296381,-0.022222236,0,0,0,,0,200,200,212,1,bana,,,,
,,,,,,61503885693f6ebde3f2fcbc,676192165fb32c2e1fb7aee6,67d1942325158f41a334c2f9,2025-03-12_15h06.09.008,Tarea de decisión léxica,2024.2.5,Win32,30.58103976,,,,,,,,,,,,,,,,,,,,,,,588.8713,589.9632,a,1,0.4007,1,589.9632,590.4639,,,,,,121,MAS,WORD,DIS,150,hoyo,,la,,0.4007,,590.4642,590.4642,0.346296381,-0.022222236,0,0,0,,0,201,201,120,1,bomo,,,,
,,,,,,61503885693f6ebde3f2fcbc,676192165fb32c2e1fb7aee6,67d1942325158f41a334c2f9,2025-03-12_15h06.09.008,Tarea de decisión léxica,2024.2.5,Win32,30.58103976,,,,,,,,,,,,,,,,,,,,,,,590.4659,591.549,a,0,0.3859,0,591.5504,592.0284,,,,,,104,FEM,NOWORD,DIS,150,rova,,el,,0.3859,0.0003,592.0285,592.0287,0.346296381,-0.022222236,0,0,0,,0,202,202,103,1,ruta,,,,
,,,,,,61503885693f6ebde3f2fcbc,676192165fb32c2e1fb7aee6,67d1942325158f41a334c2f9,2025-03-12_15h06.09.008,Tarea de decisión léxica,2024.2.5,Win32,30.58103976,,,,,,,,,,,,,,,,,,,,,,,592.0306,593.117,a,1,0.396,1,593.1182,593.5921,,,,,,109,MAS,WORD,DIS,150,rayo,,la,,0.396,,593.5943,593.5954,0.346296381,-0.022222236,0,0,0,,0,203,203,108,1,suno,,,,
,,,,,,61503885693f6ebde3f2fcbc,676192165fb32c2e1fb7aee6,67d1942325158f41a334c2f9,2025-03-12_15h06.09.008,Tarea de decisión léxica,2024.2.5,Win32,30.58103976,,,,,,,,,,,,,,,,,,,,,,,593.5967,594.5637,l,0,0.2913,0,594.5646,595.0411,,,,,,223,FEM,WORD,DIS,150,cera,,el,,0.2913,,595.0412,595.0413,0.346296381,-0.022222236,0,0,0,,0,204,204,222,1,cira,,,,
,,,,,,61503885693f6ebde3f2fcbc,676192165fb32c2e1fb7aee6,67d1942325158f41a334c2f9,2025-03-12_15h06.09.008,Tarea de decisión léxica,2024.2.5,Win32,30.58103976,,,,,,,,,,,,,,,,,,,,,,,595.0431,596.1487,l,1,0.4338,1,596.1497,596.6484,,,,,,198,MAS,NOWORD,AGR,150,dade,,el,,0.4338,,596.6484,596.6486,0.346296381,-0.022222236,0,0,0,,0,205,205,197,1,bate,,,,
,,,,,,61503885693f6ebde3f2fcbc,676192165fb32c2e1fb7aee6,67d1942325158f41a334c2f9,2025-03-12_15h06.09.008,Tarea de decisión léxica,2024.2.5,Win32,30.58103976,,,,,,,,,,,,,,,,,,,,,,,596.6503,597.8103,l,1,0.4634,1,597.8105,598.3597,,,,,,434,MAS,NOWORD,AGR,150,durco,,el,,0.4634,,598.3601,598.3603,0.346296381,-0.022222236,0,0,0,,0,206,206,433,1,disco,,,,
,,,,,,61503885693f6ebde3f2fcbc,676192165fb32c2e1fb7aee6,67d1942325158f41a334c2f9,2025-03-12_15h06.09.008,Tarea de decisión léxica,2024.2.5,Win32,30.58103976,,,,,,,,,,,,,,,,,,,,,,,598.3623,599.7655,a,1,0.7246,1,599.7657,600.241,,,,,,119,MAS,WORD,AGR,150,pozo,,el,,0.7246,,600.2411,600.2412,0.346296381,-0.022222236,0,0,0,,0,207,207,118,1,hooy,,,,
,,,,,,61503885693f6ebde3f2fcbc,676192165fb32c2e1fb7aee6,67d1942325158f41a334c2f9,2025-03-12_15h06.09.008,Tarea de decisión léxica,2024.2.5,Win32,30.58103976,,,,,,,,,,,,,,,,,,,,,,,600.2435,601.4057,a,1,0.4735,1,601.4058,601.9041,,,,,,185,MAS,WORD,AGR,150,baúl,,el,,0.4735,,601.9057,601.9068,0.346296381,-0.022222236,0,0,0,,0,208,208,184,1,raol,,,,
,,,,,,61503885693f6ebde3f2fcbc,676192165fb32c2e1fb7aee6,67d1942325158f41a334c2f9,2025-03-12_15h06.09.008,Tarea de decisión léxica,2024.2.5,Win32,30.58103976,,,,,,,,,,,,,,,,,,,,,,,601.9082,603.1168,l,1,0.5324,1,603.1169,603.605,,,,,,258,FEM,NOWORD,AGR,150,asama,,la,,0.5324,,603.6051,603.6053,0.346296381,-0.022222236,0,0,0,,0,209,209,257,1,amiga,,,,
,,,,,,61503885693f6ebde3f2fcbc,676192165fb32c2e1fb7aee6,67d1942325158f41a334c2f9,2025-03-12_15h06.09.008,Tarea de decisión léxica,2024.2.5,Win32,30.58103976,,,,,,,,,,,,,,,,,,,,,,,603.6075,604.7641,a,1,0.4683,1,604.7642,605.2641,,,,,,289,FEM,WORD,DIS,150,bomba,,el,,0.4683,,605.2641,605.2643,0.346296381,-0.022222236,0,0,0,,0,210,210,288,1,bumpa,,,,
,,,,,,61503885693f6ebde3f2fcbc,676192165fb32c2e1fb7aee6,67d1942325158f41a334c2f9,2025-03-12_15h06.09.008,Tarea de decisión léxica,2024.2.5,Win32,30.58103976,,,,,,,,,,,,,,,,,,,,,,,605.2665,606.4883,l,1,0.541,1,606.4885,606.9818,,,,,,446,MAS,NOWORD,AGR,150,ascor,,el,,0.541,,606.9819,606.982,0.346296381,-0.022222236,0,0,0,,0,211,211,445,1,actor,,,,
,,,,,,61503885693f6ebde3f2fcbc,676192165fb32c2e1fb7aee6,67d1942325158f41a334c2f9,2025-03-12_15h06.09.008,Tarea de decisión léxica,2024.2.5,Win32,30.58103976,,,,,,,,,,,,,,,,,,,,,,,606.9837,608.1843,a,1,0.5263,1,608.1844,608.6689,,,,,,37,MAS,WORD,DIS,150,rato,,la,,0.5263,,608.6691,608.6692,0.346296381,-0.022222236,0,0,0,,0,212,212,36,1,gaco,,,,
,,,,,,61503885693f6ebde3f2fcbc,676192165fb32c2e1fb7aee6,67d1942325158f41a334c2f9,2025-03-12_15h06.09.008,Tarea de decisión léxica,2024.2.5,Win32,30.58103976,,,,,,,,,,,,,,,,,,,,,,,608.671,609.938,l,1,0.5903,1,609.9381,610.459,,,,,,324,FEM,NOWORD,DIS,150,certa,,el,,0.5903,,610.4611,610.4623,0.346296381,-0.022222236,0,0,0,,0,213,213,323,1,cinta,,,,
,,,,,,61503885693f6ebde3f2fcbc,676192165fb32c2e1fb7aee6,67d1942325158f41a334c2f9,2025-03-12_15h06.09.008,Tarea de decisión léxica,2024.2.5,Win32,30.58103976,,,,,,,,,,,,,,,,,,,,,,,610.4637,611.6434,a,1,0.4983,1,611.6435,612.1559,,,,,,321,MAS,WORD,AGR,150,banco,,el,,0.4983,,612.156,612.1562,0.346296381,-0.022222236,0,0,0,,0,214,214,320,1,rarco,,,,
,,,,,,61503885693f6ebde3f2fcbc,676192165fb32c2e1fb7aee6,67d1942325158f41a334c2f9,2025-03-12_15h06.09.008,Tarea de decisión léxica,2024.2.5,Win32,30.58103976,,,,,,,,,,,,,,,,,,,,,,,612.1579,613.3705,l,1,0.5226,1,613.3707,613.8543,,,,,,316,FEM,NOWORD,DIS,150,riosa,,el,,0.5226,,613.8543,613.8545,0.346296381,-0.022222236,0,0,0,,0,215,215,315,1,reina,,,,
,,,,,,61503885693f6ebde3f2fcbc,676192165fb32c2e1fb7aee6,67d1942325158f41a334c2f9,2025-03-12_15h06.09.008,Tarea de decisión léxica,2024.2.5,Win32,30.58103976,,,,,,,,,,,,,,,,,,,,,,,613.8563,615.013,a,1,0.4465,1,615.0132,615.5029,,,,,,381,MAS,WORD,AGR,150,humor,,el,,0.4465,,615.503,615.5031,0.346296381,-0.022222236,0,0,0,,0,216,216,380,1,nusor,,,,
,,,,,,61503885693f6ebde3f2fcbc,676192165fb32c2e1fb7aee6,67d1942325158f41a334c2f9,2025-03-12_15h06.09.008,Tarea de decisión léxica,2024.2.5,Win32,30.58103976,,,,,,,,,,,,,,,,,,,,,,,615.5049,616.7472,l,1,0.5669,1,616.7473,617.2242,,,,,,476,FEM,NOWORD,DIS,150,mucta,,el,,0.5669,,617.2243,617.2244,0.346296381,-0.022222236,0,0,0,,0,217,217,475,1,manta,,,,
,,,,,,61503885693f6ebde3f2fcbc,676192165fb32c2e1fb7aee6,67d1942325158f41a334c2f9,2025-03-12_15h06.09.008,Tarea de decisión léxica,2024.2.5,Win32,30.58103976,,,,,,,,,,,,,,,,,,,,,,,617.226,618.5689,l,1,0.6388,1,618.569,619.0627,,,,,,374,FEM,NOWORD,AGR,150,pogza,,la,,0.6388,,619.0648,619.066,0.346296381,-0.022222236,0,0,0,,0,218,218,373,1,pizza,,,,
,,,,,,61503885693f6ebde3f2fcbc,676192165fb32c2e1fb7aee6,67d1942325158f41a334c2f9,2025-03-12_15h06.09.008,Tarea de decisión léxica,2024.2.5,Win32,30.58103976,,,,,,,,,,,,,,,,,,,,,,,619.067,620.3496,l,1,0.5941,1,620.3497,620.8397,,,,,,334,FEM,NOWORD,AGR,150,dalea,,la,,0.5941,,620.8398,620.8399,0.346296381,-0.022222236,0,0,0,,0,219,219,333,1,tarea,,,,
,,,,,,61503885693f6ebde3f2fcbc,676192165fb32c2e1fb7aee6,67d1942325158f41a334c2f9,2025-03-12_15h06.09.008,Tarea de decisión léxica,2024.2.5,Win32,30.58103976,,,,,,,,,,,,,,,,,,,,,,,620.8417,622.0131,a,1,0.4977,1,622.0135,622.5043,,,,,,367,MAS,WORD,AGR,150,reloj,,el,,0.4977,,622.5043,622.5045,0.346296381,-0.022222236,0,0,0,,0,220,220,366,1,rerob,,,,
,,,,,,61503885693f6ebde3f2fcbc,676192165fb32c2e1fb7aee6,67d1942325158f41a334c2f9,2025-03-12_15h06.09.008,Tarea de decisión léxica,2024.2.5,Win32,30.58103976,,,,,,,,,,,,,,,,,,,,,,,622.5063,623.5644,l,0,0.3872,0,623.5656,624.0569,,,,,,11,MAS,WORD,DIS,150,lado,,la,,0.3872,,624.0569,624.0571,0.346296381,-0.022222236,0,0,0,,0,221,221,10,1,bapo,,,,
,,,,,,61503885693f6ebde3f2fcbc,676192165fb32c2e1fb7aee6,67d1942325158f41a334c2f9,2025-03-12_15h06.09.008,Tarea de decisión léxica,2024.2.5,Win32,30.58103976,,,,,,,,,,,,,,,,,,,,,,,624.0589,625.2643,l,1,0.5361,1,625.2654,625.7698,,,,,,112,MAS,NOWORD,DIS,150,siro,,la,,0.5361,,625.7699,625.7699,0.346296381,-0.022222236,0,0,0,,0,222,222,111,1,muro,,,,
,,,,,,61503885693f6ebde3f2fcbc,676192165fb32c2e1fb7aee6,67d1942325158f41a334c2f9,2025-03-12_15h06.09.008,Tarea de decisión léxica,2024.2.5,Win32,30.58103976,,,,,,,,,,,,,,,,,,,,,,,625.7715,626.9863,l,1,0.5287,1,626.9864,627.4832,,,,,,314,MAS,NOWORD,AGR,150,govio,,el,,0.5287,,627.4851,627.4862,0.346296381,-0.022222236,0,0,0,,0,223,223,313,1,novio,,,,
,,,,,,61503885693f6ebde3f2fcbc,676192165fb32c2e1fb7aee6,67d1942325158f41a334c2f9,2025-03-12_15h06.09.008,Tarea de decisión léxica,2024.2.5,Win32,30.58103976,,,,,,,,,,,,,,,,,,,,,,,627.4874,628.5885,a,1,0.4226,1,628.5885,629.0715,,,,,,15,FEM,WORD,DIS,150,idea,,el,,0.4226,,629.0716,629.0717,0.346296381,-0.022222236,0,0,0,,0,224,224,14,1,odea,,,,
,,,,,,61503885693f6ebde3f2fcbc,676192165fb32c2e1fb7aee6,67d1942325158f41a334c2f9,2025-03-12_15h06.09.008,Tarea de decisión léxica,2024.2.5,Win32,30.58103976,,,,,,,,,,,,,,,,,,,,,,,629.0736,630.3338,l,1,0.5722,1,630.3339,630.8253,,,,,,158,MAS,NOWORD,AGR,150,hico,,el,,0.5722,,630.8254,630.8256,0.346296381,-0.022222236,0,0,0,,0,225,225,157,1,nido,,,,
,,,,,,61503885693f6ebde3f2fcbc,676192165fb32c2e1fb7aee6,67d1942325158f41a334c2f9,2025-03-12_15h06.09.008,Tarea de decisión léxica,2024.2.5,Win32,30.58103976,,,,,,,,,,,,,,,,,,,,,,,630.8275,631.9954,l,1,0.4918,1,631.9956,632.4901,,,,,,270,MAS,NOWORD,AGR,150,mello,,el,,0.4918,,632.4901,632.4902,0.346296381,-0.022222236,0,0,0,,0,226,226,269,1,perro,,,,
,,,,,,61503885693f6ebde3f2fcbc,676192165fb32c2e1fb7aee6,67d1942325158f41a334c2f9,2025-03-12_15h06.09.008,Tarea de decisión léxica,2024.2.5,Win32,30.58103976,,,,,,,,,,,,,,,,,,,,,,,632.4919,633.8575,a,1,0.6824,1,633.8577,634.3503,,,,,,151,MAS,WORD,DIS,150,tomo,,la,,0.6824,,634.3521,634.3532,0.346296381,-0.022222236,0,0,0,,0,227,227,150,1,sogo,,,,
,,,,,,61503885693f6ebde3f2fcbc,676192165fb32c2e1fb7aee6,67d1942325158f41a334c2f9,2025-03-12_15h06.09.008,Tarea de decisión léxica,2024.2.5,Win32,30.58103976,,,,,,,,,,,,,,,,,,,,,,,634.3545,635.5093,l,1,0.4771,1,635.5094,636.0232,,,,,,140,MAS,NOWORD,DIS,150,nila,,la,,0.4771,,636.0232,636.0234,0.346296381,-0.022222236,0,0,0,,0,228,228,139,1,mago,,,,
,,,,,,61503885693f6ebde3f2fcbc,676192165fb32c2e1fb7aee6,67d1942325158f41a334c2f9,2025-03-12_15h06.09.008,Tarea de decisión léxica,2024.2.5,Win32,30.58103976,,,,,,,,,,,,,,,,,,,,,,,636.0249,637.5877,a,0,0.8775,0,637.5889,638.0639,,,,,,310,FEM,NOWORD,AGR,150,tirra,,la,,0.8775,,638.064,638.0642,0.346296381,-0.022222236,0,0,0,,0,229,229,309,1,silla,,,,
,,,,,,61503885693f6ebde3f2fcbc,676192165fb32c2e1fb7aee6,67d1942325158f41a334c2f9,2025-03-12_15h06.09.008,Tarea de decisión léxica,2024.2.5,Win32,30.58103976,,,,,,,,,,,,,,,,,,,,,,,638.0668,639.4719,l,1,0.6869,1,639.4731,639.9724,,,,,,328,MAS,NOWORD,DIS,150,lendo,,la,,0.6869,,639.9725,639.9727,0.346296381,-0.022222236,0,0,0,,0,230,230,327,1,fondo,,,,
,,,,,,61503885693f6ebde3f2fcbc,676192165fb32c2e1fb7aee6,67d1942325158f41a334c2f9,2025-03-12_15h06.09.008,Tarea de decisión léxica,2024.2.5,Win32,30.58103976,,,,,,,,,,,,,,,,,,,,,,,639.9744,641.137,a,1,0.4776,1,641.1372,641.6264,,,,,,171,MAS,WORD,DIS,150,hilo,,la,,0.4776,,641.6265,641.6266,0.346296381,-0.022222236,0,0,0,,0,231,231,170,1,niro,,,,
,,,,,,61503885693f6ebde3f2fcbc,676192165fb32c2e1fb7aee6,67d1942325158f41a334c2f9,2025-03-12_15h06.09.008,Tarea de decisión léxica,2024.2.5,Win32,30.58103976,,,,,,,,,,,,,,,,,,,,,,,641.6286,642.7226,a,1,0.3958,1,642.7227,643.2177,,,,,,421,MAS,WORD,AGR,150,primo,,el,,0.3958,,643.22,643.2211,0.346296381,-0.022222236,0,0,0,,0,232,232,420,1,griso,,,,
,,,,,,61503885693f6ebde3f2fcbc,676192165fb32c2e1fb7aee6,67d1942325158f41a334c2f9,2025-03-12_15h06.09.008,Tarea de decisión léxica,2024.2.5,Win32,30.58103976,,,,,,,,,,,,,,,,,,,,,,,643.2229,644.3219,l,1,0.3972,1,644.322,644.7991,,,,,,378,MAS,NOWORD,AGR,150,gaulo,,el,,0.3972,,644.7992,644.7994,0.346296381,-0.022222236,0,0,0,,0,233,233,377,1,hielo,,,,
,,,,,,61503885693f6ebde3f2fcbc,676192165fb32c2e1fb7aee6,67d1942325158f41a334c2f9,2025-03-12_15h06.09.008,Tarea de decisión léxica,2024.2.5,Win32,30.58103976,,,,,,,,,,,,,,,,,,,,,,,644.8009,645.989,l,1,0.494,1,645.9892,646.494,,,,,,312,MAS,NOWORD,DIS,150,nosor,,la,,0.494,,646.494,646.4941,0.346296381,-0.022222236,0,0,0,,0,234,234,311,1,honor,,,,
,,,,,,61503885693f6ebde3f2fcbc,676192165fb32c2e1fb7aee6,67d1942325158f41a334c2f9,2025-03-12_15h06.09.008,Tarea de decisión léxica,2024.2.5,Win32,30.58103976,,,,,,,,,,,,,,,,,,,,,,,646.4962,647.729,l,1,0.5542,1,647.7292,648.263,,,,,,62,FEM,NOWORD,AGR,150,efla,,la,,0.5542,,648.2631,648.2633,0.346296381,-0.022222236,0,0,0,,0,235,235,61,1,obra,,,,
,,,,,,61503885693f6ebde3f2fcbc,676192165fb32c2e1fb7aee6,67d1942325158f41a334c2f9,2025-03-12_15h06.09.008,Tarea de decisión léxica,2024.2.5,Win32,30.58103976,,,,,,,,,,,,,,,,,,,,,,,648.2654,649.3674,a,1,0.4,1,649.3675,649.8565,,,,,,295,MAS,WORD,AGR,150,dolor,,el,,0.4,,649.8566,649.8568,0.346296381,-0.022222236,0,0,0,,0,236,236,294,1,goler,,,,
,,,,,,61503885693f6ebde3f2fcbc,676192165fb32c2e1fb7aee6,67d1942325158f41a334c2f9,2025-03-12_15h06.09.008,Tarea de decisión léxica,2024.2.5,Win32,30.58103976,,,,,,,,,,,,,,,,,,,,,,,649.8586,651.0091,l,1,0.469,1,651.0093,651.4856,,,,,,178,MAS,NOWORD,AGR,150,bito,,el,,0.469,,651.4875,651.4887,0.346296381,-0.022222236,0,0,0,,0,237,237,177,1,reto,,,,
,,,,,,61503885693f6ebde3f2fcbc,676192165fb32c2e1fb7aee6,67d1942325158f41a334c2f9,2025-03-12_15h06.09.008,Tarea de decisión léxica,2024.2.5,Win32,30.58103976,,,,,,,,,,,,,,,,,,,,,,,651.4899,652.7243,a,1,0.567,1,652.7244,653.231,,,,,,363,FEM,WORD,DIS,150,deuda,,el,,0.567,,653.2311,653.2313,0.346296381,-0.022222236,0,0,0,,0,238,238,362,1,veida,,,,
,,,,,,61503885693f6ebde3f2fcbc,676192165fb32c2e1fb7aee6,67d1942325158f41a334c2f9,2025-03-12_15h06.09.008,Tarea de decisión léxica,2024.2.5,Win32,30.58103976,,,,,,,,,,,,,,,,,,,,,,,653.2329,654.546,a,1,0.6454,1,654.5461,655.0324,,,,,,361,FEM,WORD,AGR,150,torre,,la,,0.6454,,655.0326,655.0327,0.346296381,-0.022222236,0,0,0,,0,239,239,360,1,solle,,,,
,,,,,,61503885693f6ebde3f2fcbc,676192165fb32c2e1fb7aee6,67d1942325158f41a334c2f9,2025-03-12_15h06.09.008,Tarea de decisión léxica,2024.2.5,Win32,30.58103976,,,,,,,,,,,,,,,,,,,,,,,655.0347,656.1266,a,1,0.4035,1,656.1267,656.6164,,,,,,277,MAS,WORD,DIS,150,fuego,,la,,0.4035,,656.6165,656.6166,0.346296381,-0.022222236,0,0,0,,0,240,240,276,1,vuemo,,,,
,,,,,,61503885693f6ebde3f2fcbc,676192165fb32c2e1fb7aee6,67d1942325158f41a334c2f9,2025-03-12_15h06.09.008,Tarea de decisión léxica,2024.2.5,Win32,30.58103976,,,,,,,,,,,,,,,,,,,,,,,656.6185,657.8626,a,1,0.5552,1,657.8627,658.3205,,,,,,49,FEM,WORD,AGR,150,edad,,la,,0.5552,,658.3205,658.3207,0.346296381,-0.022222236,0,0,0,,0,241,241,48,1,ecat,,,,
,,,,,,61503885693f6ebde3f2fcbc,676192165fb32c2e1fb7aee6,67d1942325158f41a334c2f9,2025-03-12_15h06.09.008,Tarea de decisión léxica,2024.2.5,Win32,30.58103976,,,,,,,,,,,,,,,,,,,,,,,658.3225,659.5615,l,1,0.5578,1,659.5617,660.0537,,,,,,196,FEM,NOWORD,DIS,150,sira,,el,,0.5578,,660.0552,660.0566,0.346296381,-0.022222236,0,0,0,,0,242,242,195,1,tela,,,,
,,,,,,61503885693f6ebde3f2fcbc,676192165fb32c2e1fb7aee6,67d1942325158f41a334c2f9,2025-03-12_15h06.09.008,Tarea de decisión léxica,2024.2.5,Win32,30.58103976,,,,,,,,,,,,,,,,,,,,,,,660.0582,661.2384,l,1,0.4983,1,661.2384,661.7302,,,,,,92,FEM,NOWORD,DIS,150,sava,,el,,0.4983,,661.7303,661.7305,0.346296381,-0.022222236,0,0,0,,0,243,243,91,1,taza,,,,
,,,,,,61503885693f6ebde3f2fcbc,676192165fb32c2e1fb7aee6,67d1942325158f41a334c2f9,2025-03-12_15h06.09.008,Tarea de decisión léxica,2024.2.5,Win32,30.58103976,,,,,,,,,,,,,,,,,,,,,,,661.732,662.8947,l,0,0.458,0,662.8959,663.3578,,,,,,393,FEM,WORD,DIS,150,aldea,,el,,0.458,,663.3579,663.3581,0.346296381,-0.022222236,0,0,0,,0,244,244,392,1,ashea,,,,
,,,,,,61503885693f6ebde3f2fcbc,676192165fb32c2e1fb7aee6,67d1942325158f41a334c2f9,2025-03-12_15h06.09.008,Tarea de decisión léxica,2024.2.5,Win32,30.58103976,,,,,,,,,,,,,,,,,,,,,,,663.3599,664.4763,a,1,0.4386,1,664.4779,664.9727,,,,,,85,MAS,WORD,AGR,150,lago,,el,,0.4386,,664.9728,664.9729,0.346296381,-0.022222236,0,0,0,,0,245,245,84,1,babo,,,,
,,,,,,61503885693f6ebde3f2fcbc,676192165fb32c2e1fb7aee6,67d1942325158f41a334c2f9,2025-03-12_15h06.09.008,Tarea de decisión léxica,2024.2.5,Win32,30.58103976,,,,,,,,,,,,,,,,,,,,,,,664.9748,666.3103,a,1,0.6342,1,666.3104,666.7983,,,,,,149,MAS,WORD,AGR,150,cabo,,el,,0.6342,,666.7984,666.7986,0.346296381,-0.022222236,0,0,0,,0,246,246,148,1,pafo,,,,
,,,,,,61503885693f6ebde3f2fcbc,676192165fb32c2e1fb7aee6,67d1942325158f41a334c2f9,2025-03-12_15h06.09.008,Tarea de decisión léxica,2024.2.5,Win32,30.58103976,,,,,,,,,,,,,,,,,,,,,,,666.8003,667.9109,a,0,0.4342,0,667.9121,668.4058,,,,,,404,FEM,NOWORD,DIS,150,grisa,,el,,0.4342,,668.4076,668.4086,0.346296381,-0.022222236,0,0,0,,0,247,247,403,1,prima,,,,
,,,,,,61503885693f6ebde3f2fcbc,676192165fb32c2e1fb7aee6,67d1942325158f41a334c2f9,2025-03-12_15h06.09.008,Tarea de decisión léxica,2024.2.5,Win32,30.58103976,,,,,,,,,,,,,,,,,,,,,,,668.4099,669.6091,a,0,0.5202,0,669.6093,670.101,,,,,,392,MAS,NOWORD,DIS,150,dievo,,la,,0.5202,,670.1011,670.1012,0.346296381,-0.022222236,0,0,0,,0,248,248,391,1,dueño,,,,
,,,,,,61503885693f6ebde3f2fcbc,676192165fb32c2e1fb7aee6,67d1942325158f41a334c2f9,2025-03-12_15h06.09.008,Tarea de decisión léxica,2024.2.5,Win32,30.58103976,,,,,,,,,,,,,,,,,,,,,,,670.1026,671.3797,l,1,0.5957,1,671.3809,671.8693,,,,,,358,FEM,NOWORD,AGR,150,gruba,,la,,0.5957,,671.8693,671.8695,0.346296381,-0.022222236,0,0,0,,0,249,249,357,1,bruja,,,,
,,,,,,61503885693f6ebde3f2fcbc,676192165fb32c2e1fb7aee6,67d1942325158f41a334c2f9,2025-03-12_15h06.09.008,Tarea de decisión léxica,2024.2.5,Win32,30.58103976,,,,,,,,,,,,,,,,,,,,,,,671.8714,673.2304,l,1,0.6823,1,673.2305,673.7601,,,,,,430,FEM,NOWORD,AGR,150,tenta,,la,,0.6823,,673.7601,673.7603,0.346296381,-0.022222236,0,0,0,,0,250,250,429,1,tarta,,,,
,,,,,,61503885693f6ebde3f2fcbc,676192165fb32c2e1fb7aee6,67d1942325158f41a334c2f9,2025-03-12_15h06.09.008,Tarea de decisión léxica,2024.2.5,Win32,30.58103976,,,,,,,,,,,,,,,,,,,,,,,673.7616,674.8539,l,1,0.4152,1,674.854,675.3507,,,,,,366,FEM,NOWORD,AGR,150,gulla,,la,,0.4152,,675.3525,675.3535,0.346296381,-0.022222236,0,0,0,,0,251,251,365,1,ducha,,,,
,,,,,,61503885693f6ebde3f2fcbc,676192165fb32c2e1fb7aee6,67d1942325158f41a334c2f9,2025-03-12_15h06.09.008,Tarea de decisión léxica,2024.2.5,Win32,30.58103976,,,,,,,,,,,,,,,,,,,,,,,675.3546,676.7136,l,1,0.6761,1,676.7137,677.202,,,,,,238,MAS,NOWORD,AGR,150,huco,,el,,0.6761,,677.2022,677.2023,0.346296381,-0.022222236,0,0,0,,0,252,252,237,1,nudo,,,,
,,,,,,61503885693f6ebde3f2fcbc,676192165fb32c2e1fb7aee6,67d1942325158f41a334c2f9,2025-03-12_15h06.09.008,Tarea de decisión léxica,2024.2.5,Win32,30.58103976,,,,,,,,,,,,,,,,,,,,,,,677.2037,678.3891,a,1,0.4945,1,678.3908,678.8858,,,,,,191,FEM,WORD,AGR,150,pila,,la,,0.4945,,678.8858,678.8859,0.346296381,-0.022222236,0,0,0,,0,253,253,190,1,bila,,,,
,,,,,,61503885693f6ebde3f2fcbc,676192165fb32c2e1fb7aee6,67d1942325158f41a334c2f9,2025-03-12_15h06.09.008,Tarea de decisión léxica,2024.2.5,Win32,30.58103976,,,,,,,,,,,,,,,,,,,,,,,678.8878,680.1114,a,1,0.5385,1,680.1116,680.6189,,,,,,447,MAS,WORD,DIS,150,bolso,,la,,0.5385,,680.619,680.6192,0.346296381,-0.022222236,0,0,0,,0,254,254,446,1,buaso,,,,
,,,,,,61503885693f6ebde3f2fcbc,676192165fb32c2e1fb7aee6,67d1942325158f41a334c2f9,2025-03-12_15h06.09.008,Tarea de decisión léxica,2024.2.5,Win32,30.58103976,,,,,,,,,,,,,,,,,,,,,,,680.6208,681.6662,l,1,0.3629,1,681.6664,682.1553,,,,,,128,MAS,NOWORD,DIS,150,itio,,la,,0.3629,,682.1554,682.1555,0.346296381,-0.022222236,0,0,0,,0,255,255,127,1,pico,,,,
,,,,,,61503885693f6ebde3f2fcbc,676192165fb32c2e1fb7aee6,67d1942325158f41a334c2f9,2025-03-12_15h06.09.008,Tarea de decisión léxica,2024.2.5,Win32,30.58103976,,,,,,,,,,,,,,,,,,,,,,,682.1573,683.3946,a,1,0.5617,1,683.3947,683.8562,,,,,,323,FEM,WORD,AGR,150,cinta,,la,,0.5617,,683.8588,683.8609,0.346296381,-0.022222236,0,0,0,,0,256,256,322,1,certa,,,,
,,,,,,61503885693f6ebde3f2fcbc,676192165fb32c2e1fb7aee6,67d1942325158f41a334c2f9,2025-03-12_15h06.09.008,Tarea de decisión léxica,2024.2.5,Win32,30.58103976,,,,,,,,,,,,,,,,,,,,,,,683.8622,684.9529,l,1,0.3976,1,684.9531,685.4291,,,,,,218,MAS,NOWORD,AGR,150,budo,,el,,0.3976,,685.4292,685.4293,0.346296381,-0.022222236,0,0,0,,0,257,257,217,1,luto,,,,
,,,,,,61503885693f6ebde3f2fcbc,676192165fb32c2e1fb7aee6,67d1942325158f41a334c2f9,2025-03-12_15h06.09.008,Tarea de decisión léxica,2024.2.5,Win32,30.58103976,,,,,,,,,,,,,,,,,,,,,,,685.4311,686.6508,l,1,0.4913,1,686.6509,687.1294,,,,,,426,FEM,NOWORD,AGR,150,virca,,la,,0.4913,,687.1295,687.1296,0.346296381,-0.022222236,0,0,0,,0,258,258,425,1,viuda,,,,
,,,,,,61503885693f6ebde3f2fcbc,676192165fb32c2e1fb7aee6,67d1942325158f41a334c2f9,2025-03-12_15h06.09.008,Tarea de decisión léxica,2024.2.5,Win32,30.58103976,,,,,,,,,,,,,,,,,,,,,,,687.1311,688.3617,a,1,0.5172,1,688.3619,688.8414,,,,,,399,MAS,WORD,DIS,150,techo,,la,,0.5172,,688.8415,688.8416,0.346296381,-0.022222236,0,0,0,,0,259,259,398,1,serro,,,,
,,,,,,61503885693f6ebde3f2fcbc,676192165fb32c2e1fb7aee6,67d1942325158f41a334c2f9,2025-03-12_15h06.09.008,Tarea de decisión léxica,2024.2.5,Win32,30.58103976,,,,,,,,,,,,,,,,,,,,,,,688.8437,690.0127,a,1,0.4746,1,690.0128,690.5032,,,,,,305,MAS,WORD,DIS,150,avión,,la,,0.4746,,690.5033,690.5035,0.346296381,-0.022222236,0,0,0,,0,260,260,304,1,adiol,,,,
,,,,,,61503885693f6ebde3f2fcbc,676192165fb32c2e1fb7aee6,67d1942325158f41a334c2f9,2025-03-12_15h06.09.008,Tarea de decisión léxica,2024.2.5,Win32,30.58103976,,,,,,,,,,,,,,,,,,,,,,,690.505,691.7002,a,1,0.499,1,691.7004,692.179,,,,,,307,MAS,WORD,AGR,150,hotel,,el,,0.499,,692.1811,692.1821,0.346296381,-0.022222236,0,0,0,,0,261,261,306,1,holol,,,,
,,,,,,61503885693f6ebde3f2fcbc,676192165fb32c2e1fb7aee6,67d1942325158f41a334c2f9,2025-03-12_15h06.09.008,Tarea de decisión léxica,2024.2.5,Win32,30.58103976,,,,,,,,,,,,,,,,,,,,,,,692.1833,693.3657,a,1,0.5027,1,693.3658,693.8775,,,,,,327,MAS,WORD,DIS,150,fondo,,la,,0.5027,,693.8775,693.8777,0.346296381,-0.022222236,0,0,0,,0,262,262,326,1,lendo,,,,
,,,,,,61503885693f6ebde3f2fcbc,676192165fb32c2e1fb7aee6,67d1942325158f41a334c2f9,2025-03-12_15h06.09.008,Tarea de decisión léxica,2024.2.5,Win32,30.58103976,,,,,,,,,,,,,,,,,,,,,,,693.8797,695.1245,l,1,0.5334,1,695.1246,695.6221,,,,,,282,MAS,NOWORD,AGR,150,cauro,,el,,0.5334,,695.6221,695.6223,0.346296381,-0.022222236,0,0,0,,0,263,263,281,1,cielo,,,,
