counterbalancing_condition,consent_prescreening.block_1/declare_consent,consent_prescreening.block_1/age_years,consent_prescreening.block_1/gender,consent_prescreening.block_1/language_disorder,consent_prescreening.block_1/first_language,PROLIFIC_PID,STUDY_ID,SESSION_ID,date,expName,psychopyVersion,OS,frameRate,check_prescreening_answers.started,check_prescreening_answers.stopped,Instructions.started,Instructions.stopped,instr_done_keyboard.keys,instr_done_keyboard.rt,instr_done_keyboard.duration,instr_done_touch.x,instr_done_touch.y,instr_done_touch.leftButton,instr_done_touch.midButton,instr_done_touch.rightButton,instruction_pages.thisRepN,instruction_pages.thisTrialN,instruction_pages.thisN,instruction_pages.thisIndex,instruction_pages.ran,pageN,phase,instruct_text,has_image,instruct_image,presentTrial.started,presentTrial.stopped,response.keys,response.corr,rt,corr,feedback.started,feedback.stopped,practice_trials.thisRepN,practice_trials.thisTrialN,practice_trials.thisN,practice_trials.thisIndex,practice_trials.ran,TrialID,Gender,StimulusType,Condition,PrimeDuration,Prime,len,Flanker,corrAns,response.rt,response.duration,Break.started,Break.stopped,break_done_touch.x,break_done_touch.y,break_done_touch.leftButton,break_done_touch.midButton,break_done_touch.rightButton,break_done_keyboard.keys,experiment_trials.thisRepN,experiment_trials.thisTrialN,experiment_trials.thisN,experiment_trials.thisIndex,experiment_trials.ran,PairedWith,break_done_keyboard.rt,break_done_keyboard.duration,End.started,End.stopped
0,"[""over_18"",""comfortable"",""read_info"",""consent_given""]",26,F,"[""none""]","[""spanish""]",6150dc583977d6a9c20da620,676192165fb32c2e1fb7aee6,67d1e8021599fb84cdea5199,2025-03-12_14h01.57.325,Tarea de decisión léxica,2024.2.5,MacIntel,64.1025641,,,,,,,,,,,,,,,,,,,,,,,,,,,,,,,,,,,,,,,,,,,,,,,,,,,,,,,,,,,,,,,,
,,,,,,6150dc583977d6a9c20da620,676192165fb32c2e1fb7aee6,67d1e8021599fb84cdea5199,2025-03-12_14h01.57.325,Tarea de decisión léxica,2024.2.5,MacIntel,64.1025641,83.5877,83.5879,,,,,,,,,,,,,,,,,,,,,,,,,,,,,,,,,,,,,,,,,,,,,,,,,,,,,,,,,,,,,,
,,,,,,6150dc583977d6a9c20da620,676192165fb32c2e1fb7aee6,67d1e8021599fb84cdea5199,2025-03-12_14h01.57.325,Tarea de decisión léxica,2024.2.5,MacIntel,64.1025641,,,83.6165,99.3836,space,15.7348,,-0.003045112,-0.392173258,0,0,0,0,0,0,0,1,1,instructions,"INSTRUCCIONES
Va a realizar una prueba de decisión léxica. Desde el comienzo de la prueba mire siempre al centro de la pantalla. Se presentará una serie de cadenas de letras, una a la vez, en la pantalla. Su tarea consiste en determinar si cada cadena de letras constituye una palabra real en español o una no-palabra (una secuencia de letras que no constituye una palabra real). 

Pulse la tecla ESPACIO para continuar.",0,keyboardresponseNW.png,,,,,,,,,,,,,,,,,,,,,,,,,,,,,,,,,,,,,,,,,,
,,,,,,6150dc583977d6a9c20da620,676192165fb32c2e1fb7aee6,67d1e8021599fb84cdea5199,2025-03-12_14h01.57.325,Tarea de decisión léxica,2024.2.5,MacIntel,64.1025641,,,99.3869,111.5333,space,12.1323,,-0.003045112,-0.392173258,0,0,0,0,1,1,1,1,2,instructions,"El procedimiento es el siguiente: Aparecerán dos barras verticales posicionadas en el centro de la pantalla, separadas por un pequeño espacio.Por favor, enfoque su atención en el espacio entre las barras. Esto preparará sus ojos para la siguiente cadena de letras, que aparecerá entre las dos barras durante un instante.

Pulse la tecla ESPACIO para continuar.",0,keyboardresponseNW.png,,,,,,,,,,,,,,,,,,,,,,,,,,,,,,,,,,,,,,,,,,
,,,,,,6150dc583977d6a9c20da620,676192165fb32c2e1fb7aee6,67d1e8021599fb84cdea5199,2025-03-12_14h01.57.325,Tarea de decisión léxica,2024.2.5,MacIntel,64.1025641,,,111.5363,131.7013,space,20.1032,,-0.003045112,-0.392173258,0,0,0,0,2,2,2,1,3,instructions,"En el teclado de su dispositivo, pulse la tecla ""L"" si la cadena de letras es una palabra real en español (por ejemplo: ""mano"") y la tecla ""A"" si la cadena de letras es una no-palabra (por ejemplo: ""minu"").
Pulse la tecla ESPACIO para continuar.",1,keyboardresponseNW.png,,,,,,,,,,,,,,,,,,,,,,,,,,,,,,,,,,,,,,,,,,
,,,,,,6150dc583977d6a9c20da620,676192165fb32c2e1fb7aee6,67d1e8021599fb84cdea5199,2025-03-12_14h01.57.325,Tarea de decisión léxica,2024.2.5,MacIntel,64.1025641,,,131.7047,144.8186,space,13.1013,,-0.003045112,-0.392173258,0,0,0,0,3,3,3,1,4,instructions,"Es muy importante que responda con la mayor rapidez y precisión posibles. Si no responde dentro de 2 segundos, aparecerá el mensaje ""Muy lento"" y el experimento pasará a la siguiente palabra. Inmediatamente después de su respuesta se indicará si fue correcta o no. Los primeros 15 intentos serán de práctica y habrá dos descansos durante la prueba.

Pulse la tecla ESPACIO  para iniciar la parte de práctica.",0,keyboardresponseNW.png,,,,,,,,,,,,,,,,,,,,,,,,,,,,,,,,,,,,,,,,,,
,,,,,,6150dc583977d6a9c20da620,676192165fb32c2e1fb7aee6,67d1e8021599fb84cdea5199,2025-03-12_14h01.57.325,Tarea de decisión léxica,2024.2.5,MacIntel,64.1025641,,,,,,,,,,,,,,,,,,,,,,,144.8403,147.486,,0,,-1,147.4865,147.9861,0,0,0,1,1,1002,FEM,NOWORD,DIS,150,mabo,4,el,a,,,,,,,,,,,,,,,,,,,,
,,,,,,6150dc583977d6a9c20da620,676192165fb32c2e1fb7aee6,67d1e8021599fb84cdea5199,2025-03-12_14h01.57.325,Tarea de decisión léxica,2024.2.5,MacIntel,64.1025641,,,,,,,,,,,,,,,,,,,,,,,147.9883,149.7037,l,1,1.042,1,149.7384,150.2028,0,1,1,6,1,1007,MAS,WORD,DIS,150,masa,4,la,l,1.042,,,,,,,,,,,,,,,,,,,
,,,,,,6150dc583977d6a9c20da620,676192165fb32c2e1fb7aee6,67d1e8021599fb84cdea5199,2025-03-12_14h01.57.325,Tarea de decisión léxica,2024.2.5,MacIntel,64.1025641,,,,,,,,,,,,,,,,,,,,,,,150.2049,151.3359,l,1,0.4525,1,151.336,151.8361,0,2,2,8,1,1009,FEM,WORD,AGR,150,viejo,5,la,l,0.4525,,,,,,,,,,,,,,,,,,,
,,,,,,6150dc583977d6a9c20da620,676192165fb32c2e1fb7aee6,67d1e8021599fb84cdea5199,2025-03-12_14h01.57.325,Tarea de decisión léxica,2024.2.5,MacIntel,64.1025641,,,,,,,,,,,,,,,,,,,,,,,151.8384,153.0859,l,1,0.5692,1,153.086,153.586,0,3,3,7,1,1008,MAS,WORD,DIS,150,frío,4,la,l,0.5692,,,,,,,,,,,,,,,,,,,
,,,,,,6150dc583977d6a9c20da620,676192165fb32c2e1fb7aee6,67d1e8021599fb84cdea5199,2025-03-12_14h01.57.325,Tarea de decisión léxica,2024.2.5,MacIntel,64.1025641,,,,,,,,,,,,,,,,,,,,,,,153.5876,154.6889,l,1,0.4275,1,154.6891,155.1864,0,4,4,5,1,1006,FEM,WORD,AGR,150,cara,4,la,l,0.4275,,,,,,,,,,,,,,,,,,,
,,,,,,6150dc583977d6a9c20da620,676192165fb32c2e1fb7aee6,67d1e8021599fb84cdea5199,2025-03-12_14h01.57.325,Tarea de decisión léxica,2024.2.5,MacIntel,64.1025641,,,,,,,,,,,,,,,,,,,,,,,155.1884,156.2364,l,1,0.3689,1,156.2366,156.7365,0,5,5,9,1,1010,MAS,WORD,DIS,150,video,5,la,l,0.3689,,,,,,,,,,,,,,,,,,,
,,,,,,6150dc583977d6a9c20da620,676192165fb32c2e1fb7aee6,67d1e8021599fb84cdea5199,2025-03-12_14h01.57.325,Tarea de decisión léxica,2024.2.5,MacIntel,64.1025641,,,,,,,,,,,,,,,,,,,,,,,156.7387,158.2196,a,1,0.8036,1,158.2198,158.72,0,6,6,2,1,1003,FEM,NOWORD,DIS,150,muvor,5,el,a,0.8036,,,,,,,,,,,,,,,,,,,
,,,,,,6150dc583977d6a9c20da620,676192165fb32c2e1fb7aee6,67d1e8021599fb84cdea5199,2025-03-12_14h01.57.325,Tarea de decisión léxica,2024.2.5,MacIntel,64.1025641,,,,,,,,,,,,,,,,,,,,,,,158.722,159.7532,l,0,0.3557,0,159.7548,160.2531,0,7,7,0,1,1001,FEM,NOWORD,AGR,150,croz,4,la,a,0.3557,,,,,,,,,,,,,,,,,,,
,,,,,,6150dc583977d6a9c20da620,676192165fb32c2e1fb7aee6,67d1e8021599fb84cdea5199,2025-03-12_14h01.57.325,Tarea de decisión léxica,2024.2.5,MacIntel,64.1025641,,,,,,,,,,,,,,,,,,,,,,,160.255,161.3368,a,1,0.4032,1,161.3389,161.8368,0,8,8,3,1,1004,FEM,NOWORD,AGR,150,bireo,5,la,a,0.4032,,,,,,,,,,,,,,,,,,,
,,,,,,6150dc583977d6a9c20da620,676192165fb32c2e1fb7aee6,67d1e8021599fb84cdea5199,2025-03-12_14h01.57.325,Tarea de decisión léxica,2024.2.5,MacIntel,64.1025641,,,,,,,,,,,,,,,,,,,,,,,161.839,162.9368,a,1,0.4236,1,162.9369,163.4371,0,9,9,4,1,1005,MAS,NOWORD,DIS,150,nobad,5,la,a,0.4236,,,,,,,,,,,,,,,,,,,
,,,,,,6150dc583977d6a9c20da620,676192165fb32c2e1fb7aee6,67d1e8021599fb84cdea5199,2025-03-12_14h01.57.325,Tarea de decisión léxica,2024.2.5,MacIntel,64.1025641,,,170.2425,178.7217,space,8.4605,,-0.003045112,-0.392173258,0,0,0,,,,,,,,,,,178.7758,179.888,l,1,0.4345,1,179.8882,180.3882,,,,,,295,MAS,WORD,DIS,150,dolor,,la,,0.4345,,180.3887,180.3942,-0.003045112,-0.392173258,0,0,0,,0,0,0,294,1,goler,,,,
,,,,,,6150dc583977d6a9c20da620,676192165fb32c2e1fb7aee6,67d1e8021599fb84cdea5199,2025-03-12_14h01.57.325,Tarea de decisión léxica,2024.2.5,MacIntel,64.1025641,,,,,,,,,,,,,,,,,,,,,,,180.3955,181.4715,l,1,0.4082,1,181.4716,181.9716,,,,,,381,MAS,WORD,DIS,150,humor,,la,,0.4082,,181.9717,181.972,-0.003045112,-0.392173258,0,0,0,,0,1,1,380,1,nusor,,,,
,,,,,,6150dc583977d6a9c20da620,676192165fb32c2e1fb7aee6,67d1e8021599fb84cdea5199,2025-03-12_14h01.57.325,Tarea de decisión léxica,2024.2.5,MacIntel,64.1025641,,,,,,,,,,,,,,,,,,,,,,,181.9738,182.8549,l,0,0.2091,0,182.8567,183.3551,,,,,,242,MAS,NOWORD,DIS,150,mirdo,,la,,0.2091,,183.3573,183.3597,-0.003045112,-0.392173258,0,0,0,,0,2,2,241,1,mundo,,,,
,,,,,,6150dc583977d6a9c20da620,676192165fb32c2e1fb7aee6,67d1e8021599fb84cdea5199,2025-03-12_14h01.57.325,Tarea de decisión léxica,2024.2.5,MacIntel,64.1025641,,,,,,,,,,,,,,,,,,,,,,,183.3607,184.3547,a,1,0.3202,1,184.3556,184.8552,,,,,,276,MAS,NOWORD,AGR,150,musto,,el,,0.3202,,184.8552,184.8554,-0.003045112,-0.392173258,0,0,0,,0,3,3,275,1,punto,,,,
,,,,,,6150dc583977d6a9c20da620,676192165fb32c2e1fb7aee6,67d1e8021599fb84cdea5199,2025-03-12_14h01.57.325,Tarea de decisión léxica,2024.2.5,MacIntel,64.1025641,,,,,,,,,,,,,,,,,,,,,,,184.8573,186.005,l,1,0.4716,1,186.0052,186.5053,,,,,,39,MAS,WORD,DIS,150,voto,,la,,0.4716,,186.5054,186.5056,-0.003045112,-0.392173258,0,0,0,,0,4,4,38,1,redo,,,,
,,,,,,6150dc583977d6a9c20da620,676192165fb32c2e1fb7aee6,67d1e8021599fb84cdea5199,2025-03-12_14h01.57.325,Tarea de decisión léxica,2024.2.5,MacIntel,64.1025641,,,,,,,,,,,,,,,,,,,,,,,186.5074,187.5883,a,1,0.4013,1,187.5884,188.0887,,,,,,478,MAS,NOWORD,DIS,150,hocon,,la,,0.4013,,188.0888,188.0891,-0.003045112,-0.392173258,0,0,0,,0,5,5,477,1,botón,,,,
,,,,,,6150dc583977d6a9c20da620,676192165fb32c2e1fb7aee6,67d1e8021599fb84cdea5199,2025-03-12_14h01.57.325,Tarea de decisión léxica,2024.2.5,MacIntel,64.1025641,,,,,,,,,,,,,,,,,,,,,,,188.0913,189.2053,a,1,0.4381,1,189.2054,189.7054,,,,,,18,FEM,NOWORD,DIS,150,paba,,el,,0.4381,,189.7055,189.7057,-0.003045112,-0.392173258,0,0,0,,0,6,6,17,1,mamá,,,,
,,,,,,6150dc583977d6a9c20da620,676192165fb32c2e1fb7aee6,67d1e8021599fb84cdea5199,2025-03-12_14h01.57.325,Tarea de decisión léxica,2024.2.5,MacIntel,64.1025641,,,,,,,,,,,,,,,,,,,,,,,189.708,190.8556,a,1,0.467,1,190.8557,191.3554,,,,,,430,FEM,NOWORD,DIS,150,tenta,,el,,0.467,,191.3576,191.3597,-0.003045112,-0.392173258,0,0,0,,0,7,7,429,1,tarta,,,,
,,,,,,6150dc583977d6a9c20da620,676192165fb32c2e1fb7aee6,67d1e8021599fb84cdea5199,2025-03-12_14h01.57.325,Tarea de decisión léxica,2024.2.5,MacIntel,64.1025641,,,,,,,,,,,,,,,,,,,,,,,191.3608,192.4723,l,1,0.4386,1,192.4723,192.9725,,,,,,363,FEM,WORD,AGR,150,deuda,,la,,0.4386,,192.9725,192.9727,-0.003045112,-0.392173258,0,0,0,,0,8,8,362,1,veida,,,,
,,,,,,6150dc583977d6a9c20da620,676192165fb32c2e1fb7aee6,67d1e8021599fb84cdea5199,2025-03-12_14h01.57.325,Tarea de decisión léxica,2024.2.5,MacIntel,64.1025641,,,,,,,,,,,,,,,,,,,,,,,192.9746,194.0223,l,1,0.3693,1,194.0224,194.5224,,,,,,15,FEM,WORD,AGR,150,idea,,la,,0.3693,,194.5225,194.5228,-0.003045112,-0.392173258,0,0,0,,0,9,9,14,1,odea,,,,
,,,,,,6150dc583977d6a9c20da620,676192165fb32c2e1fb7aee6,67d1e8021599fb84cdea5199,2025-03-12_14h01.57.325,Tarea de decisión léxica,2024.2.5,MacIntel,64.1025641,,,,,,,,,,,,,,,,,,,,,,,194.5246,195.5725,l,1,0.371,1,195.5726,196.0722,,,,,,377,MAS,WORD,DIS,150,hielo,,la,,0.371,,196.0722,196.0725,-0.003045112,-0.392173258,0,0,0,,0,10,10,376,1,gaulo,,,,
,,,,,,6150dc583977d6a9c20da620,676192165fb32c2e1fb7aee6,67d1e8021599fb84cdea5199,2025-03-12_14h01.57.325,Tarea de decisión léxica,2024.2.5,MacIntel,64.1025641,,,,,,,,,,,,,,,,,,,,,,,196.0744,197.1892,a,1,0.4392,1,197.1894,197.6893,,,,,,470,MAS,NOWORD,DIS,150,matia,,la,,0.4392,,197.6919,197.6941,-0.003045112,-0.392173258,0,0,0,,0,11,11,469,1,patio,,,,
,,,,,,6150dc583977d6a9c20da620,676192165fb32c2e1fb7aee6,67d1e8021599fb84cdea5199,2025-03-12_14h01.57.325,Tarea de decisión léxica,2024.2.5,MacIntel,64.1025641,,,,,,,,,,,,,,,,,,,,,,,197.6953,198.8226,l,0,0.4534,0,198.8242,199.3227,,,,,,64,FEM,NOWORD,AGR,150,funa,,la,,0.4534,,199.3228,199.3229,-0.003045112,-0.392173258,0,0,0,,0,12,12,63,1,luna,,,,
,,,,,,6150dc583977d6a9c20da620,676192165fb32c2e1fb7aee6,67d1e8021599fb84cdea5199,2025-03-12_14h01.57.325,Tarea de decisión léxica,2024.2.5,MacIntel,64.1025641,,,,,,,,,,,,,,,,,,,,,,,199.3249,200.4393,l,1,0.4338,1,200.441,200.9395,,,,,,273,FEM,WORD,DIS,150,broma,,el,,0.4338,,200.9396,200.9397,-0.003045112,-0.392173258,0,0,0,,0,13,13,272,1,frosa,,,,
,,,,,,6150dc583977d6a9c20da620,676192165fb32c2e1fb7aee6,67d1e8021599fb84cdea5199,2025-03-12_14h01.57.325,Tarea de decisión léxica,2024.2.5,MacIntel,64.1025641,,,,,,,,,,,,,,,,,,,,,,,200.9417,202.1394,l,1,0.5232,1,202.1396,202.6394,,,,,,335,FEM,WORD,AGR,150,costa,,la,,0.5232,,202.6394,202.6396,-0.003045112,-0.392173258,0,0,0,,0,14,14,334,1,pesta,,,,
,,,,,,6150dc583977d6a9c20da620,676192165fb32c2e1fb7aee6,67d1e8021599fb84cdea5199,2025-03-12_14h01.57.325,Tarea de decisión léxica,2024.2.5,MacIntel,64.1025641,,,,,,,,,,,,,,,,,,,,,,,202.6417,203.7561,l,1,0.4353,1,203.7563,204.2561,,,,,,207,MAS,WORD,AGR,150,kilo,,el,,0.4353,,204.2562,204.2563,-0.003045112,-0.392173258,0,0,0,,0,15,15,206,1,kedo,,,,
,,,,,,6150dc583977d6a9c20da620,676192165fb32c2e1fb7aee6,67d1e8021599fb84cdea5199,2025-03-12_14h01.57.325,Tarea de decisión léxica,2024.2.5,MacIntel,64.1025641,,,,,,,,,,,,,,,,,,,,,,,204.2588,205.3569,l,0,0.4251,0,205.3586,205.8565,,,,,,420,MAS,NOWORD,AGR,150,chudo,,el,,0.4251,,205.8588,205.8609,-0.003045112,-0.392173258,0,0,0,,0,16,16,419,1,truco,,,,
,,,,,,6150dc583977d6a9c20da620,676192165fb32c2e1fb7aee6,67d1e8021599fb84cdea5199,2025-03-12_14h01.57.325,Tarea de decisión léxica,2024.2.5,MacIntel,64.1025641,,,,,,,,,,,,,,,,,,,,,,,205.8621,206.9903,a,1,0.4576,1,206.9925,207.49,,,,,,422,MAS,NOWORD,DIS,150,griso,,la,,0.4576,,207.4901,207.4903,-0.003045112,-0.392173258,0,0,0,,0,17,17,421,1,primo,,,,
,,,,,,6150dc583977d6a9c20da620,676192165fb32c2e1fb7aee6,67d1e8021599fb84cdea5199,2025-03-12_14h01.57.325,Tarea de decisión léxica,2024.2.5,MacIntel,64.1025641,,,,,,,,,,,,,,,,,,,,,,,207.4922,208.5895,a,1,0.4219,1,208.5896,209.0901,,,,,,310,FEM,NOWORD,DIS,150,tirra,,el,,0.4219,,209.0902,209.0903,-0.003045112,-0.392173258,0,0,0,,0,18,18,309,1,silla,,,,
,,,,,,6150dc583977d6a9c20da620,676192165fb32c2e1fb7aee6,67d1e8021599fb84cdea5199,2025-03-12_14h01.57.325,Tarea de decisión léxica,2024.2.5,MacIntel,64.1025641,,,,,,,,,,,,,,,,,,,,,,,209.0922,210.2734,l,1,0.5045,1,210.2735,210.7735,,,,,,1,FEM,WORD,AGR,150,casa,,la,,0.5045,,210.7735,210.7737,-0.003045112,-0.392173258,0,0,0,,0,19,19,0,1,mada,,,,
,,,,,,6150dc583977d6a9c20da620,676192165fb32c2e1fb7aee6,67d1e8021599fb84cdea5199,2025-03-12_14h01.57.325,Tarea de decisión léxica,2024.2.5,MacIntel,64.1025641,,,,,,,,,,,,,,,,,,,,,,,210.7756,211.8566,l,1,0.4031,1,211.8568,212.357,,,,,,279,FEM,WORD,AGR,150,prisa,,la,,0.4031,,212.357,212.3572,-0.003045112,-0.392173258,0,0,0,,0,20,20,278,1,grina,,,,
,,,,,,6150dc583977d6a9c20da620,676192165fb32c2e1fb7aee6,67d1e8021599fb84cdea5199,2025-03-12_14h01.57.325,Tarea de decisión léxica,2024.2.5,MacIntel,64.1025641,,,,,,,,,,,,,,,,,,,,,,,212.3593,213.4237,l,1,0.3872,1,213.4238,213.9239,,,,,,251,MAS,WORD,AGR,150,señor,,el,,0.3872,,213.9266,213.9285,-0.003045112,-0.392173258,0,0,0,,0,21,21,250,1,refor,,,,
,,,,,,6150dc583977d6a9c20da620,676192165fb32c2e1fb7aee6,67d1e8021599fb84cdea5199,2025-03-12_14h01.57.325,Tarea de decisión léxica,2024.2.5,MacIntel,64.1025641,,,,,,,,,,,,,,,,,,,,,,,213.9296,215.2069,a,1,0.6021,1,215.207,215.7073,,,,,,156,FEM,NOWORD,AGR,150,luma,,la,,0.6021,,215.7074,215.7075,-0.003045112,-0.392173258,0,0,0,,0,22,22,155,1,fuga,,,,
,,,,,,6150dc583977d6a9c20da620,676192165fb32c2e1fb7aee6,67d1e8021599fb84cdea5199,2025-03-12_14h01.57.325,Tarea de decisión léxica,2024.2.5,MacIntel,64.1025641,,,,,,,,,,,,,,,,,,,,,,,215.7095,216.8401,l,0,0.4551,0,216.8414,217.3404,,,,,,36,MAS,NOWORD,AGR,150,meno,,el,,0.4551,,217.3404,217.3406,-0.003045112,-0.392173258,0,0,0,,0,23,23,35,1,pelo,,,,
,,,,,,6150dc583977d6a9c20da620,676192165fb32c2e1fb7aee6,67d1e8021599fb84cdea5199,2025-03-12_14h01.57.325,Tarea de decisión léxica,2024.2.5,MacIntel,64.1025641,,,,,,,,,,,,,,,,,,,,,,,217.3425,218.458,l,1,0.4367,1,218.4595,218.9572,,,,,,369,MAS,WORD,AGR,150,ruido,,el,,0.4367,,218.9572,218.9574,-0.003045112,-0.392173258,0,0,0,,0,24,24,368,1,rioco,,,,
,,,,,,6150dc583977d6a9c20da620,676192165fb32c2e1fb7aee6,67d1e8021599fb84cdea5199,2025-03-12_14h01.57.325,Tarea de decisión léxica,2024.2.5,MacIntel,64.1025641,,,,,,,,,,,,,,,,,,,,,,,218.9594,220.2242,a,1,0.5871,1,220.2243,220.7243,,,,,,460,MAS,NOWORD,AGR,150,fraco,,el,,0.5871,,220.7243,220.7245,-0.003045112,-0.392173258,0,0,0,,0,25,25,459,1,grado,,,,
,,,,,,6150dc583977d6a9c20da620,676192165fb32c2e1fb7aee6,67d1e8021599fb84cdea5199,2025-03-12_14h01.57.325,Tarea de decisión léxica,2024.2.5,MacIntel,64.1025641,,,,,,,,,,,,,,,,,,,,,,,220.7265,222.0243,l,1,0.6238,1,222.0244,222.5243,,,,,,93,FEM,WORD,AGR,150,bola,,la,,0.6238,,222.5265,222.5287,-0.003045112,-0.392173258,0,0,0,,0,26,26,92,1,rona,,,,
,,,,,,6150dc583977d6a9c20da620,676192165fb32c2e1fb7aee6,67d1e8021599fb84cdea5199,2025-03-12_14h01.57.325,Tarea de decisión léxica,2024.2.5,MacIntel,64.1025641,,,,,,,,,,,,,,,,,,,,,,,222.5298,223.6432,l,1,0.4441,1,223.6434,224.141,,,,,,7,MAS,WORD,AGR,150,hijo,,el,,0.4441,,224.1411,224.1413,-0.003045112,-0.392173258,0,0,0,,0,27,27,6,1,nivo,,,,
,,,,,,6150dc583977d6a9c20da620,676192165fb32c2e1fb7aee6,67d1e8021599fb84cdea5199,2025-03-12_14h01.57.325,Tarea de decisión léxica,2024.2.5,MacIntel,64.1025641,,,,,,,,,,,,,,,,,,,,,,,224.1434,225.2744,a,1,0.45,1,225.2746,225.7745,,,,,,142,FEM,NOWORD,DIS,150,sina,,el,,0.45,,225.7746,225.7746,-0.003045112,-0.392173258,0,0,0,,0,28,28,141,1,cruz,,,,
,,,,,,6150dc583977d6a9c20da620,676192165fb32c2e1fb7aee6,67d1e8021599fb84cdea5199,2025-03-12_14h01.57.325,Tarea de decisión léxica,2024.2.5,MacIntel,64.1025641,,,,,,,,,,,,,,,,,,,,,,,225.7766,226.908,l,1,0.454,1,226.9082,227.408,,,,,,89,MAS,WORD,DIS,150,humo,,la,,0.454,,227.408,227.4081,-0.003045112,-0.392173258,0,0,0,,0,29,29,88,1,guso,,,,
,,,,,,6150dc583977d6a9c20da620,676192165fb32c2e1fb7aee6,67d1e8021599fb84cdea5199,2025-03-12_14h01.57.325,Tarea de decisión léxica,2024.2.5,MacIntel,64.1025641,,,,,,,,,,,,,,,,,,,,,,,227.4098,228.558,a,1,0.4709,1,228.5581,229.0582,,,,,,212,FEM,NOWORD,AGR,150,joad,,la,,0.4709,,229.0582,229.0584,-0.003045112,-0.392173258,0,0,0,,0,30,30,211,1,joya,,,,
,,,,,,6150dc583977d6a9c20da620,676192165fb32c2e1fb7aee6,67d1e8021599fb84cdea5199,2025-03-12_14h01.57.325,Tarea de decisión léxica,2024.2.5,MacIntel,64.1025641,,,,,,,,,,,,,,,,,,,,,,,229.0604,230.0749,a,1,0.3341,1,230.075,230.5748,,,,,,16,FEM,NOWORD,AGR,150,odea,,la,,0.3341,,230.5772,230.5793,-0.003045112,-0.392173258,0,0,0,,0,31,31,15,1,idea,,,,
,,,,,,6150dc583977d6a9c20da620,676192165fb32c2e1fb7aee6,67d1e8021599fb84cdea5199,2025-03-12_14h01.57.325,Tarea de decisión léxica,2024.2.5,MacIntel,64.1025641,,,,,,,,,,,,,,,,,,,,,,,230.5804,231.625,l,1,0.3676,1,231.6251,232.1272,,,,,,325,FEM,WORD,AGR,150,magia,,la,,0.3676,,232.1274,232.1276,-0.003045112,-0.392173258,0,0,0,,0,32,32,324,1,mabia,,,,
,,,,,,6150dc583977d6a9c20da620,676192165fb32c2e1fb7aee6,67d1e8021599fb84cdea5199,2025-03-12_14h01.57.325,Tarea de decisión léxica,2024.2.5,MacIntel,64.1025641,,,,,,,,,,,,,,,,,,,,,,,232.1292,233.2595,l,1,0.4573,1,233.2598,233.7585,,,,,,61,FEM,WORD,DIS,150,obra,,el,,0.4573,,233.7586,233.7587,-0.003045112,-0.392173258,0,0,0,,0,33,33,60,1,efla,,,,
,,,,,,6150dc583977d6a9c20da620,676192165fb32c2e1fb7aee6,67d1e8021599fb84cdea5199,2025-03-12_14h01.57.325,Tarea de decisión léxica,2024.2.5,MacIntel,64.1025641,,,,,,,,,,,,,,,,,,,,,,,233.7612,234.8748,a,1,0.4368,1,234.8749,235.3752,,,,,,52,FEM,NOWORD,AGR,150,mava,,la,,0.4368,,235.3752,235.3754,-0.003045112,-0.392173258,0,0,0,,0,34,34,51,1,caja,,,,
,,,,,,6150dc583977d6a9c20da620,676192165fb32c2e1fb7aee6,67d1e8021599fb84cdea5199,2025-03-12_14h01.57.325,Tarea de decisión léxica,2024.2.5,MacIntel,64.1025641,,,,,,,,,,,,,,,,,,,,,,,235.3776,236.3921,a,1,0.3352,1,236.3922,236.8924,,,,,,170,MAS,NOWORD,DIS,150,mibo,,la,,0.3352,,236.896,236.8977,-0.003045112,-0.392173258,0,0,0,,0,35,35,169,1,cubo,,,,
,,,,,,6150dc583977d6a9c20da620,676192165fb32c2e1fb7aee6,67d1e8021599fb84cdea5199,2025-03-12_14h01.57.325,Tarea de decisión léxica,2024.2.5,MacIntel,64.1025641,,,,,,,,,,,,,,,,,,,,,,,236.8989,238.0254,l,1,0.4546,1,238.0256,238.5255,,,,,,41,FEM,WORD,AGR,150,nave,,la,,0.4546,,238.5256,238.5256,-0.003045112,-0.392173258,0,0,0,,0,36,36,40,1,haje,,,,
,,,,,,6150dc583977d6a9c20da620,676192165fb32c2e1fb7aee6,67d1e8021599fb84cdea5199,2025-03-12_14h01.57.325,Tarea de decisión léxica,2024.2.5,MacIntel,64.1025641,,,,,,,,,,,,,,,,,,,,,,,238.5276,239.5914,l,1,0.3862,1,239.5914,240.0922,,,,,,339,MAS,WORD,AGR,150,brazo,,el,,0.3862,,240.0922,240.0923,-0.003045112,-0.392173258,0,0,0,,0,37,37,338,1,plajo,,,,
,,,,,,6150dc583977d6a9c20da620,676192165fb32c2e1fb7aee6,67d1e8021599fb84cdea5199,2025-03-12_14h01.57.325,Tarea de decisión léxica,2024.2.5,MacIntel,64.1025641,,,,,,,,,,,,,,,,,,,,,,,240.0943,241.3255,l,1,0.557,1,241.326,241.8252,,,,,,167,FEM,WORD,AGR,150,jefa,,la,,0.557,,241.8252,241.8253,-0.003045112,-0.392173258,0,0,0,,0,38,38,166,1,zifa,,,,
,,,,,,6150dc583977d6a9c20da620,676192165fb32c2e1fb7aee6,67d1e8021599fb84cdea5199,2025-03-12_14h01.57.325,Tarea de decisión léxica,2024.2.5,MacIntel,64.1025641,,,,,,,,,,,,,,,,,,,,,,,241.8274,242.9919,a,1,0.4879,1,242.9921,243.492,,,,,,278,MAS,NOWORD,DIS,150,vuemo,,la,,0.4879,,243.4921,243.4923,-0.003045112,-0.392173258,0,0,0,,0,39,39,277,1,fuego,,,,
,,,,,,6150dc583977d6a9c20da620,676192165fb32c2e1fb7aee6,67d1e8021599fb84cdea5199,2025-03-12_14h01.57.325,Tarea de decisión léxica,2024.2.5,MacIntel,64.1025641,,,,,,,,,,,,,,,,,,,,,,,243.4945,244.8093,l,1,0.6376,1,244.8094,245.3093,,,,,,201,FEM,WORD,AGR,150,cuna,,la,,0.6376,,245.3116,245.3139,-0.003045112,-0.392173258,0,0,0,,0,40,40,200,1,cusa,,,,
,,,,,,6150dc583977d6a9c20da620,676192165fb32c2e1fb7aee6,67d1e8021599fb84cdea5199,2025-03-12_14h01.57.325,Tarea de decisión léxica,2024.2.5,MacIntel,64.1025641,,,,,,,,,,,,,,,,,,,,,,,245.315,246.376,l,1,0.3852,1,246.3761,246.8761,,,,,,73,MAS,WORD,AGR,150,odio,,el,,0.3852,,246.8762,246.8763,-0.003045112,-0.392173258,0,0,0,,0,41,41,72,1,omio,,,,
,,,,,,6150dc583977d6a9c20da620,676192165fb32c2e1fb7aee6,67d1e8021599fb84cdea5199,2025-03-12_14h01.57.325,Tarea de decisión léxica,2024.2.5,MacIntel,64.1025641,,,,,,,,,,,,,,,,,,,,,,,246.8782,247.9926,l,1,0.4384,1,247.9927,248.4928,,,,,,117,MAS,WORD,AGR,150,palo,,el,,0.4384,,248.4928,248.493,-0.003045112,-0.392173258,0,0,0,,0,42,42,116,1,movo,,,,
,,,,,,6150dc583977d6a9c20da620,676192165fb32c2e1fb7aee6,67d1e8021599fb84cdea5199,2025-03-12_14h01.57.325,Tarea de decisión léxica,2024.2.5,MacIntel,64.1025641,,,,,,,,,,,,,,,,,,,,,,,248.4949,249.5426,l,1,0.3718,1,249.5426,250.0429,,,,,,461,FEM,WORD,AGR,150,tabla,,la,,0.3718,,250.043,250.0431,-0.003045112,-0.392173258,0,0,0,,0,43,43,460,1,pagra,,,,
,,,,,,6150dc583977d6a9c20da620,676192165fb32c2e1fb7aee6,67d1e8021599fb84cdea5199,2025-03-12_14h01.57.325,Tarea de decisión léxica,2024.2.5,MacIntel,64.1025641,,,,,,,,,,,,,,,,,,,,,,,250.0452,251.1928,a,1,0.4713,1,251.1928,251.6927,,,,,,338,MAS,NOWORD,DIS,150,nuejo,,la,,0.4713,,251.6927,251.6928,-0.003045112,-0.392173258,0,0,0,,0,44,44,337,1,huevo,,,,
,,,,,,6150dc583977d6a9c20da620,676192165fb32c2e1fb7aee6,67d1e8021599fb84cdea5199,2025-03-12_14h01.57.325,Tarea de decisión léxica,2024.2.5,MacIntel,64.1025641,,,,,,,,,,,,,,,,,,,,,,,251.6948,252.8428,l,0,0.4674,0,252.8446,253.3432,,,,,,378,MAS,NOWORD,DIS,150,gaulo,,la,,0.4674,,253.3452,253.3472,-0.003045112,-0.392173258,0,0,0,,0,45,45,377,1,hielo,,,,
,,,,,,6150dc583977d6a9c20da620,676192165fb32c2e1fb7aee6,67d1e8021599fb84cdea5199,2025-03-12_14h01.57.325,Tarea de decisión léxica,2024.2.5,MacIntel,64.1025641,,,,,,,,,,,,,,,,,,,,,,,253.3486,254.5098,a,1,0.4845,1,254.5113,255.0099,,,,,,158,MAS,NOWORD,DIS,150,hico,,la,,0.4845,,255.0101,255.0102,-0.003045112,-0.392173258,0,0,0,,0,46,46,157,1,nido,,,,
,,,,,,6150dc583977d6a9c20da620,676192165fb32c2e1fb7aee6,67d1e8021599fb84cdea5199,2025-03-12_14h01.57.325,Tarea de decisión léxica,2024.2.5,MacIntel,64.1025641,,,,,,,,,,,,,,,,,,,,,,,255.012,256.1095,a,1,0.4239,1,256.1097,256.61,,,,,,12,MAS,NOWORD,AGR,150,bapo,,el,,0.4239,,256.6101,256.6102,-0.003045112,-0.392173258,0,0,0,,0,47,47,11,1,lado,,,,
,,,,,,6150dc583977d6a9c20da620,676192165fb32c2e1fb7aee6,67d1e8021599fb84cdea5199,2025-03-12_14h01.57.325,Tarea de decisión léxica,2024.2.5,MacIntel,64.1025641,,,,,,,,,,,,,,,,,,,,,,,256.6121,257.594,l,1,0.3082,1,257.5943,258.0933,,,,,,471,FEM,WORD,DIS,150,grasa,,el,,0.3082,,258.0934,258.0936,-0.003045112,-0.392173258,0,0,0,,0,48,48,470,1,prana,,,,
,,,,,,6150dc583977d6a9c20da620,676192165fb32c2e1fb7aee6,67d1e8021599fb84cdea5199,2025-03-12_14h01.57.325,Tarea de decisión léxica,2024.2.5,MacIntel,64.1025641,,,,,,,,,,,,,,,,,,,,,,,258.0955,259.1596,l,1,0.3871,1,259.1597,259.6601,,,,,,141,FEM,WORD,DIS,150,cruz,,el,,0.3871,,259.6602,259.6604,-0.003045112,-0.392173258,0,0,0,,0,49,49,140,1,sina,,,,
,,,,,,6150dc583977d6a9c20da620,676192165fb32c2e1fb7aee6,67d1e8021599fb84cdea5199,2025-03-12_14h01.57.325,Tarea de decisión léxica,2024.2.5,MacIntel,64.1025641,,,,,,,,,,,,,,,,,,,,,,,259.6622,260.8602,l,1,0.5217,1,260.8602,261.3602,,,,,,185,MAS,WORD,DIS,150,baúl,,la,,0.5217,,261.3624,261.3645,-0.003045112,-0.392173258,0,0,0,,0,50,50,184,1,raol,,,,
,,,,,,6150dc583977d6a9c20da620,676192165fb32c2e1fb7aee6,67d1e8021599fb84cdea5199,2025-03-12_14h01.57.325,Tarea de decisión léxica,2024.2.5,MacIntel,64.1025641,,,,,,,,,,,,,,,,,,,,,,,261.3657,262.3772,l,1,0.3369,1,262.3772,262.8766,,,,,,49,FEM,WORD,DIS,150,edad,,el,,0.3369,,262.8767,262.8768,-0.003045112,-0.392173258,0,0,0,,0,51,51,48,1,ecat,,,,
,,,,,,6150dc583977d6a9c20da620,676192165fb32c2e1fb7aee6,67d1e8021599fb84cdea5199,2025-03-12_14h01.57.325,Tarea de decisión léxica,2024.2.5,MacIntel,64.1025641,,,,,,,,,,,,,,,,,,,,,,,262.8787,263.843,l,1,0.2887,1,263.843,264.3434,,,,,,95,FEM,WORD,DIS,151,moda,,el,,0.2887,,264.3436,264.3437,-0.003045112,-0.392173258,0,0,0,,0,52,52,94,1,neda,,,,
,,,,,,6150dc583977d6a9c20da620,676192165fb32c2e1fb7aee6,67d1e8021599fb84cdea5199,2025-03-12_14h01.57.325,Tarea de decisión léxica,2024.2.5,MacIntel,64.1025641,,,,,,,,,,,,,,,,,,,,,,,264.3455,265.3274,l,1,0.3015,1,265.3275,265.8273,,,,,,51,FEM,WORD,AGR,150,caja,,la,,0.3015,,265.8275,265.8275,-0.003045112,-0.392173258,0,0,0,,0,53,53,50,1,mava,,,,
,,,,,,6150dc583977d6a9c20da620,676192165fb32c2e1fb7aee6,67d1e8021599fb84cdea5199,2025-03-12_14h01.57.325,Tarea de decisión léxica,2024.2.5,MacIntel,64.1025641,,,,,,,,,,,,,,,,,,,,,,,265.8296,267.094,a,1,0.5839,1,267.0942,267.5942,,,,,,138,MAS,NOWORD,DIS,150,pamo,,la,,0.5839,,267.5943,267.5944,-0.003045112,-0.392173258,0,0,0,,0,54,54,137,1,nene,,,,
,,,,,,6150dc583977d6a9c20da620,676192165fb32c2e1fb7aee6,67d1e8021599fb84cdea5199,2025-03-12_14h01.57.325,Tarea de decisión léxica,2024.2.5,MacIntel,64.1025641,,,,,,,,,,,,,,,,,,,,,,,267.5963,268.6109,a,1,0.3349,1,268.611,269.1104,,,,,,168,FEM,NOWORD,AGR,150,zifa,,la,,0.3349,,269.1125,269.1143,-0.003045112,-0.392173258,0,0,0,,0,55,55,167,1,jefa,,,,
,,,,,,6150dc583977d6a9c20da620,676192165fb32c2e1fb7aee6,67d1e8021599fb84cdea5199,2025-03-12_14h01.57.325,Tarea de decisión léxica,2024.2.5,MacIntel,64.1025641,,,,,,,,,,,,,,,,,,,,,,,269.1156,270.294,a,1,0.5075,1,270.2941,270.7944,,,,,,300,FEM,NOWORD,AGR,150,bosga,,la,,0.5075,,270.7944,270.7946,-0.003045112,-0.392173258,0,0,0,,0,56,56,299,1,bolsa,,,,
,,,,,,6150dc583977d6a9c20da620,676192165fb32c2e1fb7aee6,67d1e8021599fb84cdea5199,2025-03-12_14h01.57.325,Tarea de decisión léxica,2024.2.5,MacIntel,64.1025641,,,,,,,,,,,,,,,,,,,,,,,270.7966,272.2279,l,1,0.7541,1,272.228,272.7279,,,,,,399,MAS,WORD,AGR,150,techo,,el,,0.7541,,272.7279,272.7281,-0.003045112,-0.392173258,0,0,0,,0,57,57,398,1,serro,,,,
,,,,,,6150dc583977d6a9c20da620,676192165fb32c2e1fb7aee6,67d1e8021599fb84cdea5199,2025-03-12_14h01.57.325,Tarea de decisión léxica,2024.2.5,MacIntel,64.1025641,,,,,,,,,,,,,,,,,,,,,,,272.7301,273.4779,a,0,0.0698,0,273.4797,273.9779,,,,,,473,FEM,WORD,AGR,150,feria,,la,,0.0698,,273.978,273.9781,-0.003045112,-0.392173258,0,0,0,,0,58,58,472,1,felia,,,,
,,,,,,6150dc583977d6a9c20da620,676192165fb32c2e1fb7aee6,67d1e8021599fb84cdea5199,2025-03-12_14h01.57.325,Tarea de decisión léxica,2024.2.5,MacIntel,64.1025641,,,,,,,,,,,,,,,,,,,,,,,273.9801,275.1442,a,1,0.4869,1,275.1455,275.6447,,,,,,398,FEM,NOWORD,DIS,150,trigi,,el,,0.4869,,275.6469,275.6491,-0.003045112,-0.392173258,0,0,0,,0,59,59,397,1,tribu,,,,
,,,,,,6150dc583977d6a9c20da620,676192165fb32c2e1fb7aee6,67d1e8021599fb84cdea5199,2025-03-12_14h01.57.325,Tarea de decisión léxica,2024.2.5,MacIntel,64.1025641,,,,,,,,,,,,,,,,,,,,,,,275.6502,276.7612,a,1,0.4403,1,276.7612,277.2613,,,,,,126,MAS,NOWORD,DIS,150,vudo,,la,,0.4403,,277.2614,277.2614,-0.003045112,-0.392173258,0,0,0,,0,60,60,125,1,lujo,,,,
,,,,,,6150dc583977d6a9c20da620,676192165fb32c2e1fb7aee6,67d1e8021599fb84cdea5199,2025-03-12_14h01.57.325,Tarea de decisión léxica,2024.2.5,MacIntel,64.1025641,,,,,,,,,,,,,,,,,,,,,,,277.2626,278.4114,l,1,0.4722,1,278.4115,278.9116,,,,,,203,FEM,WORD,DIS,150,leña,,el,,0.4722,,278.9117,278.9118,-0.003045112,-0.392173258,0,0,0,,0,61,61,202,1,beja,,,,
,,,,,,6150dc583977d6a9c20da620,676192165fb32c2e1fb7aee6,67d1e8021599fb84cdea5199,2025-03-12_14h01.57.325,Tarea de decisión léxica,2024.2.5,MacIntel,64.1025641,,,,,,,,,,,,,,,,,,,,,,,278.9138,280.0784,l,1,0.4829,1,280.0785,280.5778,,,,,,43,FEM,WORD,DIS,150,pena,,el,,0.4829,,280.5779,280.578,-0.003045112,-0.392173258,0,0,0,,0,62,62,42,1,meda,,,,
,,,,,,6150dc583977d6a9c20da620,676192165fb32c2e1fb7aee6,67d1e8021599fb84cdea5199,2025-03-12_14h01.57.325,Tarea de decisión léxica,2024.2.5,MacIntel,64.1025641,,,,,,,,,,,,,,,,,,,,,,,280.58,281.6784,a,1,0.4192,1,281.6785,282.1786,,,,,,178,MAS,NOWORD,DIS,150,bito,,la,,0.4192,,282.1787,282.1788,-0.003045112,-0.392173258,0,0,0,,0,63,63,177,1,reto,,,,
,,,,,,6150dc583977d6a9c20da620,676192165fb32c2e1fb7aee6,67d1e8021599fb84cdea5199,2025-03-12_14h01.57.325,Tarea de decisión léxica,2024.2.5,MacIntel,64.1025641,,,,,,,,,,,,,,,,,,,,,,,282.1806,283.3446,a,1,0.4863,1,283.3446,283.8445,,,,,,194,FEM,NOWORD,DIS,150,foda,,el,,0.4863,,283.8461,283.8482,-0.003045112,-0.392173258,0,0,0,,0,64,64,193,1,loca,,,,
,,,,,,6150dc583977d6a9c20da620,676192165fb32c2e1fb7aee6,67d1e8021599fb84cdea5199,2025-03-12_14h01.57.325,Tarea de decisión léxica,2024.2.5,MacIntel,64.1025641,,,,,,,,,,,,,,,,,,,,,,,283.8499,285.5624,l,1,1.042,1,285.5627,286.0621,,,,,,115,FEM,WORD,DIS,150,pata,,el,,1.042,,286.0622,286.0623,-0.003045112,-0.392173258,0,0,0,,0,65,65,114,1,haca,,,,
,,,,,,6150dc583977d6a9c20da620,676192165fb32c2e1fb7aee6,67d1e8021599fb84cdea5199,2025-03-12_14h01.57.325,Tarea de decisión léxica,2024.2.5,MacIntel,64.1025641,,,,,,,,,,,,,,,,,,,,,,,286.0646,287.1619,l,1,0.423,1,287.162,287.6623,,,,,,439,FEM,WORD,DIS,150,presa,,el,,0.423,,287.6623,287.6625,-0.003045112,-0.392173258,0,0,0,,0,66,66,438,1,prema,,,,
,,,,,,6150dc583977d6a9c20da620,676192165fb32c2e1fb7aee6,67d1e8021599fb84cdea5199,2025-03-12_14h01.57.325,Tarea de decisión léxica,2024.2.5,MacIntel,64.1025641,,,,,,,,,,,,,,,,,,,,,,,287.6644,288.9619,a,1,0.6234,1,288.9624,289.4623,,,,,,244,MAS,NOWORD,AGR,150,asamo,,el,,0.6234,,289.4623,289.4625,-0.003045112,-0.392173258,0,0,0,,0,67,67,243,1,amigo,,,,
,,,,,,6150dc583977d6a9c20da620,676192165fb32c2e1fb7aee6,67d1e8021599fb84cdea5199,2025-03-12_14h01.57.325,Tarea de decisión léxica,2024.2.5,MacIntel,64.1025641,,,,,,,,,,,,,,,,,,,,,,,289.4648,290.7958,a,1,0.6512,1,290.7958,291.2958,,,,,,396,FEM,NOWORD,AGR,150,paeda,,la,,0.6512,,291.2959,291.2961,-0.003045112,-0.392173258,0,0,0,,0,68,68,395,1,caída,,,,
,,,,,,6150dc583977d6a9c20da620,676192165fb32c2e1fb7aee6,67d1e8021599fb84cdea5199,2025-03-12_14h01.57.325,Tarea de decisión léxica,2024.2.5,MacIntel,64.1025641,,,,,,,,,,,,,,,,,,,,,,,291.298,292.5784,l,1,0.6041,1,292.5786,293.0792,,,,,,187,MAS,WORD,AGR,150,mito,,el,,0.6041,,293.0817,293.0834,-0.003045112,-0.392173258,0,0,0,,0,69,69,186,1,suto,,,,
,,,,,,6150dc583977d6a9c20da620,676192165fb32c2e1fb7aee6,67d1e8021599fb84cdea5199,2025-03-12_14h01.57.325,Tarea de decisión léxica,2024.2.5,MacIntel,64.1025641,,,,,,,,,,,,,,,,,,,,,,,293.0845,294.5127,l,1,0.7511,1,294.5128,295.0131,,,,,,417,FEM,WORD,AGR,150,barba,,la,,0.7511,,295.0132,295.0135,-0.003045112,-0.392173258,0,0,0,,0,70,70,416,1,banja,,,,
,,,,,,6150dc583977d6a9c20da620,676192165fb32c2e1fb7aee6,67d1e8021599fb84cdea5199,2025-03-12_14h01.57.325,Tarea de decisión léxica,2024.2.5,MacIntel,64.1025641,,,,,,,,,,,,,,,,,,,,,,,295.0154,296.5794,a,1,0.8866,1,296.5794,297.0813,,,,,,428,FEM,NOWORD,AGR,150,oseva,,la,,0.8866,,297.0813,297.0814,-0.003045112,-0.392173258,0,0,0,,0,71,71,427,1,oreja,,,,
,,,,,,6150dc583977d6a9c20da620,676192165fb32c2e1fb7aee6,67d1e8021599fb84cdea5199,2025-03-12_14h01.57.325,Tarea de decisión léxica,2024.2.5,MacIntel,64.1025641,,,,,,,,,,,,,,,,,,,,,,,297.083,298.1794,l,1,0.4196,1,298.1795,298.6797,,,,,,365,FEM,WORD,DIS,150,ducha,,el,,0.4196,,298.6798,298.6799,-0.003045112,-0.392173258,0,0,0,,0,72,72,364,1,gulla,,,,
,,,,,,6150dc583977d6a9c20da620,676192165fb32c2e1fb7aee6,67d1e8021599fb84cdea5199,2025-03-12_14h01.57.325,Tarea de decisión léxica,2024.2.5,MacIntel,64.1025641,,,,,,,,,,,,,,,,,,,,,,,298.6815,299.8954,l,1,0.538,1,299.8954,300.3963,,,,,,271,FEM,WORD,AGR,150,señal,,la,,0.538,,300.3964,300.3966,-0.003045112,-0.392173258,0,0,0,,0,73,73,270,1,refal,,,,
,,,,,,6150dc583977d6a9c20da620,676192165fb32c2e1fb7aee6,67d1e8021599fb84cdea5199,2025-03-12_14h01.57.325,Tarea de decisión léxica,2024.2.5,MacIntel,64.1025641,,,,,,,,,,,,,,,,,,,,,,,300.3984,301.513,a,1,0.4367,1,301.5131,302.0128,,,,,,34,FEM,NOWORD,DIS,150,loda,,el,,0.4367,,302.015,302.0169,-0.003045112,-0.392173258,0,0,0,,0,74,74,33,1,boca,,,,
,,,,,,6150dc583977d6a9c20da620,676192165fb32c2e1fb7aee6,67d1e8021599fb84cdea5199,2025-03-12_14h01.57.325,Tarea de decisión léxica,2024.2.5,MacIntel,64.1025641,,,,,,,,,,,,,,,,,,,,,,,302.0182,303.1633,a,1,0.467,1,303.1635,303.6631,,,,,,246,FEM,NOWORD,DIS,150,pafle,,el,,0.467,,303.6631,303.6632,-0.003045112,-0.392173258,0,0,0,,0,75,75,245,1,madre,,,,
,,,,,,6150dc583977d6a9c20da620,676192165fb32c2e1fb7aee6,67d1e8021599fb84cdea5199,2025-03-12_14h01.57.325,Tarea de decisión léxica,2024.2.5,MacIntel,64.1025641,,,,,,,,,,,,,,,,,,,,,,,303.6646,304.7971,l,1,0.4561,1,304.7971,305.2963,,,,,,265,FEM,WORD,DIS,150,mitad,,el,,0.4561,,305.2964,305.2966,-0.003045112,-0.392173258,0,0,0,,0,76,76,264,1,pitat,,,,
,,,,,,6150dc583977d6a9c20da620,676192165fb32c2e1fb7aee6,67d1e8021599fb84cdea5199,2025-03-12_14h01.57.325,Tarea de decisión léxica,2024.2.5,MacIntel,64.1025641,,,,,,,,,,,,,,,,,,,,,,,305.2984,306.2461,l,1,0.2735,1,306.2462,306.7469,,,,,,5,FEM,WORD,AGR,150,cosa,,la,,0.2735,,306.747,306.7471,-0.003045112,-0.392173258,0,0,0,,0,77,77,4,1,poga,,,,
,,,,,,6150dc583977d6a9c20da620,676192165fb32c2e1fb7aee6,67d1e8021599fb84cdea5199,2025-03-12_14h01.57.325,Tarea de decisión léxica,2024.2.5,MacIntel,64.1025641,,,,,,,,,,,,,,,,,,,,,,,306.749,307.797,a,1,0.3689,1,307.7971,308.2965,,,,,,92,FEM,NOWORD,AGR,150,sava,,la,,0.3689,,308.2966,308.2967,-0.003045112,-0.392173258,0,0,0,,0,78,78,91,1,taza,,,,
,,,,,,6150dc583977d6a9c20da620,676192165fb32c2e1fb7aee6,67d1e8021599fb84cdea5199,2025-03-12_14h01.57.325,Tarea de decisión léxica,2024.2.5,MacIntel,64.1025641,,,,,,,,,,,,,,,,,,,,,,,308.2986,309.3151,l,1,0.3403,1,309.3152,309.8139,,,,,,31,FEM,WORD,AGR,150,ropa,,la,,0.3403,,309.8162,309.818,-0.003045112,-0.392173258,0,0,0,,0,79,79,30,1,bova,,,,
,,,,,,6150dc583977d6a9c20da620,676192165fb32c2e1fb7aee6,67d1e8021599fb84cdea5199,2025-03-12_14h01.57.325,Tarea de decisión léxica,2024.2.5,MacIntel,64.1025641,,,,,,,,,,,,,,,,,,,,,,,309.8191,311.03,a,1,0.5352,1,311.0301,311.5305,,,,,,190,MAS,NOWORD,DIS,150,muvo,,la,,0.5352,,311.5306,311.5307,-0.003045112,-0.392173258,0,0,0,,0,80,80,189,1,puño,,,,
,,,,,,6150dc583977d6a9c20da620,676192165fb32c2e1fb7aee6,67d1e8021599fb84cdea5199,2025-03-12_14h01.57.325,Tarea de decisión léxica,2024.2.5,MacIntel,64.1025641,,,,,,,,,,,,,,,,,,,,,,,311.5326,312.9803,a,1,0.7674,1,312.9804,313.4807,,,,,,388,FEM,NOWORD,AGR,150,bresa,,la,,0.7674,,313.4808,313.481,-0.003045112,-0.392173258,0,0,0,,0,81,81,387,1,crema,,,,
,,,,,,6150dc583977d6a9c20da620,676192165fb32c2e1fb7aee6,67d1e8021599fb84cdea5199,2025-03-12_14h01.57.325,Tarea de decisión léxica,2024.2.5,MacIntel,64.1025641,,,,,,,,,,,,,,,,,,,,,,,313.483,314.5966,l,1,0.4364,1,314.5967,315.0972,,,,,,285,MAS,WORD,DIS,150,error,,la,,0.4364,,315.0974,315.0975,-0.003045112,-0.392173258,0,0,0,,0,82,82,284,1,echor,,,,
,,,,,,6150dc583977d6a9c20da620,676192165fb32c2e1fb7aee6,67d1e8021599fb84cdea5199,2025-03-12_14h01.57.325,Tarea de decisión léxica,2024.2.5,MacIntel,64.1025641,,,,,,,,,,,,,,,,,,,,,,,315.0994,316.2968,a,1,0.5224,1,316.2969,316.7977,,,,,,404,FEM,NOWORD,AGR,150,grisa,,la,,0.5224,,316.8,316.802,-0.003045112,-0.392173258,0,0,0,,0,83,83,403,1,prima,,,,
,,,,,,6150dc583977d6a9c20da620,676192165fb32c2e1fb7aee6,67d1e8021599fb84cdea5199,2025-03-12_14h01.57.325,Tarea de decisión léxica,2024.2.5,MacIntel,64.1025641,,,,,,,,,,,,,,,,,,,,,,,316.8031,317.7969,l,1,0.3202,1,317.7971,318.2978,,,,,,409,MAS,WORD,AGR,150,carro,,el,,0.3202,,318.2978,318.2979,-0.003045112,-0.392173258,0,0,0,,0,84,84,408,1,pafro,,,,
,,,,,,6150dc583977d6a9c20da620,676192165fb32c2e1fb7aee6,67d1e8021599fb84cdea5199,2025-03-12_14h01.57.325,Tarea de decisión léxica,2024.2.5,MacIntel,64.1025641,,,,,,,,,,,,,,,,,,,,,,,318.3001,319.4968,a,1,0.5209,1,319.4968,319.9978,,,,,,270,MAS,NOWORD,DIS,150,mello,,la,,0.5209,,319.9978,319.9979,-0.003045112,-0.392173258,0,0,0,,0,85,85,269,1,perro,,,,
,,,,,,6150dc583977d6a9c20da620,676192165fb32c2e1fb7aee6,67d1e8021599fb84cdea5199,2025-03-12_14h01.57.325,Tarea de decisión léxica,2024.2.5,MacIntel,64.1025641,,,,,,,,,,,,,,,,,,,,,,,319.9998,321.1305,a,1,0.4519,1,321.1306,321.6307,,,,,,8,MAS,NOWORD,AGR,150,nivo,,el,,0.4519,,321.6307,321.6309,-0.003045112,-0.392173258,0,0,0,,0,86,86,7,1,hijo,,,,
,,,,,,6150dc583977d6a9c20da620,676192165fb32c2e1fb7aee6,67d1e8021599fb84cdea5199,2025-03-12_14h01.57.325,Tarea de decisión léxica,2024.2.5,MacIntel,64.1025641,,,,,,,,,,,,,,,,,,,,,,,321.6328,322.7808,a,1,0.4707,1,322.7809,323.2811,,,,,,292,FEM,NOWORD,AGR,150,mesta,,la,,0.4707,,323.2812,323.2814,-0.003045112,-0.392173258,0,0,0,,0,87,87,291,1,pista,,,,
,,,,,,6150dc583977d6a9c20da620,676192165fb32c2e1fb7aee6,67d1e8021599fb84cdea5199,2025-03-12_14h01.57.325,Tarea de decisión léxica,2024.2.5,MacIntel,64.1025641,,,,,,,,,,,,,,,,,,,,,,,323.2832,324.4309,l,1,0.4696,1,324.4311,324.9314,,,,,,29,MAS,WORD,AGR,150,modo,,el,,0.4696,,324.9331,324.9349,-0.003045112,-0.392173258,0,0,0,,0,88,88,28,1,pono,,,,
,,,,,,6150dc583977d6a9c20da620,676192165fb32c2e1fb7aee6,67d1e8021599fb84cdea5199,2025-03-12_14h01.57.325,Tarea de decisión léxica,2024.2.5,MacIntel,64.1025641,,,,,,,,,,,,,,,,,,,,,,,324.9356,326.048,a,1,0.4345,1,326.0481,326.5482,,,,,,114,FEM,NOWORD,DIS,150,tada,,el,,0.4345,,326.5483,326.5484,-0.003045112,-0.392173258,0,0,0,,0,89,89,113,1,miel,,,,
,,,,,,6150dc583977d6a9c20da620,676192165fb32c2e1fb7aee6,67d1e8021599fb84cdea5199,2025-03-12_14h01.57.325,Tarea de decisión léxica,2024.2.5,MacIntel,64.1025641,,,,,,,,,,,,,,,,,,,,,,,326.5502,327.7149,l,1,0.488,1,327.715,328.2142,,,,,,235,FEM,WORD,DIS,150,grúa,,el,,0.488,,328.2143,328.2145,-0.003045112,-0.392173258,0,0,0,,0,90,90,234,1,tria,,,,
,,,,,,6150dc583977d6a9c20da620,676192165fb32c2e1fb7aee6,67d1e8021599fb84cdea5199,2025-03-12_14h01.57.325,Tarea de decisión léxica,2024.2.5,MacIntel,64.1025641,,,,,,,,,,,,,,,,,,,,,,,328.2158,329.3984,a,1,0.5011,1,329.3985,329.8985,,,,,,94,FEM,NOWORD,DIS,150,rona,,el,,0.5011,,329.8986,329.8987,-0.003045112,-0.392173258,0,0,0,,0,91,91,93,1,bola,,,,
,,,,,,6150dc583977d6a9c20da620,676192165fb32c2e1fb7aee6,67d1e8021599fb84cdea5199,2025-03-12_14h01.57.325,Tarea de decisión léxica,2024.2.5,MacIntel,64.1025641,,,,,,,,,,,,,,,,,,,,,,,329.9006,331.0816,a,1,0.5021,1,331.0817,331.582,,,,,,122,MAS,NOWORD,DIS,150,bomo,,la,,0.5021,,331.5821,331.5822,-0.003045112,-0.392173258,0,0,0,,0,92,92,121,1,hoyo,,,,
,,,,,,6150dc583977d6a9c20da620,676192165fb32c2e1fb7aee6,67d1e8021599fb84cdea5199,2025-03-12_14h01.57.325,Tarea de decisión léxica,2024.2.5,MacIntel,64.1025641,,,,,,,,,,,,,,,,,,,,,,,331.5841,332.7154,l,1,0.4511,1,332.7154,333.2154,,,,,,429,FEM,WORD,DIS,150,tarta,,el,,0.4511,,333.2175,333.2194,-0.003045112,-0.392173258,0,0,0,,0,93,93,428,1,tenta,,,,
,,,,,,6150dc583977d6a9c20da620,676192165fb32c2e1fb7aee6,67d1e8021599fb84cdea5199,2025-03-12_14h01.57.325,Tarea de decisión léxica,2024.2.5,MacIntel,64.1025641,,,,,,,,,,,,,,,,,,,,,,,333.2206,334.3179,l,1,0.4247,1,334.3184,334.8155,,,,,,287,FEM,WORD,DIS,150,lista,,el,,0.4247,,334.8156,334.8158,-0.003045112,-0.392173258,0,0,0,,0,94,94,286,1,fosta,,,,
,,,,,,6150dc583977d6a9c20da620,676192165fb32c2e1fb7aee6,67d1e8021599fb84cdea5199,2025-03-12_14h01.57.325,Tarea de decisión léxica,2024.2.5,MacIntel,64.1025641,,,,,,,,,,,,,,,,,,,,,,,334.8179,335.8824,a,1,0.3885,1,335.8825,336.3824,,,,,,376,FEM,NOWORD,AGR,150,sasna,,la,,0.3885,,336.3825,336.3826,-0.003045112,-0.392173258,0,0,0,,0,95,95,375,1,salsa,,,,
,,,,,,6150dc583977d6a9c20da620,676192165fb32c2e1fb7aee6,67d1e8021599fb84cdea5199,2025-03-12_14h01.57.325,Tarea de decisión léxica,2024.2.5,MacIntel,64.1025641,,,,,,,,,,,,,,,,,,,,,,,336.384,337.4324,l,1,0.3684,1,337.4326,337.9324,,,,,,145,MAS,WORD,AGR,150,león,,el,,0.3684,,337.9324,337.9326,-0.003045112,-0.392173258,0,0,0,,0,96,96,144,1,nobo,,,,
,,,,,,6150dc583977d6a9c20da620,676192165fb32c2e1fb7aee6,67d1e8021599fb84cdea5199,2025-03-12_14h01.57.325,Tarea de decisión léxica,2024.2.5,MacIntel,64.1025641,,,,,,,,,,,,,,,,,,,,,,,337.9339,338.9652,a,1,0.3552,1,338.9653,339.4654,,,,,,134,FEM,NOWORD,DIS,150,vesa,,el,,0.3552,,339.4654,339.4655,-0.003045112,-0.392173258,0,0,0,,0,97,97,133,1,vaca,,,,
,,,,,,6150dc583977d6a9c20da620,676192165fb32c2e1fb7aee6,67d1e8021599fb84cdea5199,2025-03-12_14h01.57.325,Tarea de decisión léxica,2024.2.5,MacIntel,64.1025641,,,,,,,,,,,,,,,,,,,,,,,339.4668,340.6158,a,1,0.4675,1,340.6159,341.1157,,,,,,326,FEM,NOWORD,DIS,150,mabia,,el,,0.4675,,341.1179,341.1201,-0.003045112,-0.392173258,0,0,0,,0,98,98,325,1,magia,,,,
,,,,,,6150dc583977d6a9c20da620,676192165fb32c2e1fb7aee6,67d1e8021599fb84cdea5199,2025-03-12_14h01.57.325,Tarea de decisión léxica,2024.2.5,MacIntel,64.1025641,,,,,,,,,,,,,,,,,,,,,,,341.1213,342.182,a,1,0.3894,1,342.1822,342.6825,,,,,,160,MAS,NOWORD,AGR,150,bilo,,el,,0.3894,,342.6826,342.6827,-0.003045112,-0.392173258,0,0,0,,0,99,99,159,1,giro,,,,
,,,,,,6150dc583977d6a9c20da620,676192165fb32c2e1fb7aee6,67d1e8021599fb84cdea5199,2025-03-12_14h01.57.325,Tarea de decisión léxica,2024.2.5,MacIntel,64.1025641,,,,,,,,,,,,,,,,,,,,,,,342.6859,343.7151,a,1,0.3536,1,343.7151,344.2159,,,,,,84,FEM,NOWORD,AGR,150,taga,,la,,0.3536,,344.216,344.2161,-0.003045112,-0.392173258,0,0,0,,0,100,100,83,1,bala,,,,
,,,,,,6150dc583977d6a9c20da620,676192165fb32c2e1fb7aee6,67d1e8021599fb84cdea5199,2025-03-12_14h01.57.325,Tarea de decisión léxica,2024.2.5,MacIntel,64.1025641,,,,,,,,,,,,,,,,,,,,,,,344.2175,345.335,l,1,0.4441,1,345.3352,345.8328,,,,,,103,FEM,WORD,AGR,150,ruta,,la,,0.4441,,345.8329,345.8329,-0.003045112,-0.392173258,0,0,0,,0,101,101,102,1,rova,,,,
,,,,,,6150dc583977d6a9c20da620,676192165fb32c2e1fb7aee6,67d1e8021599fb84cdea5199,2025-03-12_14h01.57.325,Tarea de decisión léxica,2024.2.5,MacIntel,64.1025641,,,,,,,,,,,,,,,,,,,,,,,345.8349,346.9328,l,1,0.4191,1,346.9329,347.4334,,,,,,283,MAS,WORD,AGR,150,sueño,,el,,0.4191,,347.4335,347.4339,-0.003045112,-0.392173258,0,0,0,,0,102,102,282,1,tuevo,,,,
,,,,,,6150dc583977d6a9c20da620,676192165fb32c2e1fb7aee6,67d1e8021599fb84cdea5199,2025-03-12_14h01.57.325,Tarea de decisión léxica,2024.2.5,MacIntel,64.1025641,,,,,,,,,,,,,,,,,,,,,,,347.4355,348.6164,l,1,0.5038,1,348.6165,349.1165,,,,,,151,MAS,WORD,AGR,150,tomo,,el,,0.5038,,349.1185,349.1206,-0.003045112,-0.392173258,0,0,0,,0,103,103,150,1,sogo,,,,
,,,,,,6150dc583977d6a9c20da620,676192165fb32c2e1fb7aee6,67d1e8021599fb84cdea5199,2025-03-12_14h01.57.325,Tarea de decisión léxica,2024.2.5,MacIntel,64.1025641,,,,,,,,,,,,,,,,,,,,,,,349.1219,350.2332,a,1,0.4391,1,350.2333,350.7334,,,,,,434,MAS,NOWORD,DIS,150,durco,,la,,0.4391,,350.7335,350.7335,-0.003045112,-0.392173258,0,0,0,,0,104,104,433,1,disco,,,,
,,,,,,6150dc583977d6a9c20da620,676192165fb32c2e1fb7aee6,67d1e8021599fb84cdea5199,2025-03-12_14h01.57.325,Tarea de decisión léxica,2024.2.5,MacIntel,64.1025641,,,,,,,,,,,,,,,,,,,,,,,350.7355,351.9998,a,1,0.5846,1,351.9999,352.4997,,,,,,58,MAS,NOWORD,DIS,150,heco,,la,,0.5846,,352.4997,352.4997,-0.003045112,-0.392173258,0,0,0,,0,105,105,57,1,dedo,,,,
,,,,,,6150dc583977d6a9c20da620,676192165fb32c2e1fb7aee6,67d1e8021599fb84cdea5199,2025-03-12_14h01.57.325,Tarea de decisión léxica,2024.2.5,MacIntel,64.1025641,,,,,,,,,,,,,,,,,,,,,,,352.5009,353.5666,a,1,0.3855,1,353.5666,354.0664,,,,,,210,MAS,NOWORD,DIS,150,dero,,la,,0.3855,,354.0664,354.0665,-0.003045112,-0.392173258,0,0,0,,0,106,106,209,1,velo,,,,
,,,,,,6150dc583977d6a9c20da620,676192165fb32c2e1fb7aee6,67d1e8021599fb84cdea5199,2025-03-12_14h01.57.325,Tarea de decisión léxica,2024.2.5,MacIntel,64.1025641,,,,,,,,,,,,,,,,,,,,,,,354.0685,355.1334,a,1,0.3858,1,355.1335,355.6336,,,,,,14,FEM,NOWORD,DIS,150,nola,,el,,0.3858,,355.6357,355.6375,-0.003045112,-0.392173258,0,0,0,,0,107,107,13,1,hora,,,,
,,,,,,6150dc583977d6a9c20da620,676192165fb32c2e1fb7aee6,67d1e8021599fb84cdea5199,2025-03-12_14h01.57.325,Tarea de decisión léxica,2024.2.5,MacIntel,64.1025641,,,,,,,,,,,,,,,,,,,,,,,355.6387,356.6664,l,1,0.3513,1,356.6665,357.167,,,,,,313,MAS,WORD,DIS,150,novio,,la,,0.3513,,357.167,357.1672,-0.003045112,-0.392173258,0,0,0,,0,108,108,312,1,govio,,,,
,,,,,,6150dc583977d6a9c20da620,676192165fb32c2e1fb7aee6,67d1e8021599fb84cdea5199,2025-03-12_14h01.57.325,Tarea de decisión léxica,2024.2.5,MacIntel,64.1025641,,,,,,,,,,,,,,,,,,,,,,,357.169,358.3671,a,1,0.5186,1,358.3671,358.867,,,,,,204,FEM,NOWORD,AGR,150,beja,,la,,0.5186,,358.867,358.8671,-0.003045112,-0.392173258,0,0,0,,0,109,109,203,1,leña,,,,
,,,,,,6150dc583977d6a9c20da620,676192165fb32c2e1fb7aee6,67d1e8021599fb84cdea5199,2025-03-12_14h01.57.325,Tarea de decisión léxica,2024.2.5,MacIntel,64.1025641,,,,,,,,,,,,,,,,,,,,,,,358.8689,360.1172,a,1,0.5668,1,360.1173,360.617,,,,,,130,MAS,NOWORD,DIS,150,pima,,la,,0.5668,,360.6172,360.6172,-0.003045112,-0.392173258,0,0,0,,0,110,110,129,1,oído,,,,
,,,,,,6150dc583977d6a9c20da620,676192165fb32c2e1fb7aee6,67d1e8021599fb84cdea5199,2025-03-12_14h01.57.325,Tarea de decisión léxica,2024.2.5,MacIntel,64.1025641,,,,,,,,,,,,,,,,,,,,,,,360.6192,361.6501,a,0,0.3539,0,361.652,362.1506,,,,,,197,MAS,WORD,AGR,150,bate,,el,,0.3539,,362.1506,362.1507,-0.003045112,-0.392173258,0,0,0,,0,111,111,196,1,dade,,,,
,,,,,,6150dc583977d6a9c20da620,676192165fb32c2e1fb7aee6,67d1e8021599fb84cdea5199,2025-03-12_14h01.57.325,Tarea de decisión léxica,2024.2.5,MacIntel,64.1025641,,,,,,,,,,,,,,,,,,,,,,,362.1527,363.4507,l,1,0.6215,1,363.4521,363.9509,,,,,,443,MAS,WORD,AGR,150,salón,,el,,0.6215,,363.9528,363.955,-0.003045112,-0.392173258,0,0,0,,0,112,112,442,1,taron,,,,
,,,,,,6150dc583977d6a9c20da620,676192165fb32c2e1fb7aee6,67d1e8021599fb84cdea5199,2025-03-12_14h01.57.325,Tarea de decisión léxica,2024.2.5,MacIntel,64.1025641,,,,,,,,,,,,,,,,,,,,,,,363.9561,365.2343,a,1,0.6062,1,365.2343,365.7338,,,,,,368,MAS,NOWORD,AGR,150,rerob,,el,,0.6062,,365.7338,365.734,-0.003045112,-0.392173258,0,0,0,,0,113,113,367,1,reloj,,,,
,,,,,,6150dc583977d6a9c20da620,676192165fb32c2e1fb7aee6,67d1e8021599fb84cdea5199,2025-03-12_14h01.57.325,Tarea de decisión léxica,2024.2.5,MacIntel,64.1025641,,,,,,,,,,,,,,,,,,,,,,,365.7358,366.8518,a,1,0.4415,1,366.8521,367.351,,,,,,72,FEM,NOWORD,AGR,150,urla,,la,,0.4415,,367.3511,367.3512,-0.003045112,-0.392173258,0,0,0,,0,114,114,71,1,isla,,,,
,,,,,,6150dc583977d6a9c20da620,676192165fb32c2e1fb7aee6,67d1e8021599fb84cdea5199,2025-03-12_14h01.57.325,Tarea de decisión léxica,2024.2.5,MacIntel,64.1025641,,,,,,,,,,,,,,,,,,,,,,,367.3531,368.5845,a,1,0.5543,1,368.5845,369.0848,,,,,,218,MAS,NOWORD,DIS,150,budo,,la,,0.5543,,369.0849,369.0849,-0.003045112,-0.392173258,0,0,0,,0,115,115,217,1,luto,,,,
,,,,,,6150dc583977d6a9c20da620,676192165fb32c2e1fb7aee6,67d1e8021599fb84cdea5199,2025-03-12_14h01.57.325,Tarea de decisión léxica,2024.2.5,MacIntel,64.1025641,,,,,,,,,,,,,,,,,,,,,,,369.0869,370.2179,a,1,0.4506,1,370.2181,370.7174,,,,,,290,FEM,NOWORD,DIS,150,bumpa,,el,,0.4506,,370.7176,370.7176,-0.003045112,-0.392173258,0,0,0,,0,116,116,289,1,bomba,,,,
,,,,,,6150dc583977d6a9c20da620,676192165fb32c2e1fb7aee6,67d1e8021599fb84cdea5199,2025-03-12_14h01.57.325,Tarea de decisión léxica,2024.2.5,MacIntel,64.1025641,,,,,,,,,,,,,,,,,,,,,,,370.7188,371.8345,l,1,0.4355,1,371.8347,372.3348,,,,,,191,FEM,WORD,DIS,150,pila,,el,,0.4355,,372.3368,372.3387,-0.003045112,-0.392173258,0,0,0,,0,117,117,190,1,bila,,,,
,,,,,,6150dc583977d6a9c20da620,676192165fb32c2e1fb7aee6,67d1e8021599fb84cdea5199,2025-03-12_14h01.57.325,Tarea de decisión léxica,2024.2.5,MacIntel,64.1025641,,,,,,,,,,,,,,,,,,,,,,,372.34,373.6171,a,1,0.6,1,373.6171,374.1182,,,,,,112,MAS,NOWORD,AGR,150,siro,,el,,0.6,,374.1183,374.1183,-0.003045112,-0.392173258,0,0,0,,0,118,118,111,1,muro,,,,
,,,,,,6150dc583977d6a9c20da620,676192165fb32c2e1fb7aee6,67d1e8021599fb84cdea5199,2025-03-12_14h01.57.325,Tarea de decisión léxica,2024.2.5,MacIntel,64.1025641,,,,,,,,,,,,,,,,,,,,,,,374.1204,375.2349,l,1,0.4377,1,375.235,375.735,,,,,,435,MAS,WORD,DIS,150,ritmo,,la,,0.4377,,375.735,375.7352,-0.003045112,-0.392173258,0,0,0,,0,119,119,434,1,ricno,,,,
,,,,,,6150dc583977d6a9c20da620,676192165fb32c2e1fb7aee6,67d1e8021599fb84cdea5199,2025-03-12_14h01.57.325,Tarea de decisión léxica,2024.2.5,MacIntel,64.1025641,,,,,,,,,,,,,,,,,,,,,,,375.7371,376.9851,a,1,0.5675,1,376.9851,377.4851,,,,,,456,MAS,NOWORD,AGR,150,riaso,,el,,0.5675,,377.4852,377.4852,-0.003045112,-0.392173258,0,0,0,,0,120,120,455,1,reino,,,,
,,,,,,6150dc583977d6a9c20da620,676192165fb32c2e1fb7aee6,67d1e8021599fb84cdea5199,2025-03-12_14h01.57.325,Tarea de decisión léxica,2024.2.5,MacIntel,64.1025641,,,,,,,,,,,,,,,,,,,,,,,377.4871,378.5197,l,1,0.3569,1,378.5199,379.0186,,,,,,45,FEM,WORD,AGR,150,mesa,,la,,0.3569,,379.0188,379.0189,-0.003045112,-0.392173258,0,0,0,,0,121,121,44,1,pema,,,,
,,,,,,6150dc583977d6a9c20da620,676192165fb32c2e1fb7aee6,67d1e8021599fb84cdea5199,2025-03-12_14h01.57.325,Tarea de decisión léxica,2024.2.5,MacIntel,64.1025641,,,,,,,,,,,,,,,,,,,,,,,379.0211,380.1685,l,1,0.4671,1,380.1687,380.6685,,,,,,249,FEM,WORD,AGR,150,clase,,la,,0.4671,,380.6706,380.6726,-0.003045112,-0.392173258,0,0,0,,0,122,122,248,1,plane,,,,
,,,,,,6150dc583977d6a9c20da620,676192165fb32c2e1fb7aee6,67d1e8021599fb84cdea5199,2025-03-12_14h01.57.325,Tarea de decisión léxica,2024.2.5,MacIntel,64.1025641,,,,,,,,,,,,,,,,,,,,,,,380.6739,381.802,a,1,0.4541,1,381.8021,382.3021,,,,,,140,MAS,NOWORD,AGR,150,nila,,el,,0.4541,,382.3022,382.3023,-0.003045112,-0.392173258,0,0,0,,0,123,123,139,1,mago,,,,
,,,,,,6150dc583977d6a9c20da620,676192165fb32c2e1fb7aee6,67d1e8021599fb84cdea5199,2025-03-12_14h01.57.325,Tarea de decisión léxica,2024.2.5,MacIntel,64.1025641,,,,,,,,,,,,,,,,,,,,,,,382.3042,383.5522,l,1,0.5667,1,383.5522,384.0521,,,,,,173,FEM,WORD,DIS,150,rosa,,el,,0.5667,,384.0522,384.0523,-0.003045112,-0.392173258,0,0,0,,0,124,124,172,1,boma,,,,
,,,,,,6150dc583977d6a9c20da620,676192165fb32c2e1fb7aee6,67d1e8021599fb84cdea5199,2025-03-12_14h01.57.325,Tarea de decisión léxica,2024.2.5,MacIntel,64.1025641,,,,,,,,,,,,,,,,,,,,,,,384.0542,385.0517,a,0,0.3164,0,385.0527,385.5518,,,,,,125,MAS,WORD,DIS,150,lujo,,la,,0.3164,,385.5519,385.552,-0.003045112,-0.392173258,0,0,0,,0,125,125,124,1,vudo,,,,
,,,,,,6150dc583977d6a9c20da620,676192165fb32c2e1fb7aee6,67d1e8021599fb84cdea5199,2025-03-12_14h01.57.325,Tarea de decisión léxica,2024.2.5,MacIntel,64.1025641,,,,,,,,,,,,,,,,,,,,,,,385.5539,386.6855,l,1,0.456,1,386.6868,387.1857,,,,,,257,FEM,WORD,DIS,150,amiga,,el,,0.456,,387.1857,387.1859,-0.003045112,-0.392173258,0,0,0,,0,126,126,256,1,asama,,,,
,,,,,,6150dc583977d6a9c20da620,676192165fb32c2e1fb7aee6,67d1e8021599fb84cdea5199,2025-03-12_14h01.57.325,Tarea de decisión léxica,2024.2.5,MacIntel,64.1025641,,,,,,,,,,,,,,,,,,,,,,,387.1878,388.2515,a,1,0.3896,1,388.2516,388.7524,,,,,,68,FEM,NOWORD,AGR,150,gesa,,la,,0.3896,,388.7545,388.7566,-0.003045112,-0.392173258,0,0,0,,0,127,127,67,1,nena,,,,
,,,,,,6150dc583977d6a9c20da620,676192165fb32c2e1fb7aee6,67d1e8021599fb84cdea5199,2025-03-12_14h01.57.325,Tarea de decisión léxica,2024.2.5,MacIntel,64.1025641,,,,,,,,,,,,,,,,,,,,,,,388.7575,389.9024,a,1,0.4679,1,389.9024,390.4026,,,,,,128,MAS,NOWORD,AGR,150,itio,,el,,0.4679,,390.4027,390.4028,-0.003045112,-0.392173258,0,0,0,,0,128,128,127,1,pico,,,,
,,,,,,6150dc583977d6a9c20da620,676192165fb32c2e1fb7aee6,67d1e8021599fb84cdea5199,2025-03-12_14h01.57.325,Tarea de decisión léxica,2024.2.5,MacIntel,64.1025641,,,,,,,,,,,,,,,,,,,,,,,390.4048,391.4695,l,1,0.3862,1,391.4695,391.9694,,,,,,317,FEM,WORD,AGR,150,playa,,la,,0.3862,,391.9694,391.9695,-0.003045112,-0.392173258,0,0,0,,0,129,129,316,1,plaad,,,,
,,,,,,6150dc583977d6a9c20da620,676192165fb32c2e1fb7aee6,67d1e8021599fb84cdea5199,2025-03-12_14h01.57.325,Tarea de decisión léxica,2024.2.5,MacIntel,64.1025641,,,,,,,,,,,,,,,,,,,,,,,391.9714,393.1527,a,1,0.5053,1,393.1529,393.6529,,,,,,248,FEM,NOWORD,AGR,150,trida,,la,,0.5053,,393.653,393.6531,-0.003045112,-0.392173258,0,0,0,,0,130,130,247,1,chica,,,,
,,,,,,6150dc583977d6a9c20da620,676192165fb32c2e1fb7aee6,67d1e8021599fb84cdea5199,2025-03-12_14h01.57.325,Tarea de decisión léxica,2024.2.5,MacIntel,64.1025641,,,,,,,,,,,,,,,,,,,,,,,393.6547,394.8862,l,1,0.5574,1,394.8863,395.3862,,,,,,175,FEM,WORD,AGR,150,goma,,la,,0.5574,,395.3883,395.3902,-0.003045112,-0.392173258,0,0,0,,0,131,131,174,1,hosa,,,,
,,,,,,6150dc583977d6a9c20da620,676192165fb32c2e1fb7aee6,67d1e8021599fb84cdea5199,2025-03-12_14h01.57.325,Tarea de decisión léxica,2024.2.5,MacIntel,64.1025641,,,,,,,,,,,,,,,,,,,,,,,395.3914,396.6196,a,1,0.5543,1,396.6197,397.1197,,,,,,22,MAS,NOWORD,DIS,150,blan,,la,,0.5543,,397.1198,397.1199,-0.003045112,-0.392173258,0,0,0,,0,132,132,21,1,plan,,,,
,,,,,,6150dc583977d6a9c20da620,676192165fb32c2e1fb7aee6,67d1e8021599fb84cdea5199,2025-03-12_14h01.57.325,Tarea de decisión léxica,2024.2.5,MacIntel,64.1025641,,,,,,,,,,,,,,,,,,,,,,,397.1219,398.6199,a,1,0.818,1,398.62,399.1199,,,,,,196,FEM,NOWORD,AGR,150,sira,,la,,0.818,,399.1201,399.1202,-0.003045112,-0.392173258,0,0,0,,0,133,133,195,1,tela,,,,
,,,,,,6150dc583977d6a9c20da620,676192165fb32c2e1fb7aee6,67d1e8021599fb84cdea5199,2025-03-12_14h01.57.325,Tarea de decisión léxica,2024.2.5,MacIntel,64.1025641,,,,,,,,,,,,,,,,,,,,,,,399.1222,400.2532,l,1,0.4529,1,400.2533,400.7528,,,,,,147,FEM,WORD,AGR,150,hoja,,la,,0.4529,,400.7528,400.753,-0.003045112,-0.392173258,0,0,0,,0,134,134,146,1,pama,,,,
,,,,,,6150dc583977d6a9c20da620,676192165fb32c2e1fb7aee6,67d1e8021599fb84cdea5199,2025-03-12_14h01.57.325,Tarea de decisión léxica,2024.2.5,MacIntel,64.1025641,,,,,,,,,,,,,,,,,,,,,,,400.7549,401.9535,a,1,0.5177,1,401.9537,402.4534,,,,,,80,FEM,NOWORD,AGR,150,ciel,,la,,0.5177,,402.4535,402.4536,-0.003045112,-0.392173258,0,0,0,,0,135,135,79,1,piel,,,,
,,,,,,6150dc583977d6a9c20da620,676192165fb32c2e1fb7aee6,67d1e8021599fb84cdea5199,2025-03-12_14h01.57.325,Tarea de decisión léxica,2024.2.5,MacIntel,64.1025641,,,,,,,,,,,,,,,,,,,,,,,402.4555,403.7366,l,1,0.6177,1,403.7367,404.2368,,,,,,411,MAS,WORD,DIS,150,pollo,,la,,0.6177,,404.2389,404.2411,-0.003045112,-0.392173258,0,0,0,,0,136,136,410,1,mobro,,,,
,,,,,,6150dc583977d6a9c20da620,676192165fb32c2e1fb7aee6,67d1e8021599fb84cdea5199,2025-03-12_14h01.57.325,Tarea de decisión léxica,2024.2.5,MacIntel,64.1025641,,,,,,,,,,,,,,,,,,,,,,,404.2422,405.5369,a,1,0.6168,1,405.537,406.0393,,,,,,78,MAS,NOWORD,DIS,150,fodo,,la,,0.6168,,406.0394,406.0395,-0.003045112,-0.392173258,0,0,0,,0,137,137,77,1,loco,,,,
,,,,,,6150dc583977d6a9c20da620,676192165fb32c2e1fb7aee6,67d1e8021599fb84cdea5199,2025-03-12_14h01.57.325,Tarea de decisión léxica,2024.2.5,MacIntel,64.1025641,,,,,,,,,,,,,,,,,,,,,,,406.0416,407.3038,a,1,0.5847,1,407.304,407.8034,,,,,,446,MAS,NOWORD,DIS,150,ascor,,la,,0.5847,,407.8034,407.8035,-0.003045112,-0.392173258,0,0,0,,0,138,138,445,1,actor,,,,
,,,,,,6150dc583977d6a9c20da620,676192165fb32c2e1fb7aee6,67d1e8021599fb84cdea5199,2025-03-12_14h01.57.325,Tarea de decisión léxica,2024.2.5,MacIntel,64.1025641,,,,,,,,,,,,,,,,,,,,,,,407.8054,409.0873,l,1,0.6008,1,409.0874,409.5873,,,,,,305,MAS,WORD,AGR,150,avión,,el,,0.6008,,409.5873,409.5875,-0.003045112,-0.392173258,0,0,0,,0,139,139,304,1,adiol,,,,
,,,,,,6150dc583977d6a9c20da620,676192165fb32c2e1fb7aee6,67d1e8021599fb84cdea5199,2025-03-12_14h01.57.325,Tarea de decisión léxica,2024.2.5,MacIntel,64.1025641,,,,,,,,,,,,,,,,,,,,,,,409.5895,410.6722,l,1,0.4108,1,410.6723,411.1707,,,,,,101,MAS,WORD,AGR,150,tono,,el,,0.4108,,411.1708,411.1708,-0.003045112,-0.392173258,0,0,0,,0,140,140,100,1,gito,,,,
,,,,,,6150dc583977d6a9c20da620,676192165fb32c2e1fb7aee6,67d1e8021599fb84cdea5199,2025-03-12_14h01.57.325,Tarea de decisión léxica,2024.2.5,MacIntel,64.1025641,,,,,,,,,,,,,,,,,,,,,,,411.1729,412.2203,l,1,0.37,1,412.2204,412.721,,,,,,277,MAS,WORD,AGR,150,fuego,,el,,0.37,,412.723,412.7252,-0.003045112,-0.392173258,0,0,0,,0,141,141,276,1,vuemo,,,,
,,,,,,6150dc583977d6a9c20da620,676192165fb32c2e1fb7aee6,67d1e8021599fb84cdea5199,2025-03-12_14h01.57.325,Tarea de decisión léxica,2024.2.5,MacIntel,64.1025641,,,,,,,,,,,,,,,,,,,,,,,412.7264,413.8202,l,1,0.4211,1,413.8203,414.3209,,,,,,27,MAS,WORD,DIS,150,baño,,la,,0.4211,,414.321,414.3211,-0.003045112,-0.392173258,0,0,0,,0,142,142,26,1,ravo,,,,
,,,,,,6150dc583977d6a9c20da620,676192165fb32c2e1fb7aee6,67d1e8021599fb84cdea5199,2025-03-12_14h01.57.325,Tarea de decisión léxica,2024.2.5,MacIntel,64.1025641,,,,,,,,,,,,,,,,,,,,,,,414.323,415.7374,l,0,0.7354,0,415.7388,416.2373,,,,,,408,FEM,NOWORD,AGR,150,cauba,,la,,0.7354,,416.2373,416.2374,-0.003045112,-0.392173258,0,0,0,,0,143,143,407,1,cueva,,,,
,,,,,,6150dc583977d6a9c20da620,676192165fb32c2e1fb7aee6,67d1e8021599fb84cdea5199,2025-03-12_14h01.57.325,Tarea de decisión léxica,2024.2.5,MacIntel,64.1025641,,,,,,,,,,,,,,,,,,,,,,,416.2392,417.3885,a,1,0.4747,1,417.3901,417.8879,,,,,,30,MAS,NOWORD,DIS,150,pono,,la,,0.4747,,417.8879,417.888,-0.003045112,-0.392173258,0,0,0,,0,144,144,29,1,modo,,,,
,,,,,,6150dc583977d6a9c20da620,676192165fb32c2e1fb7aee6,67d1e8021599fb84cdea5199,2025-03-12_14h01.57.325,Tarea de decisión léxica,2024.2.5,MacIntel,64.1025641,,,,,,,,,,,,,,,,,,,,,,,417.89,419.2712,a,1,0.7058,1,419.2713,419.7716,,,,,,236,FEM,NOWORD,AGR,150,tria,,la,,0.7058,,419.7716,419.7717,-0.003045112,-0.392173258,0,0,0,,0,145,145,235,1,grúa,,,,
,,,,,,6150dc583977d6a9c20da620,676192165fb32c2e1fb7aee6,67d1e8021599fb84cdea5199,2025-03-12_14h01.57.325,Tarea de decisión léxica,2024.2.5,MacIntel,64.1025641,,,,,,,,,,,,,,,,,,,,,,,419.7736,421.0373,l,1,0.5846,1,421.0374,421.5381,,,,,,221,FEM,WORD,DIS,150,mula,,el,,0.5846,,421.5402,421.5423,-0.003045112,-0.392173258,0,0,0,,0,146,146,220,1,puca,,,,
,,,,,,6150dc583977d6a9c20da620,676192165fb32c2e1fb7aee6,67d1e8021599fb84cdea5199,2025-03-12_14h01.57.325,Tarea de decisión léxica,2024.2.5,MacIntel,64.1025641,,,,,,,,,,,,,,,,,,,,,,,421.5433,422.9213,l,1,0.7031,1,422.9214,423.4215,,,,,,329,MAS,WORD,DIS,150,hueso,,la,,0.7031,,423.4216,423.4217,-0.003045112,-0.392173258,0,0,0,,0,147,147,328,1,nueno,,,,
,,,,,,6150dc583977d6a9c20da620,676192165fb32c2e1fb7aee6,67d1e8021599fb84cdea5199,2025-03-12_14h01.57.325,Tarea de decisión léxica,2024.2.5,MacIntel,64.1025641,,,,,,,,,,,,,,,,,,,,,,,423.4236,424.7217,a,0,0.6169,0,424.7235,425.2216,,,,,,131,FEM,WORD,DIS,150,mina,,el,,0.6169,,425.2217,425.2219,-0.003045112,-0.392173258,0,0,0,,0,148,148,130,1,fada,,,,
,,,,,,6150dc583977d6a9c20da620,676192165fb32c2e1fb7aee6,67d1e8021599fb84cdea5199,2025-03-12_14h01.57.325,Tarea de decisión léxica,2024.2.5,MacIntel,64.1025641,,,,,,,,,,,,,,,,,,,,,,,425.224,426.7389,a,1,0.8346,1,426.7405,427.2384,,,,,,274,FEM,NOWORD,DIS,150,frosa,,el,,0.8346,,427.2385,427.2386,-0.003045112,-0.392173258,0,0,0,,0,149,149,273,1,broma,,,,
,,,,,,6150dc583977d6a9c20da620,676192165fb32c2e1fb7aee6,67d1e8021599fb84cdea5199,2025-03-12_14h01.57.325,Tarea de decisión léxica,2024.2.5,MacIntel,64.1025641,,,,,,,,,,,,,,,,,,,,,,,427.2404,428.3552,l,1,0.4347,1,428.3553,428.8552,,,,,,367,MAS,WORD,DIS,150,reloj,,la,,0.4347,,428.8552,428.8554,-0.003045112,-0.392173258,0,0,0,,0,150,150,366,1,rerob,,,,
,,,,,,6150dc583977d6a9c20da620,676192165fb32c2e1fb7aee6,67d1e8021599fb84cdea5199,2025-03-12_14h01.57.325,Tarea de decisión léxica,2024.2.5,MacIntel,64.1025641,,,,,,,,,,,,,,,,,,,,,,,428.8572,430.0055,l,1,0.475,1,430.0056,430.5053,,,,,,193,FEM,WORD,AGR,150,loca,,la,,0.475,,430.5075,430.5093,-0.003045112,-0.392173258,0,0,0,,0,151,151,192,1,foda,,,,
,,,,,,6150dc583977d6a9c20da620,676192165fb32c2e1fb7aee6,67d1e8021599fb84cdea5199,2025-03-12_14h01.57.325,Tarea de decisión léxica,2024.2.5,MacIntel,64.1025641,,,,,,,,,,,,,,,,,,,,,,,430.5106,431.7055,a,1,0.518,1,431.7055,432.205,,,,,,432,MAS,NOWORD,AGR,150,tetor,,el,,0.518,,432.205,432.2052,-0.003045112,-0.392173258,0,0,0,,0,152,152,431,1,motor,,,,
,,,,,,6150dc583977d6a9c20da620,676192165fb32c2e1fb7aee6,67d1e8021599fb84cdea5199,2025-03-12_14h01.57.325,Tarea de decisión léxica,2024.2.5,MacIntel,64.1025641,,,,,,,,,,,,,,,,,,,,,,,432.207,433.9555,a,1,1.0711,1,433.9557,434.4556,,,,,,438,FEM,NOWORD,DIS,150,glava,,el,,1.0711,,434.4557,434.4557,-0.003045112,-0.392173258,0,0,0,,0,153,153,437,1,plaza,,,,
,,,,,,6150dc583977d6a9c20da620,676192165fb32c2e1fb7aee6,67d1e8021599fb84cdea5199,2025-03-12_14h01.57.325,Tarea de decisión léxica,2024.2.5,MacIntel,64.1025641,,,,,,,,,,,,,,,,,,,,,,,434.4576,435.8222,l,1,0.6862,1,435.8223,436.3224,,,,,,455,MAS,WORD,DIS,150,reino,,la,,0.6862,,436.3225,436.3225,-0.003045112,-0.392173258,0,0,0,,0,154,154,454,1,riaso,,,,
,,,,,,6150dc583977d6a9c20da620,676192165fb32c2e1fb7aee6,67d1e8021599fb84cdea5199,2025-03-12_14h01.57.325,Tarea de decisión léxica,2024.2.5,MacIntel,64.1025641,,,,,,,,,,,,,,,,,,,,,,,436.3245,437.5896,l,1,0.587,1,437.5896,438.0894,,,,,,119,MAS,WORD,DIS,150,pozo,,la,,0.587,,438.0914,438.0934,-0.003045112,-0.392173258,0,0,0,,0,155,155,118,1,hooy,,,,
,,,,,,6150dc583977d6a9c20da620,676192165fb32c2e1fb7aee6,67d1e8021599fb84cdea5199,2025-03-12_14h01.57.325,Tarea de decisión léxica,2024.2.5,MacIntel,64.1025641,,,,,,,,,,,,,,,,,,,,,,,438.0945,439.2055,a,1,0.4361,1,439.2056,439.7052,,,,,,288,FEM,NOWORD,AGR,150,fosta,,la,,0.4361,,439.7053,439.7054,-0.003045112,-0.392173258,0,0,0,,0,156,156,287,1,lista,,,,
,,,,,,6150dc583977d6a9c20da620,676192165fb32c2e1fb7aee6,67d1e8021599fb84cdea5199,2025-03-12_14h01.57.325,Tarea de decisión léxica,2024.2.5,MacIntel,64.1025641,,,,,,,,,,,,,,,,,,,,,,,439.7067,440.9555,l,1,0.5869,1,440.9556,441.4561,,,,,,441,FEM,WORD,AGR,150,selva,,la,,0.5869,,441.4562,441.4563,-0.003045112,-0.392173258,0,0,0,,0,157,157,440,1,telza,,,,
,,,,,,6150dc583977d6a9c20da620,676192165fb32c2e1fb7aee6,67d1e8021599fb84cdea5199,2025-03-12_14h01.57.325,Tarea de decisión léxica,2024.2.5,MacIntel,64.1025641,,,,,,,,,,,,,,,,,,,,,,,441.4581,442.8059,a,1,0.6678,1,442.806,443.3063,,,,,,340,MAS,NOWORD,AGR,150,plajo,,el,,0.6678,,443.3063,443.3064,-0.003045112,-0.392173258,0,0,0,,0,158,158,339,1,brazo,,,,
,,,,,,6150dc583977d6a9c20da620,676192165fb32c2e1fb7aee6,67d1e8021599fb84cdea5199,2025-03-12_14h01.57.325,Tarea de decisión léxica,2024.2.5,MacIntel,64.1025641,,,,,,,,,,,,,,,,,,,,,,,443.3082,444.973,a,1,0.9828,1,444.9731,445.4729,,,,,,28,MAS,NOWORD,AGR,150,ravo,,el,,0.9828,,445.473,445.4731,-0.003045112,-0.392173258,0,0,0,,0,159,159,27,1,baño,,,,
,,,,,,6150dc583977d6a9c20da620,676192165fb32c2e1fb7aee6,67d1e8021599fb84cdea5199,2025-03-12_14h01.57.325,Tarea de decisión léxica,2024.2.5,MacIntel,64.1025641,,,,,,,,,,,,,,,,,,,,,,,445.4745,446.5729,l,1,0.4212,1,446.573,447.0732,,,,,,343,FEM,WORD,DIS,150,plata,,el,,0.4212,,447.0752,479.2086,-0.006063707,-0.406506958,0,0,0,space,0,160,160,342,1,trada,32.1153,,,
,,,,,,6150dc583977d6a9c20da620,676192165fb32c2e1fb7aee6,67d1e8021599fb84cdea5199,2025-03-12_14h01.57.325,Tarea de decisión léxica,2024.2.5,MacIntel,64.1025641,,,,,,,,,,,,,,,,,,,,,,,479.21,480.3921,a,1,0.5006,1,480.3923,480.8917,,,,,,304,MAS,NOWORD,AGR,150,lanco,,el,,0.5006,,480.8917,480.8918,-0.006063707,-0.406506958,0,0,0,,0,161,161,303,1,barco,,,,
,,,,,,6150dc583977d6a9c20da620,676192165fb32c2e1fb7aee6,67d1e8021599fb84cdea5199,2025-03-12_14h01.57.325,Tarea de decisión léxica,2024.2.5,MacIntel,64.1025641,,,,,,,,,,,,,,,,,,,,,,,480.8937,482.1257,l,1,0.5506,1,482.1258,482.6255,,,,,,59,FEM,WORD,AGR,150,sala,,la,,0.5506,,482.6255,482.6256,-0.006063707,-0.406506958,0,0,0,,0,162,162,58,1,tafa,,,,
,,,,,,6150dc583977d6a9c20da620,676192165fb32c2e1fb7aee6,67d1e8021599fb84cdea5199,2025-03-12_14h01.57.325,Tarea de decisión léxica,2024.2.5,MacIntel,64.1025641,,,,,,,,,,,,,,,,,,,,,,,482.627,483.8585,l,1,0.5505,1,483.8587,484.359,,,,,,107,MAS,WORD,DIS,150,saco,,la,,0.5505,,484.359,484.3591,-0.006063707,-0.406506958,0,0,0,,0,163,163,106,1,raot,,,,
,,,,,,6150dc583977d6a9c20da620,676192165fb32c2e1fb7aee6,67d1e8021599fb84cdea5199,2025-03-12_14h01.57.325,Tarea de decisión léxica,2024.2.5,MacIntel,64.1025641,,,,,,,,,,,,,,,,,,,,,,,484.361,485.8424,l,1,0.8009,1,485.8425,486.3425,,,,,,9,MAS,WORD,DIS,150,tipo,,la,,0.8009,,486.3425,486.3426,-0.006063707,-0.406506958,0,0,0,,0,164,164,8,1,sibo,,,,
,,,,,,6150dc583977d6a9c20da620,676192165fb32c2e1fb7aee6,67d1e8021599fb84cdea5199,2025-03-12_14h01.57.325,Tarea de decisión léxica,2024.2.5,MacIntel,64.1025641,,,,,,,,,,,,,,,,,,,,,,,486.3446,487.5419,a,1,0.5234,1,487.5419,488.0427,,,,,,240,MAS,NOWORD,AGR,150,poño,,el,,0.5234,,488.0447,488.0468,-0.006063707,-0.406506958,0,0,0,,0,165,165,239,1,mozo,,,,
,,,,,,6150dc583977d6a9c20da620,676192165fb32c2e1fb7aee6,67d1e8021599fb84cdea5199,2025-03-12_14h01.57.325,Tarea de decisión léxica,2024.2.5,MacIntel,64.1025641,,,,,,,,,,,,,,,,,,,,,,,488.0479,489.4089,l,1,0.6871,1,489.409,489.909,,,,,,13,FEM,WORD,DIS,150,hora,,el,,0.6871,,489.9091,489.9092,-0.006063707,-0.406506958,0,0,0,,0,166,166,12,1,nola,,,,
,,,,,,6150dc583977d6a9c20da620,676192165fb32c2e1fb7aee6,67d1e8021599fb84cdea5199,2025-03-12_14h01.57.325,Tarea de decisión léxica,2024.2.5,MacIntel,64.1025641,,,,,,,,,,,,,,,,,,,,,,,489.9104,491.0095,a,1,0.4216,1,491.0096,491.5087,,,,,,220,FEM,NOWORD,AGR,150,miva,,la,,0.4216,,491.5088,491.5089,-0.006063707,-0.406506958,0,0,0,,0,167,167,219,1,pipa,,,,
,,,,,,6150dc583977d6a9c20da620,676192165fb32c2e1fb7aee6,67d1e8021599fb84cdea5199,2025-03-12_14h01.57.325,Tarea de decisión léxica,2024.2.5,MacIntel,64.1025641,,,,,,,,,,,,,,,,,,,,,,,491.51,492.6263,l,1,0.4579,1,492.6263,493.126,,,,,,419,MAS,WORD,AGR,150,truco,,el,,0.4579,,493.126,493.1262,-0.006063707,-0.406506958,0,0,0,,0,168,168,418,1,chudo,,,,
,,,,,,6150dc583977d6a9c20da620,676192165fb32c2e1fb7aee6,67d1e8021599fb84cdea5199,2025-03-12_14h01.57.325,Tarea de decisión léxica,2024.2.5,MacIntel,64.1025641,,,,,,,,,,,,,,,,,,,,,,,493.1281,494.1758,l,1,0.3693,1,494.1759,494.6765,,,,,,123,FEM,WORD,AGR,150,flor,,la,,0.3693,,494.6766,494.6768,-0.006063707,-0.406506958,0,0,0,,0,169,169,122,1,maba,,,,
,,,,,,6150dc583977d6a9c20da620,676192165fb32c2e1fb7aee6,67d1e8021599fb84cdea5199,2025-03-12_14h01.57.325,Tarea de decisión léxica,2024.2.5,MacIntel,64.1025641,,,,,,,,,,,,,,,,,,,,,,,494.6785,495.9765,l,1,0.6224,1,495.9766,496.4766,,,,,,159,MAS,WORD,DIS,150,giro,,la,,0.6224,,496.4787,496.4806,-0.006063707,-0.406506958,0,0,0,,0,170,170,158,1,bilo,,,,
,,,,,,6150dc583977d6a9c20da620,676192165fb32c2e1fb7aee6,67d1e8021599fb84cdea5199,2025-03-12_14h01.57.325,Tarea de decisión léxica,2024.2.5,MacIntel,64.1025641,,,,,,,,,,,,,,,,,,,,,,,496.4818,497.4927,l,1,0.3358,1,497.4928,497.9934,,,,,,359,MAS,WORD,AGR,150,calor,,el,,0.3358,,497.9934,497.9935,-0.006063707,-0.406506958,0,0,0,,0,171,171,358,1,cacer,,,,
,,,,,,6150dc583977d6a9c20da620,676192165fb32c2e1fb7aee6,67d1e8021599fb84cdea5199,2025-03-12_14h01.57.325,Tarea de decisión léxica,2024.2.5,MacIntel,64.1025641,,,,,,,,,,,,,,,,,,,,,,,497.9953,499.3101,a,1,0.6383,1,499.3101,499.8102,,,,,,360,MAS,NOWORD,AGR,150,cacer,,el,,0.6383,,499.8102,499.8104,-0.006063707,-0.406506958,0,0,0,,0,172,172,359,1,calor,,,,
,,,,,,6150dc583977d6a9c20da620,676192165fb32c2e1fb7aee6,67d1e8021599fb84cdea5199,2025-03-12_14h01.57.325,Tarea de decisión léxica,2024.2.5,MacIntel,64.1025641,,,,,,,,,,,,,,,,,,,,,,,499.8123,500.9603,a,1,0.4697,1,500.9604,501.4608,,,,,,344,FEM,NOWORD,AGR,150,trada,,la,,0.4697,,501.4609,501.461,-0.006063707,-0.406506958,0,0,0,,0,173,173,343,1,plata,,,,
,,,,,,6150dc583977d6a9c20da620,676192165fb32c2e1fb7aee6,67d1e8021599fb84cdea5199,2025-03-12_14h01.57.325,Tarea de decisión léxica,2024.2.5,MacIntel,64.1025641,,,,,,,,,,,,,,,,,,,,,,,501.4631,502.6601,a,1,0.5198,1,502.6602,503.1605,,,,,,6,FEM,NOWORD,DIS,150,poga,,el,,0.5198,,503.1606,503.1607,-0.006063707,-0.406506958,0,0,0,,0,174,174,5,1,cosa,,,,
,,,,,,6150dc583977d6a9c20da620,676192165fb32c2e1fb7aee6,67d1e8021599fb84cdea5199,2025-03-12_14h01.57.325,Tarea de decisión léxica,2024.2.5,MacIntel,64.1025641,,,,,,,,,,,,,,,,,,,,,,,503.1626,504.3263,l,1,0.488,1,504.3265,504.8272,,,,,,303,MAS,WORD,DIS,150,barco,,la,,0.488,,504.8292,504.8315,-0.006063707,-0.406506958,0,0,0,,0,175,175,302,1,lanco,,,,
,,,,,,6150dc583977d6a9c20da620,676192165fb32c2e1fb7aee6,67d1e8021599fb84cdea5199,2025-03-12_14h01.57.325,Tarea de decisión léxica,2024.2.5,MacIntel,64.1025641,,,,,,,,,,,,,,,,,,,,,,,504.8325,506.0938,a,1,0.5867,1,506.0939,506.5936,,,,,,450,FEM,NOWORD,DIS,150,crusa,,el,,0.5867,,506.5937,506.5937,-0.006063707,-0.406506958,0,0,0,,0,176,176,449,1,pluma,,,,
,,,,,,6150dc583977d6a9c20da620,676192165fb32c2e1fb7aee6,67d1e8021599fb84cdea5199,2025-03-12_14h01.57.325,Tarea de decisión léxica,2024.2.5,MacIntel,64.1025641,,,,,,,,,,,,,,,,,,,,,,,506.5954,507.8772,a,1,0.6051,1,507.8772,508.3772,,,,,,286,MAS,NOWORD,DIS,150,echor,,la,,0.6051,,508.3773,508.3774,-0.006063707,-0.406506958,0,0,0,,0,177,177,285,1,error,,,,
,,,,,,6150dc583977d6a9c20da620,676192165fb32c2e1fb7aee6,67d1e8021599fb84cdea5199,2025-03-12_14h01.57.325,Tarea de decisión léxica,2024.2.5,MacIntel,64.1025641,,,,,,,,,,,,,,,,,,,,,,,508.3794,509.4442,a,1,0.3843,1,509.4442,509.9441,,,,,,108,MAS,NOWORD,AGR,150,raot,,el,,0.3843,,509.9441,509.9443,-0.006063707,-0.406506958,0,0,0,,0,178,178,107,1,saco,,,,
,,,,,,6150dc583977d6a9c20da620,676192165fb32c2e1fb7aee6,67d1e8021599fb84cdea5199,2025-03-12_14h01.57.325,Tarea de decisión léxica,2024.2.5,MacIntel,64.1025641,,,,,,,,,,,,,,,,,,,,,,,509.946,510.9606,l,1,0.3377,1,510.9606,511.4608,,,,,,301,FEM,WORD,DIS,150,banda,,el,,0.3377,,511.4629,511.4647,-0.006063707,-0.406506958,0,0,0,,0,179,179,300,1,ranga,,,,
,,,,,,6150dc583977d6a9c20da620,676192165fb32c2e1fb7aee6,67d1e8021599fb84cdea5199,2025-03-12_14h01.57.325,Tarea de decisión léxica,2024.2.5,MacIntel,64.1025641,,,,,,,,,,,,,,,,,,,,,,,511.466,512.6615,l,1,0.524,1,512.6616,513.1612,,,,,,17,FEM,WORD,DIS,150,mamá,,el,,0.524,,513.1612,513.1614,-0.006063707,-0.406506958,0,0,0,,0,180,180,16,1,paba,,,,
,,,,,,6150dc583977d6a9c20da620,676192165fb32c2e1fb7aee6,67d1e8021599fb84cdea5199,2025-03-12_14h01.57.325,Tarea de decisión léxica,2024.2.5,MacIntel,64.1025641,,,,,,,,,,,,,,,,,,,,,,,513.1631,514.3445,l,1,0.5006,1,514.3446,514.8445,,,,,,349,MAS,WORD,AGR,150,color,,el,,0.5006,,514.8446,514.8447,-0.006063707,-0.406506958,0,0,0,,0,181,181,348,1,cosir,,,,
,,,,,,6150dc583977d6a9c20da620,676192165fb32c2e1fb7aee6,67d1e8021599fb84cdea5199,2025-03-12_14h01.57.325,Tarea de decisión léxica,2024.2.5,MacIntel,64.1025641,,,,,,,,,,,,,,,,,,,,,,,514.8466,515.928,l,1,0.4,1,515.9281,516.4275,,,,,,71,FEM,WORD,DIS,150,isla,,el,,0.4,,516.4277,516.4278,-0.006063707,-0.406506958,0,0,0,,0,182,182,70,1,urla,,,,
,,,,,,6150dc583977d6a9c20da620,676192165fb32c2e1fb7aee6,67d1e8021599fb84cdea5199,2025-03-12_14h01.57.325,Tarea de decisión léxica,2024.2.5,MacIntel,64.1025641,,,,,,,,,,,,,,,,,,,,,,,516.4294,517.5279,l,1,0.4204,1,517.528,518.0281,,,,,,261,MAS,WORD,AGR,150,sitio,,el,,0.4204,,518.0282,518.0283,-0.006063707,-0.406506958,0,0,0,,0,183,183,260,1,titio,,,,
,,,,,,6150dc583977d6a9c20da620,676192165fb32c2e1fb7aee6,67d1e8021599fb84cdea5199,2025-03-12_14h01.57.325,Tarea de decisión léxica,2024.2.5,MacIntel,64.1025641,,,,,,,,,,,,,,,,,,,,,,,518.0301,519.0782,l,1,0.3678,1,519.0783,519.5778,,,,,,213,FEM,WORD,AGR,150,rama,,la,,0.3678,,519.5798,519.5815,-0.006063707,-0.406506958,0,0,0,,0,184,184,212,1,bana,,,,
,,,,,,6150dc583977d6a9c20da620,676192165fb32c2e1fb7aee6,67d1e8021599fb84cdea5199,2025-03-12_14h01.57.325,Tarea de decisión léxica,2024.2.5,MacIntel,64.1025641,,,,,,,,,,,,,,,,,,,,,,,519.5828,520.7109,a,1,0.4492,1,520.711,521.2116,,,,,,106,FEM,NOWORD,DIS,150,vina,,el,,0.4492,,521.2117,521.2118,-0.006063707,-0.406506958,0,0,0,,0,185,185,105,1,sopa,,,,
,,,,,,6150dc583977d6a9c20da620,676192165fb32c2e1fb7aee6,67d1e8021599fb84cdea5199,2025-03-12_14h01.57.325,Tarea de decisión léxica,2024.2.5,MacIntel,64.1025641,,,,,,,,,,,,,,,,,,,,,,,521.2138,522.3278,a,1,0.4392,1,522.3279,522.8285,,,,,,464,FEM,NOWORD,AGR,150,matla,,la,,0.4392,,522.8286,522.8287,-0.006063707,-0.406506958,0,0,0,,0,186,186,463,1,cabra,,,,
,,,,,,6150dc583977d6a9c20da620,676192165fb32c2e1fb7aee6,67d1e8021599fb84cdea5199,2025-03-12_14h01.57.325,Tarea de decisión léxica,2024.2.5,MacIntel,64.1025641,,,,,,,,,,,,,,,,,,,,,,,522.8305,524.2613,l,1,0.7531,1,524.2614,524.762,,,,,,137,MAS,WORD,DIS,150,nene,,la,,0.7531,,524.762,524.7622,-0.006063707,-0.406506958,0,0,0,,0,187,187,136,1,pamo,,,,
,,,,,,6150dc583977d6a9c20da620,676192165fb32c2e1fb7aee6,67d1e8021599fb84cdea5199,2025-03-12_14h01.57.325,Tarea de decisión léxica,2024.2.5,MacIntel,64.1025641,,,,,,,,,,,,,,,,,,,,,,,524.7641,525.8948,a,1,0.4537,1,525.8949,526.3953,,,,,,192,FEM,NOWORD,AGR,150,bila,,la,,0.4537,,526.3954,526.3957,-0.006063707,-0.406506958,0,0,0,,0,188,188,191,1,pila,,,,
,,,,,,6150dc583977d6a9c20da620,676192165fb32c2e1fb7aee6,67d1e8021599fb84cdea5199,2025-03-12_14h01.57.325,Tarea de decisión léxica,2024.2.5,MacIntel,64.1025641,,,,,,,,,,,,,,,,,,,,,,,526.3975,527.4109,l,1,0.3371,1,527.411,527.9121,,,,,,355,FEM,WORD,DIS,150,regla,,el,,0.3371,,527.9142,527.9159,-0.006063707,-0.406506958,0,0,0,,0,189,189,354,1,bepla,,,,
,,,,,,6150dc583977d6a9c20da620,676192165fb32c2e1fb7aee6,67d1e8021599fb84cdea5199,2025-03-12_14h01.57.325,Tarea de decisión léxica,2024.2.5,MacIntel,64.1025641,,,,,,,,,,,,,,,,,,,,,,,527.9172,529.0622,a,0,0.4672,0,529.0637,529.5624,,,,,,239,MAS,WORD,DIS,150,mozo,,la,,0.4672,,529.5624,529.5626,-0.006063707,-0.406506958,0,0,0,,0,190,190,238,1,poño,,,,
,,,,,,6150dc583977d6a9c20da620,676192165fb32c2e1fb7aee6,67d1e8021599fb84cdea5199,2025-03-12_14h01.57.325,Tarea de decisión léxica,2024.2.5,MacIntel,64.1025641,,,,,,,,,,,,,,,,,,,,,,,529.5644,530.8122,a,1,0.5702,1,530.8142,531.3119,,,,,,462,FEM,NOWORD,DIS,150,pagra,,el,,0.5702,,531.312,531.3121,-0.006063707,-0.406506958,0,0,0,,0,191,191,461,1,tabla,,,,
,,,,,,6150dc583977d6a9c20da620,676192165fb32c2e1fb7aee6,67d1e8021599fb84cdea5199,2025-03-12_14h01.57.325,Tarea de decisión léxica,2024.2.5,MacIntel,64.1025641,,,,,,,,,,,,,,,,,,,,,,,531.314,532.3458,l,1,0.357,1,532.3459,532.8457,,,,,,385,FEM,WORD,AGR,150,letra,,la,,0.357,,532.8458,532.846,-0.006063707,-0.406506958,0,0,0,,0,192,192,384,1,febra,,,,
,,,,,,6150dc583977d6a9c20da620,676192165fb32c2e1fb7aee6,67d1e8021599fb84cdea5199,2025-03-12_14h01.57.325,Tarea de decisión léxica,2024.2.5,MacIntel,64.1025641,,,,,,,,,,,,,,,,,,,,,,,532.8478,533.9458,a,1,0.4173,1,533.9459,534.4458,,,,,,480,MAS,NOWORD,AGR,150,rimpo,,el,,0.4173,,534.4459,534.4461,-0.006063707,-0.406506958,0,0,0,,0,193,193,479,1,rumbo,,,,
,,,,,,6150dc583977d6a9c20da620,676192165fb32c2e1fb7aee6,67d1e8021599fb84cdea5199,2025-03-12_14h01.57.325,Tarea de decisión léxica,2024.2.5,MacIntel,64.1025641,,,,,,,,,,,,,,,,,,,,,,,534.4479,535.6624,l,1,0.5361,1,535.6625,536.1625,,,,,,139,MAS,WORD,AGR,150,mago,,el,,0.5361,,536.1646,536.1665,-0.006063707,-0.406506958,0,0,0,,0,194,194,138,1,nila,,,,
,,,,,,6150dc583977d6a9c20da620,676192165fb32c2e1fb7aee6,67d1e8021599fb84cdea5199,2025-03-12_14h01.57.325,Tarea de decisión léxica,2024.2.5,MacIntel,64.1025641,,,,,,,,,,,,,,,,,,,,,,,536.1678,537.2793,l,1,0.4327,1,537.2794,537.7791,,,,,,373,FEM,WORD,DIS,150,pizza,,el,,0.4327,,537.7792,537.7793,-0.006063707,-0.406506958,0,0,0,,0,195,195,372,1,pogza,,,,
,,,,,,6150dc583977d6a9c20da620,676192165fb32c2e1fb7aee6,67d1e8021599fb84cdea5199,2025-03-12_14h01.57.325,Tarea de decisión léxica,2024.2.5,MacIntel,64.1025641,,,,,,,,,,,,,,,,,,,,,,,537.7812,538.8796,l,1,0.4181,1,538.8797,539.3796,,,,,,53,FEM,WORD,DIS,150,boda,,el,,0.4181,,539.3797,539.3797,-0.006063707,-0.406506958,0,0,0,,0,196,196,52,1,rora,,,,
,,,,,,6150dc583977d6a9c20da620,676192165fb32c2e1fb7aee6,67d1e8021599fb84cdea5199,2025-03-12_14h01.57.325,Tarea de decisión léxica,2024.2.5,MacIntel,64.1025641,,,,,,,,,,,,,,,,,,,,,,,539.3817,540.5621,a,1,0.5007,1,540.5621,541.063,,,,,,102,MAS,NOWORD,DIS,150,gito,,la,,0.5007,,541.063,541.0632,-0.006063707,-0.406506958,0,0,0,,0,197,197,101,1,tono,,,,
,,,,,,6150dc583977d6a9c20da620,676192165fb32c2e1fb7aee6,67d1e8021599fb84cdea5199,2025-03-12_14h01.57.325,Tarea de decisión léxica,2024.2.5,MacIntel,64.1025641,,,,,,,,,,,,,,,,,,,,,,,541.0651,542.579,a,1,0.8387,1,542.579,543.0798,,,,,,346,FEM,NOWORD,DIS,150,anera,,el,,0.8387,,543.0798,543.0799,-0.006063707,-0.406506958,0,0,0,,0,198,198,345,1,arena,,,,
,,,,,,6150dc583977d6a9c20da620,676192165fb32c2e1fb7aee6,67d1e8021599fb84cdea5199,2025-03-12_14h01.57.325,Tarea de decisión léxica,2024.2.5,MacIntel,64.1025641,,,,,,,,,,,,,,,,,,,,,,,543.0818,544.2293,a,1,0.47,1,544.2294,544.729,,,,,,2,FEM,NOWORD,DIS,150,mada,,el,,0.47,,544.7304,544.7322,-0.006063707,-0.406506958,0,0,0,,0,199,199,1,1,casa,,,,
,,,,,,6150dc583977d6a9c20da620,676192165fb32c2e1fb7aee6,67d1e8021599fb84cdea5199,2025-03-12_14h01.57.325,Tarea de decisión léxica,2024.2.5,MacIntel,64.1025641,,,,,,,,,,,,,,,,,,,,,,,544.7344,545.9299,a,1,0.5219,1,545.93,546.4301,,,,,,258,FEM,NOWORD,DIS,150,asama,,el,,0.5219,,546.4301,546.4303,-0.006063707,-0.406506958,0,0,0,,0,200,200,257,1,amiga,,,,
,,,,,,6150dc583977d6a9c20da620,676192165fb32c2e1fb7aee6,67d1e8021599fb84cdea5199,2025-03-12_14h01.57.325,Tarea de decisión léxica,2024.2.5,MacIntel,64.1025641,,,,,,,,,,,,,,,,,,,,,,,546.4321,547.5468,a,1,0.4372,1,547.5468,548.0469,,,,,,332,MAS,NOWORD,AGR,150,erato,,el,,0.4372,,548.047,548.0471,-0.006063707,-0.406506958,0,0,0,,0,201,201,331,1,éxito,,,,
,,,,,,6150dc583977d6a9c20da620,676192165fb32c2e1fb7aee6,67d1e8021599fb84cdea5199,2025-03-12_14h01.57.325,Tarea de decisión léxica,2024.2.5,MacIntel,64.1025641,,,,,,,,,,,,,,,,,,,,,,,548.049,549.0802,l,1,0.3505,1,549.0804,549.5803,,,,,,307,MAS,WORD,DIS,150,hotel,,la,,0.3505,,549.5804,549.5805,-0.006063707,-0.406506958,0,0,0,,0,202,202,306,1,holol,,,,
,,,,,,6150dc583977d6a9c20da620,676192165fb32c2e1fb7aee6,67d1e8021599fb84cdea5199,2025-03-12_14h01.57.325,Tarea de decisión léxica,2024.2.5,MacIntel,64.1025641,,,,,,,,,,,,,,,,,,,,,,,549.5824,550.7156,l,1,0.4582,1,550.7158,551.2138,,,,,,81,FEM,WORD,DIS,150,dama,,el,,0.4582,,551.2159,551.2181,-0.006063707,-0.406506958,0,0,0,,0,203,203,80,1,vasa,,,,
,,,,,,6150dc583977d6a9c20da620,676192165fb32c2e1fb7aee6,67d1e8021599fb84cdea5199,2025-03-12_14h01.57.325,Tarea de decisión léxica,2024.2.5,MacIntel,64.1025641,,,,,,,,,,,,,,,,,,,,,,,551.2191,552.4808,a,1,0.5907,1,552.4809,552.9806,,,,,,452,FEM,NOWORD,AGR,150,clita,,la,,0.5907,,552.9807,552.9808,-0.006063707,-0.406506958,0,0,0,,0,204,204,451,1,fruta,,,,
,,,,,,6150dc583977d6a9c20da620,676192165fb32c2e1fb7aee6,67d1e8021599fb84cdea5199,2025-03-12_14h01.57.325,Tarea de decisión léxica,2024.2.5,MacIntel,64.1025641,,,,,,,,,,,,,,,,,,,,,,,552.9827,554.1972,l,1,0.536,1,554.1972,554.6969,,,,,,479,MAS,WORD,DIS,150,rumbo,,la,,0.536,,554.697,554.697,-0.006063707,-0.406506958,0,0,0,,0,205,205,478,1,rimpo,,,,
,,,,,,6150dc583977d6a9c20da620,676192165fb32c2e1fb7aee6,67d1e8021599fb84cdea5199,2025-03-12_14h01.57.325,Tarea de decisión léxica,2024.2.5,MacIntel,64.1025641,,,,,,,,,,,,,,,,,,,,,,,554.699,555.7975,l,1,0.4166,1,555.7976,556.2974,,,,,,309,FEM,WORD,AGR,150,silla,,la,,0.4166,,556.2975,556.2975,-0.006063707,-0.406506958,0,0,0,,0,206,206,308,1,tirra,,,,
,,,,,,6150dc583977d6a9c20da620,676192165fb32c2e1fb7aee6,67d1e8021599fb84cdea5199,2025-03-12_14h01.57.325,Tarea de decisión léxica,2024.2.5,MacIntel,64.1025641,,,,,,,,,,,,,,,,,,,,,,,556.2994,557.2641,l,1,0.2848,1,557.2642,557.7642,,,,,,79,FEM,WORD,AGR,150,piel,,la,,0.2848,,557.7642,557.7643,-0.006063707,-0.406506958,0,0,0,,0,207,207,78,1,ciel,,,,
,,,,,,6150dc583977d6a9c20da620,676192165fb32c2e1fb7aee6,67d1e8021599fb84cdea5199,2025-03-12_14h01.57.325,Tarea de decisión léxica,2024.2.5,MacIntel,64.1025641,,,,,,,,,,,,,,,,,,,,,,,557.7663,559.0803,l,1,0.6381,1,559.0804,559.5805,,,,,,149,MAS,WORD,DIS,150,cabo,,la,,0.6381,,559.5823,559.5843,-0.006063707,-0.406506958,0,0,0,,0,208,208,148,1,pafo,,,,
,,,,,,6150dc583977d6a9c20da620,676192165fb32c2e1fb7aee6,67d1e8021599fb84cdea5199,2025-03-12_14h01.57.325,Tarea de decisión léxica,2024.2.5,MacIntel,64.1025641,,,,,,,,,,,,,,,,,,,,,,,559.5857,560.7472,l,1,0.4866,1,560.7472,561.2476,,,,,,183,FEM,WORD,AGR,150,raya,,la,,0.4866,,561.2477,561.2478,-0.006063707,-0.406506958,0,0,0,,0,209,209,182,1,raad,,,,
,,,,,,6150dc583977d6a9c20da620,676192165fb32c2e1fb7aee6,67d1e8021599fb84cdea5199,2025-03-12_14h01.57.325,Tarea de decisión léxica,2024.2.5,MacIntel,64.1025641,,,,,,,,,,,,,,,,,,,,,,,561.2498,562.3139,a,1,0.387,1,562.3139,562.8144,,,,,,66,MAS,NOWORD,DIS,150,nios,,la,,0.387,,562.8145,562.8147,-0.006063707,-0.406506958,0,0,0,,0,210,210,65,1,dios,,,,
,,,,,,6150dc583977d6a9c20da620,676192165fb32c2e1fb7aee6,67d1e8021599fb84cdea5199,2025-03-12_14h01.57.325,Tarea de decisión léxica,2024.2.5,MacIntel,64.1025641,,,,,,,,,,,,,,,,,,,,,,,562.8165,563.864,l,1,0.3721,1,563.864,564.3648,,,,,,171,MAS,WORD,AGR,150,hilo,,el,,0.3721,,564.3648,564.365,-0.006063707,-0.406506958,0,0,0,,0,211,211,170,1,niro,,,,
,,,,,,6150dc583977d6a9c20da620,676192165fb32c2e1fb7aee6,67d1e8021599fb84cdea5199,2025-03-12_14h01.57.325,Tarea de decisión léxica,2024.2.5,MacIntel,64.1025641,,,,,,,,,,,,,,,,,,,,,,,564.3668,565.3643,a,1,0.3169,1,565.3643,565.8647,,,,,,436,MAS,NOWORD,AGR,150,ricno,,el,,0.3169,,565.8648,565.8649,-0.006063707,-0.406506958,0,0,0,,0,212,212,435,1,ritmo,,,,
,,,,,,6150dc583977d6a9c20da620,676192165fb32c2e1fb7aee6,67d1e8021599fb84cdea5199,2025-03-12_14h01.57.325,Tarea de decisión léxica,2024.2.5,MacIntel,64.1025641,,,,,,,,,,,,,,,,,,,,,,,565.8667,566.8309,l,1,0.2875,1,566.8309,567.3316,,,,,,281,MAS,WORD,DIS,150,cielo,,la,,0.2875,,567.3337,567.3357,-0.006063707,-0.406506958,0,0,0,,0,213,213,280,1,cauro,,,,
,,,,,,6150dc583977d6a9c20da620,676192165fb32c2e1fb7aee6,67d1e8021599fb84cdea5199,2025-03-12_14h01.57.325,Tarea de decisión léxica,2024.2.5,MacIntel,64.1025641,,,,,,,,,,,,,,,,,,,,,,,567.3367,568.3484,a,1,0.3339,1,568.3484,568.8483,,,,,,260,MAS,NOWORD,AGR,150,jaumo,,el,,0.3339,,568.8483,568.8485,-0.006063707,-0.406506958,0,0,0,,0,214,214,259,1,juego,,,,
,,,,,,6150dc583977d6a9c20da620,676192165fb32c2e1fb7aee6,67d1e8021599fb84cdea5199,2025-03-12_14h01.57.325,Tarea de decisión léxica,2024.2.5,MacIntel,64.1025641,,,,,,,,,,,,,,,,,,,,,,,568.8503,569.9483,a,1,0.4205,1,569.9484,570.4485,,,,,,198,MAS,NOWORD,DIS,150,dade,,la,,0.4205,,570.4486,570.4488,-0.006063707,-0.406506958,0,0,0,,0,215,215,197,1,bate,,,,
,,,,,,6150dc583977d6a9c20da620,676192165fb32c2e1fb7aee6,67d1e8021599fb84cdea5199,2025-03-12_14h01.57.325,Tarea de decisión léxica,2024.2.5,MacIntel,64.1025641,,,,,,,,,,,,,,,,,,,,,,,570.4511,571.5317,a,1,0.4057,1,571.5319,572.0319,,,,,,402,MAS,NOWORD,DIS,150,pirvo,,la,,0.4057,,572.032,572.032,-0.006063707,-0.406506958,0,0,0,,0,216,216,401,1,polvo,,,,
,,,,,,6150dc583977d6a9c20da620,676192165fb32c2e1fb7aee6,67d1e8021599fb84cdea5199,2025-03-12_14h01.57.325,Tarea de decisión léxica,2024.2.5,MacIntel,64.1025641,,,,,,,,,,,,,,,,,,,,,,,572.034,573.1149,a,1,0.4044,1,573.115,573.6155,,,,,,380,MAS,NOWORD,AGR,150,tunso,,el,,0.4044,,573.6156,573.6157,-0.006063707,-0.406506958,0,0,0,,0,217,217,379,1,turno,,,,
,,,,,,6150dc583977d6a9c20da620,676192165fb32c2e1fb7aee6,67d1e8021599fb84cdea5199,2025-03-12_14h01.57.325,Tarea de decisión léxica,2024.2.5,MacIntel,64.1025641,,,,,,,,,,,,,,,,,,,,,,,573.6176,574.6144,l,1,0.3197,1,574.6144,575.1154,,,,,,109,MAS,WORD,AGR,150,rayo,,el,,0.3197,,575.1174,575.119,-0.006063707,-0.406506958,0,0,0,,0,218,218,108,1,suno,,,,
,,,,,,6150dc583977d6a9c20da620,676192165fb32c2e1fb7aee6,67d1e8021599fb84cdea5199,2025-03-12_14h01.57.325,Tarea de decisión léxica,2024.2.5,MacIntel,64.1025641,,,,,,,,,,,,,,,,,,,,,,,575.1205,576.2153,a,1,0.4227,1,576.2154,576.7155,,,,,,232,FEM,NOWORD,AGR,150,heta,,la,,0.4227,,576.7155,576.7157,-0.006063707,-0.406506958,0,0,0,,0,219,219,231,1,bota,,,,
,,,,,,6150dc583977d6a9c20da620,676192165fb32c2e1fb7aee6,67d1e8021599fb84cdea5199,2025-03-12_14h01.57.325,Tarea de decisión léxica,2024.2.5,MacIntel,64.1025641,,,,,,,,,,,,,,,,,,,,,,,576.7176,577.7155,l,1,0.3172,1,577.7157,578.2156,,,,,,315,FEM,WORD,DIS,150,reina,,el,,0.3172,,578.2157,578.2158,-0.006063707,-0.406506958,0,0,0,,0,220,220,314,1,riosa,,,,
,,,,,,6150dc583977d6a9c20da620,676192165fb32c2e1fb7aee6,67d1e8021599fb84cdea5199,2025-03-12_14h01.57.325,Tarea de decisión léxica,2024.2.5,MacIntel,64.1025641,,,,,,,,,,,,,,,,,,,,,,,578.2177,579.4153,a,1,0.5181,1,579.4154,579.9152,,,,,,90,MAS,NOWORD,DIS,150,guso,,la,,0.5181,,579.9152,579.9154,-0.006063707,-0.406506958,0,0,0,,0,221,221,89,1,humo,,,,
,,,,,,6150dc583977d6a9c20da620,676192165fb32c2e1fb7aee6,67d1e8021599fb84cdea5199,2025-03-12_14h01.57.325,Tarea de decisión léxica,2024.2.5,MacIntel,64.1025641,,,,,,,,,,,,,,,,,,,,,,,579.9166,581.0489,a,1,0.4574,1,581.049,581.5485,,,,,,216,FEM,NOWORD,AGR,150,raua,,la,,0.4574,,581.5485,581.5487,-0.006063707,-0.406506958,0,0,0,,0,222,222,215,1,raíz,,,,
,,,,,,6150dc583977d6a9c20da620,676192165fb32c2e1fb7aee6,67d1e8021599fb84cdea5199,2025-03-12_14h01.57.325,Tarea de decisión léxica,2024.2.5,MacIntel,64.1025641,,,,,,,,,,,,,,,,,,,,,,,581.5498,582.665,a,1,0.4374,1,582.6651,583.166,,,,,,166,FEM,NOWORD,DIS,150,dera,,el,,0.4374,,583.1679,583.1697,-0.006063707,-0.406506958,0,0,0,,0,223,223,165,1,vela,,,,
,,,,,,6150dc583977d6a9c20da620,676192165fb32c2e1fb7aee6,67d1e8021599fb84cdea5199,2025-03-12_14h01.57.325,Tarea de decisión léxica,2024.2.5,MacIntel,64.1025641,,,,,,,,,,,,,,,,,,,,,,,583.171,584.1659,l,1,0.3229,1,584.166,584.6652,,,,,,269,MAS,WORD,AGR,150,perro,,el,,0.3229,,584.6653,584.6654,-0.006063707,-0.406506958,0,0,0,,0,224,224,268,1,mello,,,,
,,,,,,6150dc583977d6a9c20da620,676192165fb32c2e1fb7aee6,67d1e8021599fb84cdea5199,2025-03-12_14h01.57.325,Tarea de decisión léxica,2024.2.5,MacIntel,64.1025641,,,,,,,,,,,,,,,,,,,,,,,584.6667,585.7827,l,1,0.4409,1,585.7827,586.2824,,,,,,121,MAS,WORD,AGR,150,hoyo,,el,,0.4409,,586.2826,586.2827,-0.006063707,-0.406506958,0,0,0,,0,225,225,120,1,bomo,,,,
,,,,,,6150dc583977d6a9c20da620,676192165fb32c2e1fb7aee6,67d1e8021599fb84cdea5199,2025-03-12_14h01.57.325,Tarea de decisión léxica,2024.2.5,MacIntel,64.1025641,,,,,,,,,,,,,,,,,,,,,,,586.2845,587.3994,a,1,0.4338,1,587.3995,587.8996,,,,,,182,FEM,NOWORD,DIS,150,teda,,el,,0.4338,,587.8996,587.8998,-0.006063707,-0.406506958,0,0,0,,0,226,226,181,1,seda,,,,
,,,,,,6150dc583977d6a9c20da620,676192165fb32c2e1fb7aee6,67d1e8021599fb84cdea5199,2025-03-12_14h01.57.325,Tarea de decisión léxica,2024.2.5,MacIntel,64.1025641,,,,,,,,,,,,,,,,,,,,,,,587.9016,589.0497,l,1,0.4683,1,589.0498,589.5496,,,,,,33,FEM,WORD,DIS,150,boca,,el,,0.4683,,589.5517,589.5535,-0.006063707,-0.406506958,0,0,0,,0,227,227,32,1,loda,,,,
,,,,,,6150dc583977d6a9c20da620,676192165fb32c2e1fb7aee6,67d1e8021599fb84cdea5199,2025-03-12_14h01.57.325,Tarea de decisión léxica,2024.2.5,MacIntel,64.1025641,,,,,,,,,,,,,,,,,,,,,,,589.5547,590.7326,l,1,0.5044,1,590.7328,591.2322,,,,,,337,MAS,WORD,DIS,150,huevo,,la,,0.5044,,591.2322,591.2324,-0.006063707,-0.406506958,0,0,0,,0,228,228,336,1,nuejo,,,,
,,,,,,6150dc583977d6a9c20da620,676192165fb32c2e1fb7aee6,67d1e8021599fb84cdea5199,2025-03-12_14h01.57.325,Tarea de decisión léxica,2024.2.5,MacIntel,64.1025641,,,,,,,,,,,,,,,,,,,,,,,591.2335,592.3159,l,1,0.4236,1,592.3159,592.8166,,,,,,63,FEM,WORD,AGR,150,luna,,la,,0.4236,,592.8166,592.8167,-0.006063707,-0.406506958,0,0,0,,0,229,229,62,1,funa,,,,
,,,,,,6150dc583977d6a9c20da620,676192165fb32c2e1fb7aee6,67d1e8021599fb84cdea5199,2025-03-12_14h01.57.325,Tarea de decisión léxica,2024.2.5,MacIntel,64.1025641,,,,,,,,,,,,,,,,,,,,,,,592.8186,594.0996,a,1,0.6045,1,594.0997,594.6,,,,,,458,MAS,NOWORD,DIS,150,glaco,,la,,0.6045,,594.6001,594.6002,-0.006063707,-0.406506958,0,0,0,,0,230,230,457,1,plato,,,,
,,,,,,6150dc583977d6a9c20da620,676192165fb32c2e1fb7aee6,67d1e8021599fb84cdea5199,2025-03-12_14h01.57.325,Tarea de decisión léxica,2024.2.5,MacIntel,64.1025641,,,,,,,,,,,,,,,,,,,,,,,594.6021,595.7002,l,1,0.4194,1,595.7004,596.2001,,,,,,397,FEM,WORD,AGR,150,tribu,,la,,0.4194,,596.2002,596.2003,-0.006063707,-0.406506958,0,0,0,,0,231,231,396,1,trigi,,,,
,,,,,,6150dc583977d6a9c20da620,676192165fb32c2e1fb7aee6,67d1e8021599fb84cdea5199,2025-03-12_14h01.57.325,Tarea de decisión léxica,2024.2.5,MacIntel,64.1025641,,,,,,,,,,,,,,,,,,,,,,,596.2026,597.3169,l,1,0.4355,1,597.317,597.8169,,,,,,407,FEM,WORD,DIS,150,cueva,,el,,0.4355,,597.819,597.8212,-0.006063707,-0.406506958,0,0,0,,0,232,232,406,1,cauba,,,,
,,,,,,6150dc583977d6a9c20da620,676192165fb32c2e1fb7aee6,67d1e8021599fb84cdea5199,2025-03-12_14h01.57.325,Tarea de decisión léxica,2024.2.5,MacIntel,64.1025641,,,,,,,,,,,,,,,,,,,,,,,597.8222,599.1832,a,1,0.6891,1,599.1833,599.6759,,,,,,208,MAS,NOWORD,AGR,150,kedo,,el,,0.6891,,599.6759,599.6761,-0.006063707,-0.406506958,0,0,0,,0,233,233,207,1,kilo,,,,
,,,,,,6150dc583977d6a9c20da620,676192165fb32c2e1fb7aee6,67d1e8021599fb84cdea5199,2025-03-12_14h01.57.325,Tarea de decisión léxica,2024.2.5,MacIntel,64.1025641,,,,,,,,,,,,,,,,,,,,,,,599.6768,600.6992,l,1,0.3532,1,600.6993,601.1996,,,,,,469,MAS,WORD,DIS,150,patio,,la,,0.3532,,601.1997,601.1997,-0.006063707,-0.406506958,0,0,0,,0,234,234,468,1,matia,,,,
,,,,,,6150dc583977d6a9c20da620,676192165fb32c2e1fb7aee6,67d1e8021599fb84cdea5199,2025-03-12_14h01.57.325,Tarea de decisión léxica,2024.2.5,MacIntel,64.1025641,,,,,,,,,,,,,,,,,,,,,,,601.2008,602.6159,l,1,0.7396,1,602.616,603.1172,,,,,,37,MAS,WORD,AGR,150,rato,,el,,0.7396,,603.1174,603.1175,-0.006063707,-0.406506958,0,0,0,,0,235,235,36,1,gaco,,,,
,,,,,,6150dc583977d6a9c20da620,676192165fb32c2e1fb7aee6,67d1e8021599fb84cdea5199,2025-03-12_14h01.57.325,Tarea de decisión léxica,2024.2.5,MacIntel,64.1025641,,,,,,,,,,,,,,,,,,,,,,,603.1193,604.2502,a,1,0.4518,1,604.2503,604.7507,,,,,,252,MAS,NOWORD,AGR,150,refor,,el,,0.4518,,604.7508,604.7509,-0.006063707,-0.406506958,0,0,0,,0,236,236,251,1,señor,,,,
,,,,,,6150dc583977d6a9c20da620,676192165fb32c2e1fb7aee6,67d1e8021599fb84cdea5199,2025-03-12_14h01.57.325,Tarea de decisión léxica,2024.2.5,MacIntel,64.1025641,,,,,,,,,,,,,,,,,,,,,,,604.7527,605.8342,l,0,0.402,0,605.8359,606.3339,,,,,,336,FEM,NOWORD,AGR,150,pesta,,la,,0.402,,606.3358,606.3376,-0.006063707,-0.406506958,0,0,0,,0,237,237,335,1,costa,,,,
,,,,,,6150dc583977d6a9c20da620,676192165fb32c2e1fb7aee6,67d1e8021599fb84cdea5199,2025-03-12_14h01.57.325,Tarea de decisión léxica,2024.2.5,MacIntel,64.1025641,,,,,,,,,,,,,,,,,,,,,,,606.339,608.0663,l,1,1.0544,1,608.0671,608.5672,,,,,,357,FEM,WORD,AGR,150,bruja,,la,,1.0544,,608.5673,608.5675,-0.006063707,-0.406506958,0,0,0,,0,238,238,356,1,gruba,,,,
,,,,,,6150dc583977d6a9c20da620,676192165fb32c2e1fb7aee6,67d1e8021599fb84cdea5199,2025-03-12_14h01.57.325,Tarea de decisión léxica,2024.2.5,MacIntel,64.1025641,,,,,,,,,,,,,,,,,,,,,,,608.5693,609.7838,a,0,0.5501,0,609.7847,610.2834,,,,,,219,FEM,WORD,AGR,150,pipa,,la,,0.5501,,610.2837,610.2838,-0.006063707,-0.406506958,0,0,0,,0,239,239,218,1,miva,,,,
,,,,,,6150dc583977d6a9c20da620,676192165fb32c2e1fb7aee6,67d1e8021599fb84cdea5199,2025-03-12_14h01.57.325,Tarea de decisión léxica,2024.2.5,MacIntel,64.1025641,,,,,,,,,,,,,,,,,,,,,,,610.285,611.5505,l,1,0.592,1,611.5512,612.0508,,,,,,157,MAS,WORD,AGR,150,nido,,el,,0.592,,612.0509,612.051,-0.006063707,-0.406506958,0,0,0,,0,240,240,156,1,hico,,,,
,,,,,,6150dc583977d6a9c20da620,676192165fb32c2e1fb7aee6,67d1e8021599fb84cdea5199,2025-03-12_14h01.57.325,Tarea de decisión léxica,2024.2.5,MacIntel,64.1025641,,,,,,,,,,,,,,,,,,,,,,,612.0528,613.2846,a,1,0.5557,1,613.2846,613.7843,,,,,,56,MAS,NOWORD,AGR,150,jado,,el,,0.5557,,613.7843,613.7844,-0.006063707,-0.406506958,0,0,0,,0,241,241,55,1,gato,,,,
,,,,,,6150dc583977d6a9c20da620,676192165fb32c2e1fb7aee6,67d1e8021599fb84cdea5199,2025-03-12_14h01.57.325,Tarea de decisión léxica,2024.2.5,MacIntel,64.1025641,,,,,,,,,,,,,,,,,,,,,,,613.7857,614.7683,l,1,0.3065,1,614.7683,615.2682,,,,,,477,MAS,WORD,AGR,150,botón,,el,,0.3065,,615.2703,615.2725,-0.006063707,-0.406506958,0,0,0,,0,242,242,476,1,hocon,,,,
,,,,,,6150dc583977d6a9c20da620,676192165fb32c2e1fb7aee6,67d1e8021599fb84cdea5199,2025-03-12_14h01.57.325,Tarea de decisión léxica,2024.2.5,MacIntel,64.1025641,,,,,,,,,,,,,,,,,,,,,,,615.2736,616.8347,a,1,0.8859,1,616.8348,617.3349,,,,,,40,MAS,NOWORD,AGR,150,redo,,el,,0.8859,,617.335,617.3352,-0.006063707,-0.406506958,0,0,0,,0,243,243,39,1,voto,,,,
,,,,,,6150dc583977d6a9c20da620,676192165fb32c2e1fb7aee6,67d1e8021599fb84cdea5199,2025-03-12_14h01.57.325,Tarea de decisión léxica,2024.2.5,MacIntel,64.1025641,,,,,,,,,,,,,,,,,,,,,,,617.3371,618.4342,l,1,0.4195,1,618.4343,618.9371,,,,,,341,MAS,WORD,DIS,150,valor,,la,,0.4195,,618.9378,618.9381,-0.006063707,-0.406506958,0,0,0,,0,244,244,340,1,daror,,,,
,,,,,,6150dc583977d6a9c20da620,676192165fb32c2e1fb7aee6,67d1e8021599fb84cdea5199,2025-03-12_14h01.57.325,Tarea de decisión léxica,2024.2.5,MacIntel,64.1025641,,,,,,,,,,,,,,,,,,,,,,,618.9402,620.0695,l,1,0.4577,1,620.0696,620.5686,,,,,,177,MAS,WORD,DIS,150,reto,,la,,0.4577,,620.5686,620.5687,-0.006063707,-0.406506958,0,0,0,,0,245,245,176,1,bito,,,,
,,,,,,6150dc583977d6a9c20da620,676192165fb32c2e1fb7aee6,67d1e8021599fb84cdea5199,2025-03-12_14h01.57.325,Tarea de decisión léxica,2024.2.5,MacIntel,64.1025641,,,,,,,,,,,,,,,,,,,,,,,620.5706,621.6519,l,1,0.403,1,621.6519,622.1515,,,,,,11,MAS,WORD,AGR,150,lado,,el,,0.403,,622.1515,622.1517,-0.006063707,-0.406506958,0,0,0,,0,246,246,10,1,bapo,,,,
,,,,,,6150dc583977d6a9c20da620,676192165fb32c2e1fb7aee6,67d1e8021599fb84cdea5199,2025-03-12_14h01.57.325,Tarea de decisión léxica,2024.2.5,MacIntel,64.1025641,,,,,,,,,,,,,,,,,,,,,,,622.1536,623.1686,a,1,0.3324,1,623.1687,623.6687,,,,,,318,FEM,NOWORD,DIS,150,plaad,,el,,0.3324,,623.6708,623.673,-0.006063707,-0.406506958,0,0,0,,0,247,247,317,1,playa,,,,
,,,,,,6150dc583977d6a9c20da620,676192165fb32c2e1fb7aee6,67d1e8021599fb84cdea5199,2025-03-12_14h01.57.325,Tarea de decisión léxica,2024.2.5,MacIntel,64.1025641,,,,,,,,,,,,,,,,,,,,,,,623.674,624.7681,l,1,0.4209,1,624.7682,625.2687,,,,,,437,FEM,WORD,AGR,150,plaza,,la,,0.4209,,625.2687,625.2689,-0.006063707,-0.406506958,0,0,0,,0,248,248,436,1,glava,,,,
,,,,,,6150dc583977d6a9c20da620,676192165fb32c2e1fb7aee6,67d1e8021599fb84cdea5199,2025-03-12_14h01.57.325,Tarea de decisión léxica,2024.2.5,MacIntel,64.1025641,,,,,,,,,,,,,,,,,,,,,,,625.2708,626.3688,l,1,0.4175,1,626.3689,626.8689,,,,,,333,FEM,WORD,DIS,150,tarea,,el,,0.4175,,626.869,626.869,-0.006063707,-0.406506958,0,0,0,,0,249,249,332,1,dalea,,,,
,,,,,,6150dc583977d6a9c20da620,676192165fb32c2e1fb7aee6,67d1e8021599fb84cdea5199,2025-03-12_14h01.57.325,Tarea de decisión léxica,2024.2.5,MacIntel,64.1025641,,,,,,,,,,,,,,,,,,,,,,,626.871,628.8184,l,1,1.2711,1,628.8185,629.3182,,,,,,233,FEM,WORD,AGR,150,lana,,la,,1.2711,,629.3183,629.3184,-0.006063707,-0.406506958,0,0,0,,0,250,250,232,1,fasa,,,,
,,,,,,6150dc583977d6a9c20da620,676192165fb32c2e1fb7aee6,67d1e8021599fb84cdea5199,2025-03-12_14h01.57.325,Tarea de decisión léxica,2024.2.5,MacIntel,64.1025641,,,,,,,,,,,,,,,,,,,,,,,629.3194,630.3517,l,1,0.3546,1,630.3518,630.8513,,,,,,321,MAS,WORD,DIS,150,banco,,la,,0.3546,,630.8524,630.854,-0.006063707,-0.406506958,0,0,0,,0,251,251,320,1,rarco,,,,
,,,,,,6150dc583977d6a9c20da620,676192165fb32c2e1fb7aee6,67d1e8021599fb84cdea5199,2025-03-12_14h01.57.325,Tarea de decisión léxica,2024.2.5,MacIntel,64.1025641,,,,,,,,,,,,,,,,,,,,,,,630.8552,632.0517,a,1,0.5177,1,632.0518,632.552,,,,,,132,FEM,NOWORD,AGR,150,fada,,la,,0.5177,,632.5521,632.5522,-0.006063707,-0.406506958,0,0,0,,0,252,252,131,1,mina,,,,
,,,,,,6150dc583977d6a9c20da620,676192165fb32c2e1fb7aee6,67d1e8021599fb84cdea5199,2025-03-12_14h01.57.325,Tarea de decisión léxica,2024.2.5,MacIntel,64.1025641,,,,,,,,,,,,,,,,,,,,,,,632.5543,633.8688,l,1,0.6357,1,633.8689,634.3691,,,,,,347,FEM,WORD,DIS,150,pieza,,el,,0.6357,,634.3691,634.3692,-0.006063707,-0.406506958,0,0,0,,0,253,253,346,1,mueza,,,,
,,,,,,6150dc583977d6a9c20da620,676192165fb32c2e1fb7aee6,67d1e8021599fb84cdea5199,2025-03-12_14h01.57.325,Tarea de decisión léxica,2024.2.5,MacIntel,64.1025641,,,,,,,,,,,,,,,,,,,,,,,634.3711,636.0363,a,1,0.991,1,636.0364,636.5356,,,,,,250,FEM,NOWORD,DIS,150,plane,,el,,0.991,,636.5357,636.5358,-0.006063707,-0.406506958,0,0,0,,0,254,254,249,1,clase,,,,
,,,,,,6150dc583977d6a9c20da620,676192165fb32c2e1fb7aee6,67d1e8021599fb84cdea5199,2025-03-12_14h01.57.325,Tarea de decisión léxica,2024.2.5,MacIntel,64.1025641,,,,,,,,,,,,,,,,,,,,,,,636.5373,637.6692,a,1,0.4512,1,637.6692,638.1693,,,,,,214,FEM,NOWORD,DIS,150,bana,,el,,0.4512,,638.1694,638.1695,-0.006063707,-0.406506958,0,0,0,,0,255,255,213,1,rama,,,,
,,,,,,6150dc583977d6a9c20da620,676192165fb32c2e1fb7aee6,67d1e8021599fb84cdea5199,2025-03-12_14h01.57.325,Tarea de decisión léxica,2024.2.5,MacIntel,64.1025641,,,,,,,,,,,,,,,,,,,,,,,638.1708,639.2869,l,1,0.4421,1,639.2871,639.7863,,,,,,331,MAS,WORD,AGR,150,éxito,,el,,0.4421,,639.7884,639.7901,-0.006063707,-0.406506958,0,0,0,,0,256,256,330,1,erato,,,,
,,,,,,6150dc583977d6a9c20da620,676192165fb32c2e1fb7aee6,67d1e8021599fb84cdea5199,2025-03-12_14h01.57.325,Tarea de decisión léxica,2024.2.5,MacIntel,64.1025641,,,,,,,,,,,,,,,,,,,,,,,639.7914,640.952,a,1,0.4879,1,640.9521,641.4528,,,,,,466,FEM,NOWORD,DIS,150,asuba,,el,,0.4879,,641.4529,641.453,-0.006063707,-0.406506958,0,0,0,,0,257,257,465,1,aguja,,,,
,,,,,,6150dc583977d6a9c20da620,676192165fb32c2e1fb7aee6,67d1e8021599fb84cdea5199,2025-03-12_14h01.57.325,Tarea de decisión léxica,2024.2.5,MacIntel,64.1025641,,,,,,,,,,,,,,,,,,,,,,,641.4548,642.3691,l,0,0.2403,0,642.3701,642.87,,,,,,206,FEM,NOWORD,DIS,150,bara,,el,,0.2403,,642.87,642.8702,-0.006063707,-0.406506958,0,0,0,,0,258,258,205,1,rana,,,,
,,,,,,6150dc583977d6a9c20da620,676192165fb32c2e1fb7aee6,67d1e8021599fb84cdea5199,2025-03-12_14h01.57.325,Tarea de decisión léxica,2024.2.5,MacIntel,64.1025641,,,,,,,,,,,,,,,,,,,,,,,642.8721,644.1196,a,1,0.5671,1,644.1208,644.6201,,,,,,334,FEM,NOWORD,DIS,150,dalea,,el,,0.5671,,644.6202,644.6203,-0.006063707,-0.406506958,0,0,0,,0,259,259,333,1,tarea,,,,
,,,,,,6150dc583977d6a9c20da620,676192165fb32c2e1fb7aee6,67d1e8021599fb84cdea5199,2025-03-12_14h01.57.325,Tarea de decisión léxica,2024.2.5,MacIntel,64.1025641,,,,,,,,,,,,,,,,,,,,,,,644.6222,645.8035,l,1,0.5033,1,645.8036,646.3036,,,,,,345,FEM,WORD,AGR,150,arena,,la,,0.5033,,646.3036,646.3037,-0.006063707,-0.406506958,0,0,0,,0,260,260,344,1,anera,,,,
,,,,,,6150dc583977d6a9c20da620,676192165fb32c2e1fb7aee6,67d1e8021599fb84cdea5199,2025-03-12_14h01.57.325,Tarea de decisión léxica,2024.2.5,MacIntel,64.1025641,,,,,,,,,,,,,,,,,,,,,,,646.3056,647.9869,l,1,1.0032,1,647.987,648.4868,,,,,,87,MAS,WORD,AGR,150,vaso,,el,,1.0032,,648.4888,648.4907,-0.006063707,-0.406506958,0,0,0,,0,261,261,86,1,damo,,,,
