counterbalancing_condition,consent_prescreening.block_1/declare_consent,consent_prescreening.block_1/age_years,consent_prescreening.block_1/gender,consent_prescreening.block_1/language_disorder,consent_prescreening.block_1/first_language,PROLIFIC_PID,STUDY_ID,SESSION_ID,date,expName,psychopyVersion,OS,frameRate,check_prescreening_answers.started,check_prescreening_answers.stopped,Instructions.started,Instructions.stopped,instr_done_keyboard.keys,instr_done_keyboard.rt,instr_done_keyboard.duration,instr_done_touch.x,instr_done_touch.y,instr_done_touch.leftButton,instr_done_touch.midButton,instr_done_touch.rightButton,instruction_pages.thisRepN,instruction_pages.thisTrialN,instruction_pages.thisN,instruction_pages.thisIndex,instruction_pages.ran,pageN,phase,instruct_text,has_image,instruct_image,presentTrial.started,presentTrial.stopped,response.keys,response.corr,rt,corr,feedback.started,feedback.stopped,practice_trials.thisRepN,practice_trials.thisTrialN,practice_trials.thisN,practice_trials.thisIndex,practice_trials.ran,TrialID,Gender,StimulusType,Condition,PrimeDuration,Prime,len,Flanker,corrAns,response.rt,response.duration,Break.started,Break.stopped,break_done_touch.x,break_done_touch.y,break_done_touch.leftButton,break_done_touch.midButton,break_done_touch.rightButton,break_done_keyboard.keys,experiment_trials.thisRepN,experiment_trials.thisTrialN,experiment_trials.thisN,experiment_trials.thisIndex,experiment_trials.ran,PairedWith,break_done_keyboard.rt,break_done_keyboard.duration,End.started,End.stopped
0,"[""over_18"",""comfortable"",""read_info"",""consent_given""]",18,M,"[""none""]","[""spanish""]",6169abd4e006adba4739143e,676192165fb32c2e1fb7aee6,67d0b2661560e6b911c8b53a,2025-03-11_16h00.54.930,Tarea de decisión léxica,2024.2.5,Win32,59.88023952,,,,,,,,,,,,,,,,,,,,,,,,,,,,,,,,,,,,,,,,,,,,,,,,,,,,,,,,,,,,,,,,
,,,,,,6169abd4e006adba4739143e,676192165fb32c2e1fb7aee6,67d0b2661560e6b911c8b53a,2025-03-11_16h00.54.930,Tarea de decisión léxica,2024.2.5,Win32,59.88023952,70.5129,70.5133,,,,,,,,,,,,,,,,,,,,,,,,,,,,,,,,,,,,,,,,,,,,,,,,,,,,,,,,,,,,,,
,,,,,,6169abd4e006adba4739143e,676192165fb32c2e1fb7aee6,67d0b2661560e6b911c8b53a,2025-03-11_16h00.54.930,Tarea de decisión léxica,2024.2.5,Win32,59.88023952,,,70.5573,96.8794,space,26.2834,,0.612037094,-0.205555598,0,0,0,0,0,0,0,1,1,instructions,"INSTRUCCIONES
Va a realizar una prueba de decisión léxica. Desde el comienzo de la prueba mire siempre al centro de la pantalla. Se presentará una serie de cadenas de letras, una a la vez, en la pantalla. Su tarea consiste en determinar si cada cadena de letras constituye una palabra real en español o una no-palabra (una secuencia de letras que no constituye una palabra real). 

Pulse la tecla ESPACIO para continuar.",0,keyboardresponseWN.png,,,,,,,,,,,,,,,,,,,,,,,,,,,,,,,,,,,,,,,,,,
,,,,,,6169abd4e006adba4739143e,676192165fb32c2e1fb7aee6,67d0b2661560e6b911c8b53a,2025-03-11_16h00.54.930,Tarea de decisión léxica,2024.2.5,Win32,59.88023952,,,96.8848,115.8181,space,18.907,,0.612037094,-0.205555598,0,0,0,0,1,1,1,1,2,instructions,"El procedimiento es el siguiente: Aparecerán dos barras verticales posicionadas en el centro de la pantalla, separadas por un pequeño espacio.Por favor, enfoque su atención en el espacio entre las barras. Esto preparará sus ojos para la siguiente cadena de letras, que aparecerá entre las dos barras durante un instante.

Pulse la tecla ESPACIO para continuar.",0,keyboardresponseNW.png,,,,,,,,,,,,,,,,,,,,,,,,,,,,,,,,,,,,,,,,,,
,,,,,,6169abd4e006adba4739143e,676192165fb32c2e1fb7aee6,67d0b2661560e6b911c8b53a,2025-03-11_16h00.54.930,Tarea de decisión léxica,2024.2.5,Win32,59.88023952,,,115.8206,128.214,space,12.3492,,0.612037094,-0.205555598,0,0,0,0,2,2,2,1,3,instructions,"En el teclado de su dispositivo, pulse la tecla ""A"" si la cadena de letras es una palabra real en español (por ejemplo: ""mano"") y la tecla ""L"" si la cadena de letras es una no-palabra (por ejemplo: ""minu"").
Pulse la tecla ESPACIO para continuar.",1,keyboardresponseWN.png,,,,,,,,,,,,,,,,,,,,,,,,,,,,,,,,,,,,,,,,,,
,,,,,,6169abd4e006adba4739143e,676192165fb32c2e1fb7aee6,67d0b2661560e6b911c8b53a,2025-03-11_16h00.54.930,Tarea de decisión léxica,2024.2.5,Win32,59.88023952,,,128.2208,137.6772,space,9.4273,,0.612037094,-0.205555598,0,0,0,0,3,3,3,1,4,instructions,"Es muy importante que responda con la mayor rapidez y precisión posibles. Si no responde dentro de 2 segundos, aparecerá el mensaje ""Muy lento"" y el experimento pasará a la siguiente palabra. Inmediatamente después de su respuesta se indicará si fue correcta o no. Los primeros 15 intentos serán de práctica y habrá dos descansos durante la prueba.

Pulse la tecla ESPACIO  para iniciar la parte de práctica.",0,keyboardresponseWN.png,,,,,,,,,,,,,,,,,,,,,,,,,,,,,,,,,,,,,,,,,,
,,,,,,6169abd4e006adba4739143e,676192165fb32c2e1fb7aee6,67d0b2661560e6b911c8b53a,2025-03-11_16h00.54.930,Tarea de decisión léxica,2024.2.5,Win32,59.88023952,,,,,,,,,,,,,,,,,,,,,,,137.7051,140.3438,,0,,-1,140.3445,140.8432,0,0,0,0,1,1001,FEM,NOWORD,AGR,150,croz,4,la,a,,,,,,,,,,,,,,,,,,,,
,,,,,,6169abd4e006adba4739143e,676192165fb32c2e1fb7aee6,67d0b2661560e6b911c8b53a,2025-03-11_16h00.54.930,Tarea de decisión léxica,2024.2.5,Win32,59.88023952,,,,,,,,,,,,,,,,,,,,,,,140.8462,142.3757,a,1,0.858,1,142.3976,142.8761,0,1,1,8,1,1009,FEM,WORD,AGR,150,viejo,5,la,l,0.858,,,,,,,,,,,,,,,,,,,
,,,,,,6169abd4e006adba4739143e,676192165fb32c2e1fb7aee6,67d0b2661560e6b911c8b53a,2025-03-11_16h00.54.930,Tarea de decisión léxica,2024.2.5,Win32,59.88023952,,,,,,,,,,,,,,,,,,,,,,,142.8789,144.5418,a,1,0.9855,1,144.542,145.0414,0,2,2,9,1,1010,MAS,WORD,DIS,150,video,5,la,l,0.9855,,,,,,,,,,,,,,,,,,,
,,,,,,6169abd4e006adba4739143e,676192165fb32c2e1fb7aee6,67d0b2661560e6b911c8b53a,2025-03-11_16h00.54.930,Tarea de decisión léxica,2024.2.5,Win32,59.88023952,,,,,,,,,,,,,,,,,,,,,,,145.0429,146.558,a,1,0.845,1,146.5582,147.0574,0,3,3,5,1,1006,FEM,WORD,AGR,150,cara,4,la,l,0.845,,,,,,,,,,,,,,,,,,,
,,,,,,6169abd4e006adba4739143e,676192165fb32c2e1fb7aee6,67d0b2661560e6b911c8b53a,2025-03-11_16h00.54.930,Tarea de decisión léxica,2024.2.5,Win32,59.88023952,,,,,,,,,,,,,,,,,,,,,,,147.0599,148.623,a,1,0.8828,1,148.6232,149.1229,0,4,4,6,1,1007,MAS,WORD,DIS,150,masa,4,la,l,0.8828,,,,,,,,,,,,,,,,,,,
,,,,,,6169abd4e006adba4739143e,676192165fb32c2e1fb7aee6,67d0b2661560e6b911c8b53a,2025-03-11_16h00.54.930,Tarea de decisión léxica,2024.2.5,Win32,59.88023952,,,,,,,,,,,,,,,,,,,,,,,149.1244,150.7391,a,1,0.9434,1,150.7392,151.2392,0,5,5,7,1,1008,MAS,WORD,DIS,150,frío,4,la,l,0.9434,,,,,,,,,,,,,,,,,,,
,,,,,,6169abd4e006adba4739143e,676192165fb32c2e1fb7aee6,67d0b2661560e6b911c8b53a,2025-03-11_16h00.54.930,Tarea de decisión léxica,2024.2.5,Win32,59.88023952,,,,,,,,,,,,,,,,,,,,,,,151.2413,152.6887,l,1,0.7682,1,152.6888,153.1885,0,6,6,2,1,1003,FEM,NOWORD,DIS,150,muvor,5,el,a,0.7682,,,,,,,,,,,,,,,,,,,
,,,,,,6169abd4e006adba4739143e,676192165fb32c2e1fb7aee6,67d0b2661560e6b911c8b53a,2025-03-11_16h00.54.930,Tarea de decisión léxica,2024.2.5,Win32,59.88023952,,,,,,,,,,,,,,,,,,,,,,,153.1903,154.588,l,1,0.7183,1,154.5882,155.088,0,7,7,4,1,1005,MAS,NOWORD,DIS,150,nobad,5,la,a,0.7183,,,,,,,,,,,,,,,,,,,
,,,,,,6169abd4e006adba4739143e,676192165fb32c2e1fb7aee6,67d0b2661560e6b911c8b53a,2025-03-11_16h00.54.930,Tarea de decisión léxica,2024.2.5,Win32,59.88023952,,,,,,,,,,,,,,,,,,,,,,,155.0896,156.7039,l,1,0.9354,1,156.7041,157.2038,0,8,8,3,1,1004,FEM,NOWORD,AGR,150,bireo,5,la,a,0.9354,,,,,,,,,,,,,,,,,,,
,,,,,,6169abd4e006adba4739143e,676192165fb32c2e1fb7aee6,67d0b2661560e6b911c8b53a,2025-03-11_16h00.54.930,Tarea de decisión léxica,2024.2.5,Win32,59.88023952,,,,,,,,,,,,,,,,,,,,,,,157.2051,158.8701,a,0,0.9857,0,158.872,159.3699,0,9,9,1,1,1002,FEM,NOWORD,DIS,150,mabo,4,el,a,0.9857,,,,,,,,,,,,,,,,,,,
,,,,,,6169abd4e006adba4739143e,676192165fb32c2e1fb7aee6,67d0b2661560e6b911c8b53a,2025-03-11_16h00.54.930,Tarea de decisión léxica,2024.2.5,Win32,59.88023952,,,164.1221,166.9012,space,2.7537,,0.612037094,-0.205555598,0,0,0,,,,,,,,,,,166.9544,168.4832,a,0,0.8494,0,168.4833,168.9834,,,,,,154,MAS,NOWORD,DIS,150,tado,,la,,0.8494,,168.9842,168.9956,0.612037094,-0.205555598,0,0,0,,0,0,0,153,1,pato,,,,
,,,,,,6169abd4e006adba4739143e,676192165fb32c2e1fb7aee6,67d0b2661560e6b911c8b53a,2025-03-11_16h00.54.930,Tarea de decisión léxica,2024.2.5,Win32,59.88023952,,,,,,,,,,,,,,,,,,,,,,,168.9972,170.1993,a,1,0.5437,1,170.2004,170.6997,,,,,,329,MAS,WORD,DIS,150,hueso,,la,,0.5437,,170.6998,170.7001,0.612037094,-0.205555598,0,0,0,,0,1,1,328,1,nueno,,,,
,,,,,,6169abd4e006adba4739143e,676192165fb32c2e1fb7aee6,67d0b2661560e6b911c8b53a,2025-03-11_16h00.54.930,Tarea de decisión léxica,2024.2.5,Win32,59.88023952,,,,,,,,,,,,,,,,,,,,,,,170.7021,171.7988,l,1,0.4244,1,171.7989,172.2987,,,,,,218,MAS,NOWORD,DIS,150,budo,,la,,0.4244,,172.3003,172.3012,0.612037094,-0.205555598,0,0,0,,0,2,2,217,1,luto,,,,
,,,,,,6169abd4e006adba4739143e,676192165fb32c2e1fb7aee6,67d0b2661560e6b911c8b53a,2025-03-11_16h00.54.930,Tarea de decisión léxica,2024.2.5,Win32,59.88023952,,,,,,,,,,,,,,,,,,,,,,,172.3023,173.5149,a,1,0.5348,1,173.5151,174.0152,,,,,,351,MAS,WORD,DIS,150,vuelo,,la,,0.5348,,174.0154,174.0158,0.612037094,-0.205555598,0,0,0,,0,3,3,350,1,duepo,,,,
,,,,,,6169abd4e006adba4739143e,676192165fb32c2e1fb7aee6,67d0b2661560e6b911c8b53a,2025-03-11_16h00.54.930,Tarea de decisión léxica,2024.2.5,Win32,59.88023952,,,,,,,,,,,,,,,,,,,,,,,174.0187,175.5313,l,1,0.8427,1,175.5316,176.0312,,,,,,244,MAS,NOWORD,AGR,150,asamo,,el,,0.8427,,176.0313,176.0317,0.612037094,-0.205555598,0,0,0,,0,4,4,243,1,amigo,,,,
,,,,,,6169abd4e006adba4739143e,676192165fb32c2e1fb7aee6,67d0b2661560e6b911c8b53a,2025-03-11_16h00.54.930,Tarea de decisión léxica,2024.2.5,Win32,59.88023952,,,,,,,,,,,,,,,,,,,,,,,176.036,177.264,a,1,0.551,1,177.2641,177.7636,,,,,,421,MAS,WORD,DIS,150,primo,,la,,0.551,,177.7637,177.764,0.612037094,-0.205555598,0,0,0,,0,5,5,420,1,griso,,,,
,,,,,,6169abd4e006adba4739143e,676192165fb32c2e1fb7aee6,67d0b2661560e6b911c8b53a,2025-03-11_16h00.54.930,Tarea de decisión léxica,2024.2.5,Win32,59.88023952,,,,,,,,,,,,,,,,,,,,,,,177.7651,179.0796,l,1,0.6394,1,179.0798,179.5795,,,,,,376,FEM,NOWORD,AGR,150,sasna,,la,,0.6394,,179.5796,179.5797,0.612037094,-0.205555598,0,0,0,,0,6,6,375,1,salsa,,,,
,,,,,,6169abd4e006adba4739143e,676192165fb32c2e1fb7aee6,67d0b2661560e6b911c8b53a,2025-03-11_16h00.54.930,Tarea de decisión léxica,2024.2.5,Win32,59.88023952,,,,,,,,,,,,,,,,,,,,,,,179.5807,181.0121,l,1,0.7535,1,181.0121,181.5127,,,,,,68,FEM,NOWORD,AGR,150,gesa,,la,,0.7535,,181.5154,181.5172,0.612037094,-0.205555598,0,0,0,,0,7,7,67,1,nena,,,,
,,,,,,6169abd4e006adba4739143e,676192165fb32c2e1fb7aee6,67d0b2661560e6b911c8b53a,2025-03-11_16h00.54.930,Tarea de decisión léxica,2024.2.5,Win32,59.88023952,,,,,,,,,,,,,,,,,,,,,,,181.5188,183.128,a,0,0.9344,0,183.1285,183.628,,,,,,302,FEM,NOWORD,DIS,150,ranga,,el,,0.9344,,183.6281,183.6282,0.612037094,-0.205555598,0,0,0,,0,8,8,301,1,banda,,,,
,,,,,,6169abd4e006adba4739143e,676192165fb32c2e1fb7aee6,67d0b2661560e6b911c8b53a,2025-03-11_16h00.54.930,Tarea de decisión léxica,2024.2.5,Win32,59.88023952,,,,,,,,,,,,,,,,,,,,,,,183.6287,184.9275,a,1,0.628,1,184.9281,185.4274,,,,,,397,FEM,WORD,AGR,150,tribu,,la,,0.628,,185.4274,185.4275,0.612037094,-0.205555598,0,0,0,,0,9,9,396,1,trigi,,,,
,,,,,,6169abd4e006adba4739143e,676192165fb32c2e1fb7aee6,67d0b2661560e6b911c8b53a,2025-03-11_16h00.54.930,Tarea de decisión léxica,2024.2.5,Win32,59.88023952,,,,,,,,,,,,,,,,,,,,,,,185.4282,187.1602,l,1,1.0599,1,187.1602,187.6601,,,,,,432,MAS,NOWORD,AGR,150,tetor,,el,,1.0599,,187.6602,187.6603,0.612037094,-0.205555598,0,0,0,,0,10,10,431,1,motor,,,,
,,,,,,6169abd4e006adba4739143e,676192165fb32c2e1fb7aee6,67d0b2661560e6b911c8b53a,2025-03-11_16h00.54.930,Tarea de decisión léxica,2024.2.5,Win32,59.88023952,,,,,,,,,,,,,,,,,,,,,,,187.6612,189.0266,l,1,0.6911,1,189.0268,189.5265,,,,,,98,MAS,NOWORD,DIS,150,fopo,,la,,0.6911,,189.5288,189.5302,0.612037094,-0.205555598,0,0,0,,0,11,11,97,1,mono,,,,
,,,,,,6169abd4e006adba4739143e,676192165fb32c2e1fb7aee6,67d0b2661560e6b911c8b53a,2025-03-11_16h00.54.930,Tarea de decisión léxica,2024.2.5,Win32,59.88023952,,,,,,,,,,,,,,,,,,,,,,,189.5317,190.759,a,1,0.559,1,190.7592,191.2594,,,,,,31,FEM,WORD,AGR,150,ropa,,la,,0.559,,191.2594,191.2596,0.612037094,-0.205555598,0,0,0,,0,12,12,30,1,bova,,,,
,,,,,,6169abd4e006adba4739143e,676192165fb32c2e1fb7aee6,67d0b2661560e6b911c8b53a,2025-03-11_16h00.54.930,Tarea de decisión léxica,2024.2.5,Win32,59.88023952,,,,,,,,,,,,,,,,,,,,,,,191.2613,192.9751,l,1,1.0341,1,192.9752,193.475,,,,,,426,FEM,NOWORD,DIS,150,virca,,el,,1.0341,,193.4751,193.4753,0.612037094,-0.205555598,0,0,0,,0,13,13,425,1,viuda,,,,
,,,,,,6169abd4e006adba4739143e,676192165fb32c2e1fb7aee6,67d0b2661560e6b911c8b53a,2025-03-11_16h00.54.930,Tarea de decisión léxica,2024.2.5,Win32,59.88023952,,,,,,,,,,,,,,,,,,,,,,,193.4766,194.9242,a,0,0.776,0,194.9247,195.4241,,,,,,52,FEM,NOWORD,AGR,150,mava,,la,,0.776,,195.4241,195.4242,0.612037094,-0.205555598,0,0,0,,0,14,14,51,1,caja,,,,
,,,,,,6169abd4e006adba4739143e,676192165fb32c2e1fb7aee6,67d0b2661560e6b911c8b53a,2025-03-11_16h00.54.930,Tarea de decisión léxica,2024.2.5,Win32,59.88023952,,,,,,,,,,,,,,,,,,,,,,,195.4251,196.6403,a,1,0.5418,1,196.6409,197.1408,,,,,,369,MAS,WORD,AGR,150,ruido,,el,,0.5418,,197.1408,197.141,0.612037094,-0.205555598,0,0,0,,0,15,15,368,1,rioco,,,,
,,,,,,6169abd4e006adba4739143e,676192165fb32c2e1fb7aee6,67d0b2661560e6b911c8b53a,2025-03-11_16h00.54.930,Tarea de decisión léxica,2024.2.5,Win32,59.88023952,,,,,,,,,,,,,,,,,,,,,,,197.1428,198.4899,l,1,0.6677,1,198.4899,198.9895,,,,,,62,FEM,NOWORD,DIS,150,efla,,el,,0.6677,,198.9907,198.9914,0.612037094,-0.205555598,0,0,0,,0,16,16,61,1,obra,,,,
,,,,,,6169abd4e006adba4739143e,676192165fb32c2e1fb7aee6,67d0b2661560e6b911c8b53a,2025-03-11_16h00.54.930,Tarea de decisión léxica,2024.2.5,Win32,59.88023952,,,,,,,,,,,,,,,,,,,,,,,198.9922,200.4724,l,1,0.8059,1,200.4724,200.9721,,,,,,190,MAS,NOWORD,DIS,150,muvo,,la,,0.8059,,200.9721,200.9722,0.612037094,-0.205555598,0,0,0,,0,17,17,189,1,puño,,,,
,,,,,,6169abd4e006adba4739143e,676192165fb32c2e1fb7aee6,67d0b2661560e6b911c8b53a,2025-03-11_16h00.54.930,Tarea de decisión léxica,2024.2.5,Win32,59.88023952,,,,,,,,,,,,,,,,,,,,,,,200.9727,202.6718,l,1,1.0167,1,202.6719,203.1715,,,,,,8,MAS,NOWORD,AGR,150,nivo,,el,,1.0167,,203.1715,203.1715,0.612037094,-0.205555598,0,0,0,,0,18,18,7,1,hijo,,,,
,,,,,,6169abd4e006adba4739143e,676192165fb32c2e1fb7aee6,67d0b2661560e6b911c8b53a,2025-03-11_16h00.54.930,Tarea de decisión léxica,2024.2.5,Win32,59.88023952,,,,,,,,,,,,,,,,,,,,,,,203.1721,204.4877,a,0,0.6394,0,204.4884,204.9875,,,,,,248,FEM,NOWORD,AGR,150,trida,,la,,0.6394,,204.9876,204.9876,0.612037094,-0.205555598,0,0,0,,0,19,19,247,1,chica,,,,
,,,,,,6169abd4e006adba4739143e,676192165fb32c2e1fb7aee6,67d0b2661560e6b911c8b53a,2025-03-11_16h00.54.930,Tarea de decisión léxica,2024.2.5,Win32,59.88023952,,,,,,,,,,,,,,,,,,,,,,,204.9885,206.6202,a,1,0.9511,1,206.6207,207.1205,,,,,,221,FEM,WORD,DIS,150,mula,,el,,0.9511,,207.1205,207.1207,0.612037094,-0.205555598,0,0,0,,0,20,20,220,1,puca,,,,
,,,,,,6169abd4e006adba4739143e,676192165fb32c2e1fb7aee6,67d0b2661560e6b911c8b53a,2025-03-11_16h00.54.930,Tarea de decisión léxica,2024.2.5,Win32,59.88023952,,,,,,,,,,,,,,,,,,,,,,,207.1221,208.4369,l,1,0.6447,1,208.4372,208.9364,,,,,,398,FEM,NOWORD,DIS,150,trigi,,el,,0.6447,,208.9404,208.9417,0.612037094,-0.205555598,0,0,0,,0,21,21,397,1,tribu,,,,
,,,,,,6169abd4e006adba4739143e,676192165fb32c2e1fb7aee6,67d0b2661560e6b911c8b53a,2025-03-11_16h00.54.930,Tarea de decisión léxica,2024.2.5,Win32,59.88023952,,,,,,,,,,,,,,,,,,,,,,,208.9431,210.1024,a,1,0.4894,1,210.1024,210.6026,,,,,,307,MAS,WORD,DIS,150,hotel,,la,,0.4894,,210.6028,210.603,0.612037094,-0.205555598,0,0,0,,0,22,22,306,1,holol,,,,
,,,,,,6169abd4e006adba4739143e,676192165fb32c2e1fb7aee6,67d0b2661560e6b911c8b53a,2025-03-11_16h00.54.930,Tarea de decisión léxica,2024.2.5,Win32,59.88023952,,,,,,,,,,,,,,,,,,,,,,,210.6043,211.9849,l,1,0.7113,1,211.985,212.4847,,,,,,22,MAS,NOWORD,DIS,150,blan,,la,,0.7113,,212.4848,212.4848,0.612037094,-0.205555598,0,0,0,,0,23,23,21,1,plan,,,,
,,,,,,6169abd4e006adba4739143e,676192165fb32c2e1fb7aee6,67d0b2661560e6b911c8b53a,2025-03-11_16h00.54.930,Tarea de decisión léxica,2024.2.5,Win32,59.88023952,,,,,,,,,,,,,,,,,,,,,,,212.4854,213.8177,l,1,0.6683,1,213.8177,214.3179,,,,,,272,FEM,NOWORD,AGR,150,refal,,la,,0.6683,,214.3181,214.3182,0.612037094,-0.205555598,0,0,0,,0,24,24,271,1,señal,,,,
,,,,,,6169abd4e006adba4739143e,676192165fb32c2e1fb7aee6,67d0b2661560e6b911c8b53a,2025-03-11_16h00.54.930,Tarea de decisión léxica,2024.2.5,Win32,59.88023952,,,,,,,,,,,,,,,,,,,,,,,214.3195,215.6841,a,1,0.6861,1,215.6842,216.1839,,,,,,395,FEM,WORD,DIS,150,caída,,el,,0.6861,,216.184,216.1841,0.612037094,-0.205555598,0,0,0,,0,25,25,394,1,paeda,,,,
,,,,,,6169abd4e006adba4739143e,676192165fb32c2e1fb7aee6,67d0b2661560e6b911c8b53a,2025-03-11_16h00.54.930,Tarea de decisión léxica,2024.2.5,Win32,59.88023952,,,,,,,,,,,,,,,,,,,,,,,216.1853,217.5334,a,1,0.6703,1,217.5335,218.033,,,,,,471,FEM,WORD,DIS,150,grasa,,el,,0.6703,,218.0342,218.035,0.612037094,-0.205555598,0,0,0,,0,26,26,470,1,prana,,,,
,,,,,,6169abd4e006adba4739143e,676192165fb32c2e1fb7aee6,67d0b2661560e6b911c8b53a,2025-03-11_16h00.54.930,Tarea de decisión léxica,2024.2.5,Win32,59.88023952,,,,,,,,,,,,,,,,,,,,,,,218.036,219.2998,a,1,0.5834,1,219.2998,219.7993,,,,,,209,MAS,WORD,DIS,150,velo,,la,,0.5834,,219.7993,219.7995,0.612037094,-0.205555598,0,0,0,,0,27,27,208,1,dero,,,,
,,,,,,6169abd4e006adba4739143e,676192165fb32c2e1fb7aee6,67d0b2661560e6b911c8b53a,2025-03-11_16h00.54.930,Tarea de decisión léxica,2024.2.5,Win32,59.88023952,,,,,,,,,,,,,,,,,,,,,,,219.8007,221.0989,l,1,0.6162,1,221.099,221.5987,,,,,,262,MAS,NOWORD,DIS,150,titio,,la,,0.6162,,221.5987,221.5988,0.612037094,-0.205555598,0,0,0,,0,28,28,261,1,sitio,,,,
,,,,,,6169abd4e006adba4739143e,676192165fb32c2e1fb7aee6,67d0b2661560e6b911c8b53a,2025-03-11_16h00.54.930,Tarea de decisión léxica,2024.2.5,Win32,59.88023952,,,,,,,,,,,,,,,,,,,,,,,221.5997,222.9146,a,1,0.638,1,222.9147,223.415,,,,,,479,MAS,WORD,DIS,150,rumbo,,la,,0.638,,223.4151,223.4153,0.612037094,-0.205555598,0,0,0,,0,29,29,478,1,rimpo,,,,
,,,,,,6169abd4e006adba4739143e,676192165fb32c2e1fb7aee6,67d0b2661560e6b911c8b53a,2025-03-11_16h00.54.930,Tarea de decisión léxica,2024.2.5,Win32,59.88023952,,,,,,,,,,,,,,,,,,,,,,,223.417,224.6142,a,1,0.5268,1,224.6143,225.1141,,,,,,409,MAS,WORD,AGR,150,carro,,el,,0.5268,,225.1141,225.1142,0.612037094,-0.205555598,0,0,0,,0,30,30,408,1,pafro,,,,
,,,,,,6169abd4e006adba4739143e,676192165fb32c2e1fb7aee6,67d0b2661560e6b911c8b53a,2025-03-11_16h00.54.930,Tarea de decisión léxica,2024.2.5,Win32,59.88023952,,,,,,,,,,,,,,,,,,,,,,,225.1152,226.5148,a,1,0.7285,1,226.515,227.0135,,,,,,193,FEM,WORD,AGR,150,loca,,la,,0.7285,,227.015,227.0162,0.612037094,-0.205555598,0,0,0,,0,31,31,192,1,foda,,,,
,,,,,,6169abd4e006adba4739143e,676192165fb32c2e1fb7aee6,67d0b2661560e6b911c8b53a,2025-03-11_16h00.54.930,Tarea de decisión léxica,2024.2.5,Win32,59.88023952,,,,,,,,,,,,,,,,,,,,,,,227.0171,228.1963,a,1,0.5066,1,228.1964,228.696,,,,,,173,FEM,WORD,DIS,150,rosa,,el,,0.5066,,228.696,228.6961,0.612037094,-0.205555598,0,0,0,,0,32,32,172,1,boma,,,,
,,,,,,6169abd4e006adba4739143e,676192165fb32c2e1fb7aee6,67d0b2661560e6b911c8b53a,2025-03-11_16h00.54.930,Tarea de decisión léxica,2024.2.5,Win32,59.88023952,,,,,,,,,,,,,,,,,,,,,,,228.6968,229.8955,a,1,0.5291,1,229.8956,230.3958,,,,,,29,MAS,WORD,AGR,150,modo,,el,,0.5291,,230.3959,230.3961,0.612037094,-0.205555598,0,0,0,,0,33,33,28,1,pono,,,,
,,,,,,6169abd4e006adba4739143e,676192165fb32c2e1fb7aee6,67d0b2661560e6b911c8b53a,2025-03-11_16h00.54.930,Tarea de decisión léxica,2024.2.5,Win32,59.88023952,,,,,,,,,,,,,,,,,,,,,,,230.3974,231.5121,a,0,0.4374,0,231.5134,232.0122,,,,,,36,MAS,NOWORD,AGR,150,meno,,el,,0.4374,,232.0122,232.0126,0.612037094,-0.205555598,0,0,0,,0,34,34,35,1,pelo,,,,
,,,,,,6169abd4e006adba4739143e,676192165fb32c2e1fb7aee6,67d0b2661560e6b911c8b53a,2025-03-11_16h00.54.930,Tarea de decisión léxica,2024.2.5,Win32,59.88023952,,,,,,,,,,,,,,,,,,,,,,,232.0144,233.3117,l,1,0.6184,1,233.3132,233.811,,,,,,278,MAS,NOWORD,DIS,150,vuemo,,la,,0.6184,,233.812,233.8125,0.612037094,-0.205555598,0,0,0,,0,35,35,277,1,fuego,,,,
,,,,,,6169abd4e006adba4739143e,676192165fb32c2e1fb7aee6,67d0b2661560e6b911c8b53a,2025-03-11_16h00.54.930,Tarea de decisión léxica,2024.2.5,Win32,59.88023952,,,,,,,,,,,,,,,,,,,,,,,233.813,234.9778,a,1,0.488,1,234.9779,235.4771,,,,,,353,FEM,WORD,AGR,150,celda,,la,,0.488,,235.4771,235.4772,0.612037094,-0.205555598,0,0,0,,0,36,36,352,1,cezca,,,,
,,,,,,6169abd4e006adba4739143e,676192165fb32c2e1fb7aee6,67d0b2661560e6b911c8b53a,2025-03-11_16h00.54.930,Tarea de decisión léxica,2024.2.5,Win32,59.88023952,,,,,,,,,,,,,,,,,,,,,,,235.4777,236.6438,a,1,0.4884,1,236.6438,237.1434,,,,,,417,FEM,WORD,AGR,150,barba,,la,,0.4884,,237.1434,237.1435,0.612037094,-0.205555598,0,0,0,,0,37,37,416,1,banja,,,,
,,,,,,6169abd4e006adba4739143e,676192165fb32c2e1fb7aee6,67d0b2661560e6b911c8b53a,2025-03-11_16h00.54.930,Tarea de decisión léxica,2024.2.5,Win32,59.88023952,,,,,,,,,,,,,,,,,,,,,,,237.1446,238.3763,l,1,0.5558,1,238.3764,238.8759,,,,,,412,MAS,NOWORD,AGR,150,mobro,,el,,0.5558,,238.876,238.8761,0.612037094,-0.205555598,0,0,0,,0,38,38,411,1,pollo,,,,
,,,,,,6169abd4e006adba4739143e,676192165fb32c2e1fb7aee6,67d0b2661560e6b911c8b53a,2025-03-11_16h00.54.930,Tarea de decisión léxica,2024.2.5,Win32,59.88023952,,,,,,,,,,,,,,,,,,,,,,,238.8768,240.0929,a,1,0.5346,1,240.0929,240.5922,,,,,,19,MAS,WORD,DIS,150,niño,,la,,0.5346,,240.5923,240.5923,0.612037094,-0.205555598,0,0,0,,0,39,39,18,1,himo,,,,
,,,,,,6169abd4e006adba4739143e,676192165fb32c2e1fb7aee6,67d0b2661560e6b911c8b53a,2025-03-11_16h00.54.930,Tarea de decisión léxica,2024.2.5,Win32,59.88023952,,,,,,,,,,,,,,,,,,,,,,,240.5932,241.8253,a,1,0.5528,1,241.8254,242.3249,,,,,,243,MAS,WORD,DIS,150,amigo,,la,,0.5528,,242.3259,242.3265,0.612037094,-0.205555598,0,0,0,,0,40,40,242,1,asamo,,,,
,,,,,,6169abd4e006adba4739143e,676192165fb32c2e1fb7aee6,67d0b2661560e6b911c8b53a,2025-03-11_16h00.54.930,Tarea de decisión léxica,2024.2.5,Win32,59.88023952,,,,,,,,,,,,,,,,,,,,,,,242.3272,243.5909,l,1,0.5835,1,243.591,244.0908,,,,,,390,MAS,NOWORD,DIS,150,cenco,,la,,0.5835,,244.0909,244.0909,0.612037094,-0.205555598,0,0,0,,0,41,41,389,1,cerdo,,,,
,,,,,,6169abd4e006adba4739143e,676192165fb32c2e1fb7aee6,67d0b2661560e6b911c8b53a,2025-03-11_16h00.54.930,Tarea de decisión léxica,2024.2.5,Win32,59.88023952,,,,,,,,,,,,,,,,,,,,,,,244.0915,245.374,a,1,0.5992,1,245.3741,245.8742,,,,,,181,FEM,WORD,DIS,150,seda,,el,,0.5992,,245.8743,245.8745,0.612037094,-0.205555598,0,0,0,,0,42,42,180,1,teda,,,,
,,,,,,6169abd4e006adba4739143e,676192165fb32c2e1fb7aee6,67d0b2661560e6b911c8b53a,2025-03-11_16h00.54.930,Tarea de decisión léxica,2024.2.5,Win32,59.88023952,,,,,,,,,,,,,,,,,,,,,,,245.8793,247.19,a,1,0.6411,1,247.1901,247.6899,,,,,,121,MAS,WORD,AGR,150,hoyo,,el,,0.6411,,247.6899,247.69,0.612037094,-0.205555598,0,0,0,,0,43,43,120,1,bomo,,,,
,,,,,,6169abd4e006adba4739143e,676192165fb32c2e1fb7aee6,67d0b2661560e6b911c8b53a,2025-03-11_16h00.54.930,Tarea de decisión léxica,2024.2.5,Win32,59.88023952,,,,,,,,,,,,,,,,,,,,,,,247.691,249.023,l,1,0.6543,1,249.0231,249.5226,,,,,,242,MAS,NOWORD,DIS,150,mirdo,,la,,0.6543,,249.5227,249.5229,0.612037094,-0.205555598,0,0,0,,0,44,44,241,1,mundo,,,,
,,,,,,6169abd4e006adba4739143e,676192165fb32c2e1fb7aee6,67d0b2661560e6b911c8b53a,2025-03-11_16h00.54.930,Tarea de decisión léxica,2024.2.5,Win32,59.88023952,,,,,,,,,,,,,,,,,,,,,,,249.5242,250.7553,a,1,0.552,1,250.7554,251.2555,,,,,,297,MAS,WORD,AGR,150,grupo,,el,,0.552,,251.2569,251.2578,0.612037094,-0.205555598,0,0,0,,0,45,45,296,1,brubo,,,,
,,,,,,6169abd4e006adba4739143e,676192165fb32c2e1fb7aee6,67d0b2661560e6b911c8b53a,2025-03-11_16h00.54.930,Tarea de decisión léxica,2024.2.5,Win32,59.88023952,,,,,,,,,,,,,,,,,,,,,,,251.2587,252.4382,a,1,0.5003,1,252.4382,252.9381,,,,,,239,MAS,WORD,DIS,150,mozo,,la,,0.5003,,252.9382,252.9384,0.612037094,-0.205555598,0,0,0,,0,46,46,238,1,poño,,,,
,,,,,,6169abd4e006adba4739143e,676192165fb32c2e1fb7aee6,67d0b2661560e6b911c8b53a,2025-03-11_16h00.54.930,Tarea de decisión léxica,2024.2.5,Win32,59.88023952,,,,,,,,,,,,,,,,,,,,,,,252.9395,254.421,l,1,0.7999,1,254.4213,254.921,,,,,,232,FEM,NOWORD,AGR,150,heta,,la,,0.7999,,254.9211,254.9213,0.612037094,-0.205555598,0,0,0,,0,47,47,231,1,bota,,,,
,,,,,,6169abd4e006adba4739143e,676192165fb32c2e1fb7aee6,67d0b2661560e6b911c8b53a,2025-03-11_16h00.54.930,Tarea de decisión léxica,2024.2.5,Win32,59.88023952,,,,,,,,,,,,,,,,,,,,,,,254.923,256.4205,l,1,0.8176,1,256.4206,256.9204,,,,,,90,MAS,NOWORD,DIS,150,guso,,la,,0.8176,,256.9204,256.9207,0.612037094,-0.205555598,0,0,0,,0,48,48,89,1,humo,,,,
,,,,,,6169abd4e006adba4739143e,676192165fb32c2e1fb7aee6,67d0b2661560e6b911c8b53a,2025-03-11_16h00.54.930,Tarea de decisión léxica,2024.2.5,Win32,59.88023952,,,,,,,,,,,,,,,,,,,,,,,256.9224,258.2361,l,1,0.6345,1,258.2362,258.736,,,,,,446,MAS,NOWORD,DIS,150,ascor,,la,,0.6345,,258.736,258.7362,0.612037094,-0.205555598,0,0,0,,0,49,49,445,1,actor,,,,
,,,,,,6169abd4e006adba4739143e,676192165fb32c2e1fb7aee6,67d0b2661560e6b911c8b53a,2025-03-11_16h00.54.930,Tarea de decisión léxica,2024.2.5,Win32,59.88023952,,,,,,,,,,,,,,,,,,,,,,,258.7371,260.2521,a,1,0.8359,1,260.2522,260.752,,,,,,99,MAS,WORD,DIS,150,lobo,,la,,0.8359,,260.7528,260.7534,0.612037094,-0.205555598,0,0,0,,0,50,50,98,1,soro,,,,
,,,,,,6169abd4e006adba4739143e,676192165fb32c2e1fb7aee6,67d0b2661560e6b911c8b53a,2025-03-11_16h00.54.930,Tarea de decisión léxica,2024.2.5,Win32,59.88023952,,,,,,,,,,,,,,,,,,,,,,,260.754,262.035,a,1,0.5995,1,262.0351,262.5348,,,,,,251,MAS,WORD,AGR,150,señor,,el,,0.5995,,262.5349,262.5349,0.612037094,-0.205555598,0,0,0,,0,51,51,250,1,refor,,,,
,,,,,,6169abd4e006adba4739143e,676192165fb32c2e1fb7aee6,67d0b2661560e6b911c8b53a,2025-03-11_16h00.54.930,Tarea de decisión léxica,2024.2.5,Win32,59.88023952,,,,,,,,,,,,,,,,,,,,,,,262.536,264.0008,l,1,0.7846,1,264.0009,264.5008,,,,,,160,MAS,NOWORD,AGR,150,bilo,,el,,0.7846,,264.5008,264.5008,0.612037094,-0.205555598,0,0,0,,0,52,52,159,1,giro,,,,
,,,,,,6169abd4e006adba4739143e,676192165fb32c2e1fb7aee6,67d0b2661560e6b911c8b53a,2025-03-11_16h00.54.930,Tarea de decisión léxica,2024.2.5,Win32,59.88023952,,,,,,,,,,,,,,,,,,,,,,,264.5014,265.8002,a,1,0.6193,1,265.8003,266.3001,,,,,,103,FEM,WORD,AGR,150,ruta,,la,,0.6193,,266.3001,266.3001,0.612037094,-0.205555598,0,0,0,,0,53,53,102,1,rova,,,,
,,,,,,6169abd4e006adba4739143e,676192165fb32c2e1fb7aee6,67d0b2661560e6b911c8b53a,2025-03-11_16h00.54.930,Tarea de decisión léxica,2024.2.5,Win32,59.88023952,,,,,,,,,,,,,,,,,,,,,,,266.3008,267.4836,l,1,0.5028,1,267.4837,267.983,,,,,,306,MAS,NOWORD,DIS,150,adiol,,la,,0.5028,,267.983,267.9831,0.612037094,-0.205555598,0,0,0,,0,54,54,305,1,avión,,,,
,,,,,,6169abd4e006adba4739143e,676192165fb32c2e1fb7aee6,67d0b2661560e6b911c8b53a,2025-03-11_16h00.54.930,Tarea de decisión léxica,2024.2.5,Win32,59.88023952,,,,,,,,,,,,,,,,,,,,,,,267.9842,269.2825,a,1,0.6262,1,269.2826,269.7823,,,,,,461,FEM,WORD,AGR,150,tabla,,la,,0.6262,,269.7831,269.7836,0.612037094,-0.205555598,0,0,0,,0,55,55,460,1,pagra,,,,
,,,,,,6169abd4e006adba4739143e,676192165fb32c2e1fb7aee6,67d0b2661560e6b911c8b53a,2025-03-11_16h00.54.930,Tarea de decisión léxica,2024.2.5,Win32,59.88023952,,,,,,,,,,,,,,,,,,,,,,,269.7845,271.0152,a,1,0.5517,1,271.0153,271.5153,,,,,,63,FEM,WORD,AGR,150,luna,,la,,0.5517,,271.5155,271.5157,0.612037094,-0.205555598,0,0,0,,0,56,56,62,1,funa,,,,
,,,,,,6169abd4e006adba4739143e,676192165fb32c2e1fb7aee6,67d0b2661560e6b911c8b53a,2025-03-11_16h00.54.930,Tarea de decisión léxica,2024.2.5,Win32,59.88023952,,,,,,,,,,,,,,,,,,,,,,,271.5217,272.765,a,1,0.5666,1,272.7651,273.2648,,,,,,321,MAS,WORD,DIS,150,banco,,la,,0.5666,,273.265,273.2651,0.612037094,-0.205555598,0,0,0,,0,57,57,320,1,rarco,,,,
,,,,,,6169abd4e006adba4739143e,676192165fb32c2e1fb7aee6,67d0b2661560e6b911c8b53a,2025-03-11_16h00.54.930,Tarea de decisión léxica,2024.2.5,Win32,59.88023952,,,,,,,,,,,,,,,,,,,,,,,273.2671,274.4806,l,1,0.5445,1,274.4806,274.9804,,,,,,328,MAS,NOWORD,AGR,150,lendo,,el,,0.5445,,274.9804,274.9804,0.612037094,-0.205555598,0,0,0,,0,58,58,327,1,fondo,,,,
,,,,,,6169abd4e006adba4739143e,676192165fb32c2e1fb7aee6,67d0b2661560e6b911c8b53a,2025-03-11_16h00.54.930,Tarea de decisión léxica,2024.2.5,Win32,59.88023952,,,,,,,,,,,,,,,,,,,,,,,274.981,276.497,l,1,0.8395,1,276.4971,276.9968,,,,,,86,MAS,NOWORD,DIS,150,babo,,la,,0.8395,,276.9986,276.9997,0.612037094,-0.205555598,0,0,0,,0,59,59,85,1,lago,,,,
,,,,,,6169abd4e006adba4739143e,676192165fb32c2e1fb7aee6,67d0b2661560e6b911c8b53a,2025-03-11_16h00.54.930,Tarea de decisión léxica,2024.2.5,Win32,59.88023952,,,,,,,,,,,,,,,,,,,,,,,277.0009,278.3627,l,1,0.6816,1,278.3629,278.8626,,,,,,284,MAS,NOWORD,AGR,150,tuevo,,el,,0.6816,,278.8627,278.8628,0.612037094,-0.205555598,0,0,0,,0,60,60,283,1,sueño,,,,
,,,,,,6169abd4e006adba4739143e,676192165fb32c2e1fb7aee6,67d0b2661560e6b911c8b53a,2025-03-11_16h00.54.930,Tarea de decisión léxica,2024.2.5,Win32,59.88023952,,,,,,,,,,,,,,,,,,,,,,,278.8638,280.1793,a,0,0.6368,0,280.1804,280.679,,,,,,20,MAS,NOWORD,AGR,150,himo,,el,,0.6368,,280.6792,280.6796,0.612037094,-0.205555598,0,0,0,,0,61,61,19,1,niño,,,,
,,,,,,6169abd4e006adba4739143e,676192165fb32c2e1fb7aee6,67d0b2661560e6b911c8b53a,2025-03-11_16h00.54.930,Tarea de decisión léxica,2024.2.5,Win32,59.88023952,,,,,,,,,,,,,,,,,,,,,,,280.6815,282.0452,l,1,0.6882,1,282.0467,282.545,,,,,,74,MAS,NOWORD,DIS,150,omio,,la,,0.6882,,282.5451,282.5453,0.612037094,-0.205555598,0,0,0,,0,62,62,73,1,odio,,,,
,,,,,,6169abd4e006adba4739143e,676192165fb32c2e1fb7aee6,67d0b2661560e6b911c8b53a,2025-03-11_16h00.54.930,Tarea de decisión léxica,2024.2.5,Win32,59.88023952,,,,,,,,,,,,,,,,,,,,,,,282.5489,283.761,a,1,0.5323,1,283.7611,284.2612,,,,,,413,FEM,WORD,AGR,150,rueda,,la,,0.5323,,284.2614,284.2616,0.612037094,-0.205555598,0,0,0,,0,63,63,412,1,bieda,,,,
,,,,,,6169abd4e006adba4739143e,676192165fb32c2e1fb7aee6,67d0b2661560e6b911c8b53a,2025-03-11_16h00.54.930,Tarea de decisión léxica,2024.2.5,Win32,59.88023952,,,,,,,,,,,,,,,,,,,,,,,284.263,285.5105,l,1,0.5759,1,285.5106,286.0099,,,,,,128,MAS,NOWORD,AGR,150,itio,,el,,0.5759,,286.0107,286.0112,0.612037094,-0.205555598,0,0,0,,0,64,64,127,1,pico,,,,
,,,,,,6169abd4e006adba4739143e,676192165fb32c2e1fb7aee6,67d0b2661560e6b911c8b53a,2025-03-11_16h00.54.930,Tarea de decisión léxica,2024.2.5,Win32,59.88023952,,,,,,,,,,,,,,,,,,,,,,,286.0119,287.4266,a,1,0.7406,1,287.4268,287.9263,,,,,,423,MAS,WORD,AGR,150,queso,,el,,0.7406,,287.9264,287.9265,0.612037094,-0.205555598,0,0,0,,0,65,65,422,1,quigo,,,,
,,,,,,6169abd4e006adba4739143e,676192165fb32c2e1fb7aee6,67d0b2661560e6b911c8b53a,2025-03-11_16h00.54.930,Tarea de decisión léxica,2024.2.5,Win32,59.88023952,,,,,,,,,,,,,,,,,,,,,,,287.9276,289.1259,a,1,0.5179,1,289.1261,289.6257,,,,,,383,FEM,WORD,DIS,150,frase,,el,,0.5179,,289.6258,289.6259,0.612037094,-0.205555598,0,0,0,,0,66,66,382,1,brame,,,,
,,,,,,6169abd4e006adba4739143e,676192165fb32c2e1fb7aee6,67d0b2661560e6b911c8b53a,2025-03-11_16h00.54.930,Tarea de decisión léxica,2024.2.5,Win32,59.88023952,,,,,,,,,,,,,,,,,,,,,,,289.6272,290.9754,l,1,0.6674,1,290.9756,291.4755,,,,,,46,FEM,NOWORD,DIS,150,pema,,el,,0.6674,,291.4757,291.4758,0.612037094,-0.205555598,0,0,0,,0,67,67,45,1,mesa,,,,
,,,,,,6169abd4e006adba4739143e,676192165fb32c2e1fb7aee6,67d0b2661560e6b911c8b53a,2025-03-11_16h00.54.930,Tarea de decisión léxica,2024.2.5,Win32,59.88023952,,,,,,,,,,,,,,,,,,,,,,,291.4776,292.6414,a,1,0.4854,1,292.6415,293.141,,,,,,339,MAS,WORD,AGR,150,brazo,,el,,0.4854,,293.1411,293.1411,0.612037094,-0.205555598,0,0,0,,0,68,68,338,1,plajo,,,,
,,,,,,6169abd4e006adba4739143e,676192165fb32c2e1fb7aee6,67d0b2661560e6b911c8b53a,2025-03-11_16h00.54.930,Tarea de decisión léxica,2024.2.5,Win32,59.88023952,,,,,,,,,,,,,,,,,,,,,,,293.1417,294.4577,a,0,0.6354,0,294.4591,294.9572,,,,,,400,MAS,NOWORD,AGR,150,serro,,el,,0.6354,,294.9587,294.9596,0.612037094,-0.205555598,0,0,0,,0,69,69,399,1,techo,,,,
,,,,,,6169abd4e006adba4739143e,676192165fb32c2e1fb7aee6,67d0b2661560e6b911c8b53a,2025-03-11_16h00.54.930,Tarea de decisión léxica,2024.2.5,Win32,59.88023952,,,,,,,,,,,,,,,,,,,,,,,294.9607,296.1233,a,1,0.4835,1,296.124,296.6233,,,,,,379,MAS,WORD,AGR,150,turno,,el,,0.4835,,296.6233,296.6233,0.612037094,-0.205555598,0,0,0,,0,70,70,378,1,tunso,,,,
,,,,,,6169abd4e006adba4739143e,676192165fb32c2e1fb7aee6,67d0b2661560e6b911c8b53a,2025-03-11_16h00.54.930,Tarea de decisión léxica,2024.2.5,Win32,59.88023952,,,,,,,,,,,,,,,,,,,,,,,296.6241,298.0232,a,1,0.7204,1,298.0233,298.523,,,,,,111,MAS,WORD,DIS,150,muro,,la,,0.7204,,298.5231,298.5233,0.612037094,-0.205555598,0,0,0,,0,71,71,110,1,siro,,,,
,,,,,,6169abd4e006adba4739143e,676192165fb32c2e1fb7aee6,67d0b2661560e6b911c8b53a,2025-03-11_16h00.54.930,Tarea de decisión léxica,2024.2.5,Win32,59.88023952,,,,,,,,,,,,,,,,,,,,,,,298.525,299.7229,l,1,0.5297,1,299.7231,300.2221,,,,,,56,MAS,NOWORD,AGR,150,jado,,el,,0.5297,,300.2221,300.2222,0.612037094,-0.205555598,0,0,0,,0,72,72,55,1,gato,,,,
,,,,,,6169abd4e006adba4739143e,676192165fb32c2e1fb7aee6,67d0b2661560e6b911c8b53a,2025-03-11_16h00.54.930,Tarea de decisión léxica,2024.2.5,Win32,59.88023952,,,,,,,,,,,,,,,,,,,,,,,300.2234,301.4717,a,1,0.568,1,301.4718,301.9714,,,,,,285,MAS,WORD,DIS,150,error,,la,,0.568,,301.9714,301.9715,0.612037094,-0.205555598,0,0,0,,0,73,73,284,1,echor,,,,
,,,,,,6169abd4e006adba4739143e,676192165fb32c2e1fb7aee6,67d0b2661560e6b911c8b53a,2025-03-11_16h00.54.930,Tarea de decisión léxica,2024.2.5,Win32,59.88023952,,,,,,,,,,,,,,,,,,,,,,,301.9724,303.3711,a,0,0.7253,0,303.3723,303.871,,,,,,422,MAS,NOWORD,DIS,150,griso,,la,,0.7253,,303.8728,303.8741,0.612037094,-0.205555598,0,0,0,,0,74,74,421,1,primo,,,,
,,,,,,6169abd4e006adba4739143e,676192165fb32c2e1fb7aee6,67d0b2661560e6b911c8b53a,2025-03-11_16h00.54.930,Tarea de decisión léxica,2024.2.5,Win32,59.88023952,,,,,,,,,,,,,,,,,,,,,,,303.8755,305.0871,a,1,0.5406,1,305.0882,305.5871,,,,,,147,FEM,WORD,AGR,150,hoja,,la,,0.5406,,305.5872,305.5873,0.612037094,-0.205555598,0,0,0,,0,75,75,146,1,pama,,,,
,,,,,,6169abd4e006adba4739143e,676192165fb32c2e1fb7aee6,67d0b2661560e6b911c8b53a,2025-03-11_16h00.54.930,Tarea de decisión léxica,2024.2.5,Win32,59.88023952,,,,,,,,,,,,,,,,,,,,,,,305.5887,306.7862,l,1,0.5263,1,306.7863,307.2863,,,,,,282,MAS,NOWORD,DIS,150,cauro,,la,,0.5263,,307.2864,307.2865,0.612037094,-0.205555598,0,0,0,,0,76,76,281,1,cielo,,,,
,,,,,,6169abd4e006adba4739143e,676192165fb32c2e1fb7aee6,67d0b2661560e6b911c8b53a,2025-03-11_16h00.54.930,Tarea de decisión léxica,2024.2.5,Win32,59.88023952,,,,,,,,,,,,,,,,,,,,,,,307.2877,308.5861,a,1,0.6211,1,308.5862,309.086,,,,,,373,FEM,WORD,DIS,150,pizza,,el,,0.6211,,309.0861,309.0863,0.612037094,-0.205555598,0,0,0,,0,77,77,372,1,pogza,,,,
,,,,,,6169abd4e006adba4739143e,676192165fb32c2e1fb7aee6,67d0b2661560e6b911c8b53a,2025-03-11_16h00.54.930,Tarea de decisión léxica,2024.2.5,Win32,59.88023952,,,,,,,,,,,,,,,,,,,,,,,309.088,310.3186,a,1,0.5596,1,310.3186,310.8186,,,,,,237,MAS,WORD,AGR,150,nudo,,el,,0.5596,,310.8187,310.8188,0.612037094,-0.205555598,0,0,0,,0,78,78,236,1,huco,,,,
,,,,,,6169abd4e006adba4739143e,676192165fb32c2e1fb7aee6,67d0b2661560e6b911c8b53a,2025-03-11_16h00.54.930,Tarea de decisión léxica,2024.2.5,Win32,59.88023952,,,,,,,,,,,,,,,,,,,,,,,310.8201,312.0682,a,0,0.5702,0,312.069,312.5683,,,,,,164,FEM,NOWORD,AGR,150,laga,,la,,0.5702,,312.5699,312.571,0.612037094,-0.205555598,0,0,0,,0,79,79,163,1,fama,,,,
,,,,,,6169abd4e006adba4739143e,676192165fb32c2e1fb7aee6,67d0b2661560e6b911c8b53a,2025-03-11_16h00.54.930,Tarea de decisión léxica,2024.2.5,Win32,59.88023952,,,,,,,,,,,,,,,,,,,,,,,312.5724,313.7008,l,1,0.4556,1,313.7012,314.2006,,,,,,236,FEM,NOWORD,AGR,150,tria,,la,,0.4556,,314.2006,314.2008,0.612037094,-0.205555598,0,0,0,,0,80,80,235,1,grúa,,,,
,,,,,,6169abd4e006adba4739143e,676192165fb32c2e1fb7aee6,67d0b2661560e6b911c8b53a,2025-03-11_16h00.54.930,Tarea de decisión léxica,2024.2.5,Win32,59.88023952,,,,,,,,,,,,,,,,,,,,,,,314.2017,315.4005,a,1,0.518,1,315.4006,315.9003,,,,,,263,FEM,WORD,AGR,150,vista,,la,,0.518,,315.9004,315.9005,0.612037094,-0.205555598,0,0,0,,0,81,81,262,1,dosta,,,,
,,,,,,6169abd4e006adba4739143e,676192165fb32c2e1fb7aee6,67d0b2661560e6b911c8b53a,2025-03-11_16h00.54.930,Tarea de decisión léxica,2024.2.5,Win32,59.88023952,,,,,,,,,,,,,,,,,,,,,,,315.9019,317.3163,a,1,0.7355,1,317.3164,317.8159,,,,,,199,MAS,WORD,DIS,150,lazo,,la,,0.7355,,317.816,317.8161,0.612037094,-0.205555598,0,0,0,,0,82,82,198,1,fano,,,,
,,,,,,6169abd4e006adba4739143e,676192165fb32c2e1fb7aee6,67d0b2661560e6b911c8b53a,2025-03-11_16h00.54.930,Tarea de decisión léxica,2024.2.5,Win32,59.88023952,,,,,,,,,,,,,,,,,,,,,,,317.8168,319.0657,l,1,0.5735,1,319.0657,319.5653,,,,,,332,MAS,NOWORD,AGR,150,erato,,el,,0.5735,,319.5661,319.5666,0.612037094,-0.205555598,0,0,0,,0,83,83,331,1,éxito,,,,
,,,,,,6169abd4e006adba4739143e,676192165fb32c2e1fb7aee6,67d0b2661560e6b911c8b53a,2025-03-11_16h00.54.930,Tarea de decisión léxica,2024.2.5,Win32,59.88023952,,,,,,,,,,,,,,,,,,,,,,,319.5673,320.9486,l,1,0.7013,1,320.9489,321.4487,,,,,,44,FEM,NOWORD,AGR,150,meda,,la,,0.7013,,321.4489,321.449,0.612037094,-0.205555598,0,0,0,,0,84,84,43,1,pena,,,,
,,,,,,6169abd4e006adba4739143e,676192165fb32c2e1fb7aee6,67d0b2661560e6b911c8b53a,2025-03-11_16h00.54.930,Tarea de decisión léxica,2024.2.5,Win32,59.88023952,,,,,,,,,,,,,,,,,,,,,,,321.4503,322.7311,l,1,0.6021,1,322.7312,323.2312,,,,,,442,FEM,NOWORD,DIS,150,telza,,el,,0.6021,,323.2312,323.2314,0.612037094,-0.205555598,0,0,0,,0,85,85,441,1,selva,,,,
,,,,,,6169abd4e006adba4739143e,676192165fb32c2e1fb7aee6,67d0b2661560e6b911c8b53a,2025-03-11_16h00.54.930,Tarea de decisión léxica,2024.2.5,Win32,59.88023952,,,,,,,,,,,,,,,,,,,,,,,323.2331,324.3642,a,1,0.4512,1,324.3643,324.8639,,,,,,281,MAS,WORD,DIS,150,cielo,,la,,0.4512,,324.864,324.8643,0.612037094,-0.205555598,0,0,0,,0,86,86,280,1,cauro,,,,
,,,,,,6169abd4e006adba4739143e,676192165fb32c2e1fb7aee6,67d0b2661560e6b911c8b53a,2025-03-11_16h00.54.930,Tarea de decisión léxica,2024.2.5,Win32,59.88023952,,,,,,,,,,,,,,,,,,,,,,,324.8658,326.1633,a,1,0.6222,1,326.1633,326.6631,,,,,,375,FEM,WORD,AGR,150,salsa,,la,,0.6222,,326.6631,326.6631,0.612037094,-0.205555598,0,0,0,,0,87,87,374,1,sasna,,,,
,,,,,,6169abd4e006adba4739143e,676192165fb32c2e1fb7aee6,67d0b2661560e6b911c8b53a,2025-03-11_16h00.54.930,Tarea de decisión léxica,2024.2.5,Win32,59.88023952,,,,,,,,,,,,,,,,,,,,,,,326.6638,328.2456,l,1,0.9101,1,328.2456,328.746,,,,,,360,MAS,NOWORD,AGR,150,cacer,,el,,0.9101,,328.7482,328.7496,0.612037094,-0.205555598,0,0,0,,0,88,88,359,1,calor,,,,
,,,,,,6169abd4e006adba4739143e,676192165fb32c2e1fb7aee6,67d0b2661560e6b911c8b53a,2025-03-11_16h00.54.930,Tarea de decisión léxica,2024.2.5,Win32,59.88023952,,,,,,,,,,,,,,,,,,,,,,,328.7524,329.9619,a,1,0.534,1,329.9619,330.4617,,,,,,9,MAS,WORD,DIS,150,tipo,,la,,0.534,,330.4618,330.4618,0.612037094,-0.205555598,0,0,0,,0,89,89,8,1,sibo,,,,
,,,,,,6169abd4e006adba4739143e,676192165fb32c2e1fb7aee6,67d0b2661560e6b911c8b53a,2025-03-11_16h00.54.930,Tarea de decisión léxica,2024.2.5,Win32,59.88023952,,,,,,,,,,,,,,,,,,,,,,,330.4625,331.6948,a,0,0.5523,0,331.6954,332.1951,,,,,,440,FEM,NOWORD,AGR,150,prema,,la,,0.5523,,332.1952,332.1955,0.612037094,-0.205555598,0,0,0,,0,90,90,439,1,presa,,,,
,,,,,,6169abd4e006adba4739143e,676192165fb32c2e1fb7aee6,67d0b2661560e6b911c8b53a,2025-03-11_16h00.54.930,Tarea de decisión léxica,2024.2.5,Win32,59.88023952,,,,,,,,,,,,,,,,,,,,,,,332.1973,333.3603,a,1,0.4924,1,333.3608,333.8608,,,,,,231,FEM,WORD,DIS,150,bota,,el,,0.4924,,333.8608,333.8609,0.612037094,-0.205555598,0,0,0,,0,91,91,230,1,heta,,,,
,,,,,,6169abd4e006adba4739143e,676192165fb32c2e1fb7aee6,67d0b2661560e6b911c8b53a,2025-03-11_16h00.54.930,Tarea de decisión léxica,2024.2.5,Win32,59.88023952,,,,,,,,,,,,,,,,,,,,,,,333.8624,335.1606,a,1,0.6174,1,335.1607,335.6603,,,,,,273,FEM,WORD,DIS,150,broma,,el,,0.6174,,335.6603,335.6605,0.612037094,-0.205555598,0,0,0,,0,92,92,272,1,frosa,,,,
,,,,,,6169abd4e006adba4739143e,676192165fb32c2e1fb7aee6,67d0b2661560e6b911c8b53a,2025-03-11_16h00.54.930,Tarea de decisión léxica,2024.2.5,Win32,59.88023952,,,,,,,,,,,,,,,,,,,,,,,335.662,336.8428,a,1,0.5074,1,336.8429,337.3426,,,,,,405,FEM,WORD,AGR,150,barra,,la,,0.5074,,337.344,337.3449,0.612037094,-0.205555598,0,0,0,,0,93,93,404,1,rarra,,,,
,,,,,,6169abd4e006adba4739143e,676192165fb32c2e1fb7aee6,67d0b2661560e6b911c8b53a,2025-03-11_16h00.54.930,Tarea de decisión léxica,2024.2.5,Win32,59.88023952,,,,,,,,,,,,,,,,,,,,,,,337.3453,338.6423,l,1,0.6169,1,338.6424,339.1421,,,,,,66,MAS,NOWORD,DIS,150,nios,,la,,0.6169,,339.1421,339.1422,0.612037094,-0.205555598,0,0,0,,0,94,94,65,1,dios,,,,
,,,,,,6169abd4e006adba4739143e,676192165fb32c2e1fb7aee6,67d0b2661560e6b911c8b53a,2025-03-11_16h00.54.930,Tarea de decisión léxica,2024.2.5,Win32,59.88023952,,,,,,,,,,,,,,,,,,,,,,,339.1431,340.3418,a,1,0.5168,1,340.3419,340.8414,,,,,,457,MAS,WORD,AGR,150,plato,,el,,0.5168,,340.8415,340.8415,0.612037094,-0.205555598,0,0,0,,0,95,95,456,1,glaco,,,,
,,,,,,6169abd4e006adba4739143e,676192165fb32c2e1fb7aee6,67d0b2661560e6b911c8b53a,2025-03-11_16h00.54.930,Tarea de decisión léxica,2024.2.5,Win32,59.88023952,,,,,,,,,,,,,,,,,,,,,,,340.8422,342.0082,l,1,0.4836,1,342.0083,342.5077,,,,,,266,FEM,NOWORD,DIS,150,pitat,,el,,0.4836,,342.5077,342.5078,0.612037094,-0.205555598,0,0,0,,0,96,96,265,1,mitad,,,,
,,,,,,6169abd4e006adba4739143e,676192165fb32c2e1fb7aee6,67d0b2661560e6b911c8b53a,2025-03-11_16h00.54.930,Tarea de decisión léxica,2024.2.5,Win32,59.88023952,,,,,,,,,,,,,,,,,,,,,,,342.5083,343.6907,l,1,0.5029,1,343.6907,344.1904,,,,,,228,MAS,NOWORD,AGR,150,laro,,el,,0.5029,,344.1905,344.1905,0.612037094,-0.205555598,0,0,0,,0,97,97,227,1,faro,,,,
,,,,,,6169abd4e006adba4739143e,676192165fb32c2e1fb7aee6,67d0b2661560e6b911c8b53a,2025-03-11_16h00.54.930,Tarea de decisión léxica,2024.2.5,Win32,59.88023952,,,,,,,,,,,,,,,,,,,,,,,344.1913,345.357,a,1,0.4952,1,345.3572,345.857,,,,,,117,MAS,WORD,AGR,150,palo,,el,,0.4952,,345.8597,345.8615,0.612037094,-0.205555598,0,0,0,,0,98,98,116,1,movo,,,,
,,,,,,6169abd4e006adba4739143e,676192165fb32c2e1fb7aee6,67d0b2661560e6b911c8b53a,2025-03-11_16h00.54.930,Tarea de decisión léxica,2024.2.5,Win32,59.88023952,,,,,,,,,,,,,,,,,,,,,,,345.8632,347.0567,l,1,0.5277,1,347.0568,347.5559,,,,,,246,FEM,NOWORD,DIS,150,pafle,,el,,0.5277,,347.5559,347.556,0.612037094,-0.205555598,0,0,0,,0,99,99,245,1,madre,,,,
,,,,,,6169abd4e006adba4739143e,676192165fb32c2e1fb7aee6,67d0b2661560e6b911c8b53a,2025-03-11_16h00.54.930,Tarea de decisión léxica,2024.2.5,Win32,59.88023952,,,,,,,,,,,,,,,,,,,,,,,347.5567,349.0058,l,1,0.776,1,349.0058,349.5055,,,,,,174,FEM,NOWORD,DIS,150,boma,,el,,0.776,,349.5055,349.5057,0.612037094,-0.205555598,0,0,0,,0,100,100,173,1,rosa,,,,
,,,,,,6169abd4e006adba4739143e,676192165fb32c2e1fb7aee6,67d0b2661560e6b911c8b53a,2025-03-11_16h00.54.930,Tarea de decisión léxica,2024.2.5,Win32,59.88023952,,,,,,,,,,,,,,,,,,,,,,,349.5065,350.6219,a,1,0.4354,1,350.6221,351.1218,,,,,,269,MAS,WORD,AGR,150,perro,,el,,0.4354,,351.1219,351.1221,0.612037094,-0.205555598,0,0,0,,0,101,101,268,1,mello,,,,
,,,,,,6169abd4e006adba4739143e,676192165fb32c2e1fb7aee6,67d0b2661560e6b911c8b53a,2025-03-11_16h00.54.930,Tarea de decisión léxica,2024.2.5,Win32,59.88023952,,,,,,,,,,,,,,,,,,,,,,,351.1235,352.2709,a,1,0.4729,1,352.2709,352.7708,,,,,,433,MAS,WORD,AGR,150,disco,,el,,0.4729,,352.7709,352.771,0.612037094,-0.205555598,0,0,0,,0,102,102,432,1,durco,,,,
,,,,,,6169abd4e006adba4739143e,676192165fb32c2e1fb7aee6,67d0b2661560e6b911c8b53a,2025-03-11_16h00.54.930,Tarea de decisión léxica,2024.2.5,Win32,59.88023952,,,,,,,,,,,,,,,,,,,,,,,352.7716,353.9871,a,1,0.542,1,353.9872,354.4868,,,,,,187,MAS,WORD,AGR,150,mito,,el,,0.542,,354.4875,354.488,0.612037094,-0.205555598,0,0,0,,0,103,103,186,1,suto,,,,
,,,,,,6169abd4e006adba4739143e,676192165fb32c2e1fb7aee6,67d0b2661560e6b911c8b53a,2025-03-11_16h00.54.930,Tarea de decisión léxica,2024.2.5,Win32,59.88023952,,,,,,,,,,,,,,,,,,,,,,,354.4885,356.4033,l,1,1.2367,1,356.4033,356.9027,,,,,,140,MAS,NOWORD,AGR,150,nila,,el,,1.2367,,356.9028,356.9029,0.612037094,-0.205555598,0,0,0,,0,104,104,139,1,mago,,,,
,,,,,,6169abd4e006adba4739143e,676192165fb32c2e1fb7aee6,67d0b2661560e6b911c8b53a,2025-03-11_16h00.54.930,Tarea de decisión léxica,2024.2.5,Win32,59.88023952,,,,,,,,,,,,,,,,,,,,,,,356.9039,358.2859,l,1,0.7069,1,358.286,358.7858,,,,,,220,FEM,NOWORD,AGR,150,miva,,la,,0.7069,,358.7859,358.7861,0.612037094,-0.205555598,0,0,0,,0,105,105,219,1,pipa,,,,
,,,,,,6169abd4e006adba4739143e,676192165fb32c2e1fb7aee6,67d0b2661560e6b911c8b53a,2025-03-11_16h00.54.930,Tarea de decisión léxica,2024.2.5,Win32,59.88023952,,,,,,,,,,,,,,,,,,,,,,,358.7877,360.3183,a,1,0.8556,1,360.3184,360.8186,,,,,,225,MAS,WORD,DIS,150,lodo,,la,,0.8556,,360.8187,360.8188,0.612037094,-0.205555598,0,0,0,,0,106,106,224,1,boco,,,,
,,,,,,6169abd4e006adba4739143e,676192165fb32c2e1fb7aee6,67d0b2661560e6b911c8b53a,2025-03-11_16h00.54.930,Tarea de decisión léxica,2024.2.5,Win32,59.88023952,,,,,,,,,,,,,,,,,,,,,,,360.8209,362.2511,l,1,0.7552,1,362.2512,362.7507,,,,,,38,MAS,NOWORD,DIS,150,gaco,,la,,0.7552,,362.7511,362.7516,0.612037094,-0.205555598,0,0,0,,0,107,107,37,1,rato,,,,
,,,,,,6169abd4e006adba4739143e,676192165fb32c2e1fb7aee6,67d0b2661560e6b911c8b53a,2025-03-11_16h00.54.930,Tarea de decisión léxica,2024.2.5,Win32,59.88023952,,,,,,,,,,,,,,,,,,,,,,,362.7521,364.3173,l,1,0.8834,1,364.3174,364.8172,,,,,,112,MAS,NOWORD,AGR,150,siro,,el,,0.8834,,364.8172,364.8174,0.612037094,-0.205555598,0,0,0,,0,108,108,111,1,muro,,,,
,,,,,,6169abd4e006adba4739143e,676192165fb32c2e1fb7aee6,67d0b2661560e6b911c8b53a,2025-03-11_16h00.54.930,Tarea de decisión léxica,2024.2.5,Win32,59.88023952,,,,,,,,,,,,,,,,,,,,,,,364.8189,365.9997,a,1,0.5009,1,365.9998,366.4998,,,,,,381,MAS,WORD,DIS,150,humor,,la,,0.5009,,366.4999,366.5001,0.612037094,-0.205555598,0,0,0,,0,109,109,380,1,nusor,,,,
,,,,,,6169abd4e006adba4739143e,676192165fb32c2e1fb7aee6,67d0b2661560e6b911c8b53a,2025-03-11_16h00.54.930,Tarea de decisión léxica,2024.2.5,Win32,59.88023952,,,,,,,,,,,,,,,,,,,,,,,366.5014,367.7659,a,1,0.584,1,367.7659,368.2659,,,,,,337,MAS,WORD,DIS,150,huevo,,la,,0.584,,368.2659,368.266,0.612037094,-0.205555598,0,0,0,,0,110,110,336,1,nuejo,,,,
,,,,,,6169abd4e006adba4739143e,676192165fb32c2e1fb7aee6,67d0b2661560e6b911c8b53a,2025-03-11_16h00.54.930,Tarea de decisión léxica,2024.2.5,Win32,59.88023952,,,,,,,,,,,,,,,,,,,,,,,368.2671,369.4484,a,1,0.5098,1,369.4484,369.9482,,,,,,287,FEM,WORD,DIS,150,lista,,el,,0.5098,,369.9483,369.9483,0.612037094,-0.205555598,0,0,0,,0,111,111,286,1,fosta,,,,
,,,,,,6169abd4e006adba4739143e,676192165fb32c2e1fb7aee6,67d0b2661560e6b911c8b53a,2025-03-11_16h00.54.930,Tarea de decisión léxica,2024.2.5,Win32,59.88023952,,,,,,,,,,,,,,,,,,,,,,,369.9489,371.1978,l,1,0.571,1,371.1978,371.6982,,,,,,480,MAS,NOWORD,AGR,150,rimpo,,el,,0.571,,371.6998,371.7008,0.612037094,-0.205555598,0,0,0,,0,112,112,479,1,rumbo,,,,
,,,,,,6169abd4e006adba4739143e,676192165fb32c2e1fb7aee6,67d0b2661560e6b911c8b53a,2025-03-11_16h00.54.930,Tarea de decisión léxica,2024.2.5,Win32,59.88023952,,,,,,,,,,,,,,,,,,,,,,,371.7022,373.0472,a,0,0.677,0,373.0476,373.5473,,,,,,254,MAS,NOWORD,DIS,150,trido,,la,,0.677,,373.5473,373.5474,0.612037094,-0.205555598,0,0,0,,0,113,113,253,1,chico,,,,
,,,,,,6169abd4e006adba4739143e,676192165fb32c2e1fb7aee6,67d0b2661560e6b911c8b53a,2025-03-11_16h00.54.930,Tarea de decisión léxica,2024.2.5,Win32,59.88023952,,,,,,,,,,,,,,,,,,,,,,,373.5489,374.7634,a,1,0.5383,1,374.764,375.2632,,,,,,207,MAS,WORD,AGR,150,kilo,,el,,0.5383,,375.2633,375.2633,0.612037094,-0.205555598,0,0,0,,0,114,114,206,1,kedo,,,,
,,,,,,6169abd4e006adba4739143e,676192165fb32c2e1fb7aee6,67d0b2661560e6b911c8b53a,2025-03-11_16h00.54.930,Tarea de decisión léxica,2024.2.5,Win32,59.88023952,,,,,,,,,,,,,,,,,,,,,,,375.2644,376.5126,a,1,0.5789,1,376.5127,377.0127,,,,,,277,MAS,WORD,AGR,150,fuego,,el,,0.5789,,377.0127,377.0128,0.612037094,-0.205555598,0,0,0,,0,115,115,276,1,vuemo,,,,
,,,,,,6169abd4e006adba4739143e,676192165fb32c2e1fb7aee6,67d0b2661560e6b911c8b53a,2025-03-11_16h00.54.930,Tarea de decisión léxica,2024.2.5,Win32,59.88023952,,,,,,,,,,,,,,,,,,,,,,,377.0135,378.3126,a,1,0.6242,1,378.3128,378.8119,,,,,,247,FEM,WORD,DIS,150,chica,,el,,0.6242,,378.812,378.812,0.612037094,-0.205555598,0,0,0,,0,116,116,246,1,trida,,,,
,,,,,,6169abd4e006adba4739143e,676192165fb32c2e1fb7aee6,67d0b2661560e6b911c8b53a,2025-03-11_16h00.54.930,Tarea de decisión léxica,2024.2.5,Win32,59.88023952,,,,,,,,,,,,,,,,,,,,,,,378.8125,380.0451,a,1,0.549,1,380.0451,380.5448,,,,,,79,FEM,WORD,AGR,150,piel,,la,,0.549,,380.5457,380.5465,0.612037094,-0.205555598,0,0,0,,0,117,117,78,1,ciel,,,,
,,,,,,6169abd4e006adba4739143e,676192165fb32c2e1fb7aee6,67d0b2661560e6b911c8b53a,2025-03-11_16h00.54.930,Tarea de decisión léxica,2024.2.5,Win32,59.88023952,,,,,,,,,,,,,,,,,,,,,,,380.5472,381.7116,l,1,0.4875,1,381.7118,382.2111,,,,,,172,MAS,NOWORD,AGR,150,niro,,el,,0.4875,,382.2112,382.2114,0.612037094,-0.205555598,0,0,0,,0,118,118,171,1,hilo,,,,
,,,,,,6169abd4e006adba4739143e,676192165fb32c2e1fb7aee6,67d0b2661560e6b911c8b53a,2025-03-11_16h00.54.930,Tarea de decisión léxica,2024.2.5,Win32,59.88023952,,,,,,,,,,,,,,,,,,,,,,,382.2129,383.4278,a,1,0.5444,1,383.428,383.9275,,,,,,345,FEM,WORD,AGR,150,arena,,la,,0.5444,,383.9276,383.9277,0.612037094,-0.205555598,0,0,0,,0,119,119,344,1,anera,,,,
,,,,,,6169abd4e006adba4739143e,676192165fb32c2e1fb7aee6,67d0b2661560e6b911c8b53a,2025-03-11_16h00.54.930,Tarea de decisión léxica,2024.2.5,Win32,59.88023952,,,,,,,,,,,,,,,,,,,,,,,383.9294,385.11,l,1,0.4997,1,385.1101,385.6103,,,,,,350,MAS,NOWORD,DIS,150,cosir,,la,,0.4997,,385.6104,385.6105,0.612037094,-0.205555598,0,0,0,,0,120,120,349,1,color,,,,
,,,,,,6169abd4e006adba4739143e,676192165fb32c2e1fb7aee6,67d0b2661560e6b911c8b53a,2025-03-11_16h00.54.930,Tarea de decisión léxica,2024.2.5,Win32,59.88023952,,,,,,,,,,,,,,,,,,,,,,,385.6127,386.676,l,1,0.3909,1,386.6761,387.1757,,,,,,150,MAS,NOWORD,DIS,150,pafo,,la,,0.3909,,387.1758,387.1759,0.612037094,-0.205555598,0,0,0,,0,121,121,149,1,cabo,,,,
,,,,,,6169abd4e006adba4739143e,676192165fb32c2e1fb7aee6,67d0b2661560e6b911c8b53a,2025-03-11_16h00.54.930,Tarea de decisión léxica,2024.2.5,Win32,59.88023952,,,,,,,,,,,,,,,,,,,,,,,387.1763,388.3088,l,1,0.4527,1,388.3089,388.8086,,,,,,230,MAS,NOWORD,DIS,150,ador,,la,,0.4527,,388.8098,388.8106,0.612037094,-0.205555598,0,0,0,,0,122,122,229,1,amor,,,,
,,,,,,6169abd4e006adba4739143e,676192165fb32c2e1fb7aee6,67d0b2661560e6b911c8b53a,2025-03-11_16h00.54.930,Tarea de decisión léxica,2024.2.5,Win32,59.88023952,,,,,,,,,,,,,,,,,,,,,,,388.8113,390.0417,l,1,0.5563,1,390.0418,390.5422,,,,,,374,FEM,NOWORD,DIS,150,pogza,,el,,0.5563,,390.5423,390.5426,0.612037094,-0.205555598,0,0,0,,0,123,123,373,1,pizza,,,,
,,,,,,6169abd4e006adba4739143e,676192165fb32c2e1fb7aee6,67d0b2661560e6b911c8b53a,2025-03-11_16h00.54.930,Tarea de decisión léxica,2024.2.5,Win32,59.88023952,,,,,,,,,,,,,,,,,,,,,,,390.5461,391.941,l,1,0.7219,1,391.941,392.4411,,,,,,386,FEM,NOWORD,DIS,150,febra,,el,,0.7219,,392.4412,392.4414,0.612037094,-0.205555598,0,0,0,,0,124,124,385,1,letra,,,,
,,,,,,6169abd4e006adba4739143e,676192165fb32c2e1fb7aee6,67d0b2661560e6b911c8b53a,2025-03-11_16h00.54.930,Tarea de decisión léxica,2024.2.5,Win32,59.88023952,,,,,,,,,,,,,,,,,,,,,,,392.4427,393.9905,l,1,0.8702,1,393.9906,394.4899,,,,,,64,FEM,NOWORD,AGR,150,funa,,la,,0.8702,,394.49,394.49,0.612037094,-0.205555598,0,0,0,,0,125,125,63,1,luna,,,,
,,,,,,6169abd4e006adba4739143e,676192165fb32c2e1fb7aee6,67d0b2661560e6b911c8b53a,2025-03-11_16h00.54.930,Tarea de decisión léxica,2024.2.5,Win32,59.88023952,,,,,,,,,,,,,,,,,,,,,,,394.4905,395.7735,l,1,0.6019,1,395.7736,396.2733,,,,,,290,FEM,NOWORD,DIS,150,bumpa,,el,,0.6019,,396.2734,396.2736,0.612037094,-0.205555598,0,0,0,,0,126,126,289,1,bomba,,,,
,,,,,,6169abd4e006adba4739143e,676192165fb32c2e1fb7aee6,67d0b2661560e6b911c8b53a,2025-03-11_16h00.54.930,Tarea de decisión léxica,2024.2.5,Win32,59.88023952,,,,,,,,,,,,,,,,,,,,,,,396.275,397.5726,l,1,0.6183,1,397.5726,398.0721,,,,,,424,MAS,NOWORD,AGR,150,quigo,,el,,0.6183,,398.0728,398.0732,0.612037094,-0.205555598,0,0,0,,0,127,127,423,1,queso,,,,
,,,,,,6169abd4e006adba4739143e,676192165fb32c2e1fb7aee6,67d0b2661560e6b911c8b53a,2025-03-11_16h00.54.930,Tarea de decisión léxica,2024.2.5,Win32,59.88023952,,,,,,,,,,,,,,,,,,,,,,,398.0737,399.1715,l,1,0.4288,1,399.1716,399.6721,,,,,,6,FEM,NOWORD,DIS,150,poga,,el,,0.4288,,399.6722,399.6724,0.612037094,-0.205555598,0,0,0,,0,128,128,5,1,cosa,,,,
,,,,,,6169abd4e006adba4739143e,676192165fb32c2e1fb7aee6,67d0b2661560e6b911c8b53a,2025-03-11_16h00.54.930,Tarea de decisión léxica,2024.2.5,Win32,59.88023952,,,,,,,,,,,,,,,,,,,,,,,399.6741,400.8545,l,1,0.5073,1,400.8546,401.3542,,,,,,454,FEM,NOWORD,DIS,150,pafia,,el,,0.5073,,401.3542,401.3543,0.612037094,-0.205555598,0,0,0,,0,129,129,453,1,mafia,,,,
,,,,,,6169abd4e006adba4739143e,676192165fb32c2e1fb7aee6,67d0b2661560e6b911c8b53a,2025-03-11_16h00.54.930,Tarea de decisión léxica,2024.2.5,Win32,59.88023952,,,,,,,,,,,,,,,,,,,,,,,401.3548,402.5708,a,1,0.5435,1,402.571,403.0705,,,,,,73,MAS,WORD,AGR,150,odio,,el,,0.5435,,403.0705,403.0706,0.612037094,-0.205555598,0,0,0,,0,130,130,72,1,omio,,,,
,,,,,,6169abd4e006adba4739143e,676192165fb32c2e1fb7aee6,67d0b2661560e6b911c8b53a,2025-03-11_16h00.54.930,Tarea de decisión léxica,2024.2.5,Win32,59.88023952,,,,,,,,,,,,,,,,,,,,,,,403.0713,404.3203,l,1,0.5685,1,404.3206,404.8203,,,,,,16,FEM,NOWORD,AGR,150,odea,,la,,0.5685,,404.8227,404.824,0.612037094,-0.205555598,0,0,0,,0,131,131,15,1,idea,,,,
,,,,,,6169abd4e006adba4739143e,676192165fb32c2e1fb7aee6,67d0b2661560e6b911c8b53a,2025-03-11_16h00.54.930,Tarea de decisión léxica,2024.2.5,Win32,59.88023952,,,,,,,,,,,,,,,,,,,,,,,404.8253,405.9362,a,0,0.4426,0,405.9367,406.4359,,,,,,40,MAS,NOWORD,AGR,150,redo,,el,,0.4426,,406.4359,406.4361,0.612037094,-0.205555598,0,0,0,,0,132,132,39,1,voto,,,,
,,,,,,6169abd4e006adba4739143e,676192165fb32c2e1fb7aee6,67d0b2661560e6b911c8b53a,2025-03-11_16h00.54.930,Tarea de decisión léxica,2024.2.5,Win32,59.88023952,,,,,,,,,,,,,,,,,,,,,,,406.4368,407.6021,l,1,0.4946,1,407.6026,408.1027,,,,,,178,MAS,NOWORD,DIS,150,bito,,la,,0.4946,,408.1027,408.103,0.612037094,-0.205555598,0,0,0,,0,133,133,177,1,reto,,,,
,,,,,,6169abd4e006adba4739143e,676192165fb32c2e1fb7aee6,67d0b2661560e6b911c8b53a,2025-03-11_16h00.54.930,Tarea de decisión léxica,2024.2.5,Win32,59.88023952,,,,,,,,,,,,,,,,,,,,,,,408.1048,409.135,l,1,0.3482,1,409.1351,409.6354,,,,,,126,MAS,NOWORD,DIS,150,vudo,,la,,0.3482,,409.6355,409.6358,0.612037094,-0.205555598,0,0,0,,0,134,134,125,1,lujo,,,,
,,,,,,6169abd4e006adba4739143e,676192165fb32c2e1fb7aee6,67d0b2661560e6b911c8b53a,2025-03-11_16h00.54.930,Tarea de decisión léxica,2024.2.5,Win32,59.88023952,,,,,,,,,,,,,,,,,,,,,,,409.6379,410.7515,a,1,0.4399,1,410.7516,411.2511,,,,,,259,MAS,WORD,DIS,150,juego,,la,,0.4399,,411.2512,411.2512,0.612037094,-0.205555598,0,0,0,,0,135,135,258,1,jaumo,,,,
,,,,,,6169abd4e006adba4739143e,676192165fb32c2e1fb7aee6,67d0b2661560e6b911c8b53a,2025-03-11_16h00.54.930,Tarea de decisión léxica,2024.2.5,Win32,59.88023952,,,,,,,,,,,,,,,,,,,,,,,411.252,412.5508,l,0,0.6252,0,412.5518,413.0509,,,,,,149,MAS,WORD,DIS,150,cabo,,la,,0.6252,,413.0526,413.0537,0.612037094,-0.205555598,0,0,0,,0,136,136,148,1,pafo,,,,
,,,,,,6169abd4e006adba4739143e,676192165fb32c2e1fb7aee6,67d0b2661560e6b911c8b53a,2025-03-11_16h00.54.930,Tarea de decisión léxica,2024.2.5,Win32,59.88023952,,,,,,,,,,,,,,,,,,,,,,,413.0551,414.2335,a,1,0.5043,1,414.2342,414.7332,,,,,,429,FEM,WORD,DIS,150,tarta,,el,,0.5043,,414.7332,414.7333,0.612037094,-0.205555598,0,0,0,,0,137,137,428,1,tenta,,,,
,,,,,,6169abd4e006adba4739143e,676192165fb32c2e1fb7aee6,67d0b2661560e6b911c8b53a,2025-03-11_16h00.54.930,Tarea de decisión léxica,2024.2.5,Win32,59.88023952,,,,,,,,,,,,,,,,,,,,,,,414.734,416.0997,l,1,0.684,1,416.0999,416.5997,,,,,,116,FEM,NOWORD,AGR,150,haca,,la,,0.684,,416.5998,416.6001,0.612037094,-0.205555598,0,0,0,,0,138,138,115,1,pata,,,,
,,,,,,6169abd4e006adba4739143e,676192165fb32c2e1fb7aee6,67d0b2661560e6b911c8b53a,2025-03-11_16h00.54.930,Tarea de decisión léxica,2024.2.5,Win32,59.88023952,,,,,,,,,,,,,,,,,,,,,,,416.6018,417.6491,a,1,0.3676,1,417.6493,418.1491,,,,,,211,FEM,WORD,DIS,150,joya,,el,,0.3676,,418.1493,418.1494,0.612037094,-0.205555598,0,0,0,,0,139,139,210,1,joad,,,,
,,,,,,6169abd4e006adba4739143e,676192165fb32c2e1fb7aee6,67d0b2661560e6b911c8b53a,2025-03-11_16h00.54.930,Tarea de decisión léxica,2024.2.5,Win32,59.88023952,,,,,,,,,,,,,,,,,,,,,,,418.1511,419.3153,a,1,0.4833,1,419.3153,419.815,,,,,,213,FEM,WORD,AGR,150,rama,,la,,0.4833,,419.815,419.8152,0.612037094,-0.205555598,0,0,0,,0,140,140,212,1,bana,,,,
,,,,,,6169abd4e006adba4739143e,676192165fb32c2e1fb7aee6,67d0b2661560e6b911c8b53a,2025-03-11_16h00.54.930,Tarea de decisión léxica,2024.2.5,Win32,59.88023952,,,,,,,,,,,,,,,,,,,,,,,419.8164,420.981,a,1,0.4835,1,420.9811,421.4809,,,,,,191,FEM,WORD,DIS,150,pila,,el,,0.4835,,421.4818,421.4823,0.612037094,-0.205555598,0,0,0,,0,141,141,190,1,bila,,,,
,,,,,,6169abd4e006adba4739143e,676192165fb32c2e1fb7aee6,67d0b2661560e6b911c8b53a,2025-03-11_16h00.54.930,Tarea de decisión léxica,2024.2.5,Win32,59.88023952,,,,,,,,,,,,,,,,,,,,,,,421.4828,422.6474,l,1,0.4838,1,422.6476,423.147,,,,,,108,MAS,NOWORD,AGR,150,raot,,el,,0.4838,,423.1471,423.1472,0.612037094,-0.205555598,0,0,0,,0,142,142,107,1,saco,,,,
,,,,,,6169abd4e006adba4739143e,676192165fb32c2e1fb7aee6,67d0b2661560e6b911c8b53a,2025-03-11_16h00.54.930,Tarea de decisión léxica,2024.2.5,Win32,59.88023952,,,,,,,,,,,,,,,,,,,,,,,423.1484,424.4965,a,1,0.666,1,424.4967,424.9963,,,,,,425,FEM,WORD,DIS,150,viuda,,el,,0.666,,424.9963,424.9963,0.612037094,-0.205555598,0,0,0,,0,143,143,424,1,virca,,,,
,,,,,,6169abd4e006adba4739143e,676192165fb32c2e1fb7aee6,67d0b2661560e6b911c8b53a,2025-03-11_16h00.54.930,Tarea de decisión léxica,2024.2.5,Win32,59.88023952,,,,,,,,,,,,,,,,,,,,,,,424.9968,426.1128,a,1,0.434,1,426.1128,426.6126,,,,,,127,MAS,WORD,AGR,150,pico,,el,,0.434,,426.6126,426.6127,0.612037094,-0.205555598,0,0,0,,0,144,144,126,1,itio,,,,
,,,,,,6169abd4e006adba4739143e,676192165fb32c2e1fb7aee6,67d0b2661560e6b911c8b53a,2025-03-11_16h00.54.930,Tarea de decisión léxica,2024.2.5,Win32,59.88023952,,,,,,,,,,,,,,,,,,,,,,,426.6136,428.1292,a,0,0.8349,0,428.1301,428.6291,,,,,,28,MAS,NOWORD,AGR,150,ravo,,el,,0.8349,,428.6291,428.6295,0.612037094,-0.205555598,0,0,0,,0,145,145,27,1,baño,,,,
,,,,,,6169abd4e006adba4739143e,676192165fb32c2e1fb7aee6,67d0b2661560e6b911c8b53a,2025-03-11_16h00.54.930,Tarea de decisión léxica,2024.2.5,Win32,59.88023952,,,,,,,,,,,,,,,,,,,,,,,428.6314,430.0784,l,1,0.7771,1,430.0795,430.578,,,,,,300,FEM,NOWORD,AGR,150,bosga,,la,,0.7771,,430.5794,430.5803,0.612037094,-0.205555598,0,0,0,,0,146,146,299,1,bolsa,,,,
,,,,,,6169abd4e006adba4739143e,676192165fb32c2e1fb7aee6,67d0b2661560e6b911c8b53a,2025-03-11_16h00.54.930,Tarea de decisión léxica,2024.2.5,Win32,59.88023952,,,,,,,,,,,,,,,,,,,,,,,430.5813,431.8107,l,1,0.5519,1,431.8107,432.3104,,,,,,256,MAS,NOWORD,AGR,150,mauco,,el,,0.5519,,432.3104,432.3105,0.612037094,-0.205555598,0,0,0,,0,147,147,255,1,miedo,,,,
,,,,,,6169abd4e006adba4739143e,676192165fb32c2e1fb7aee6,67d0b2661560e6b911c8b53a,2025-03-11_16h00.54.930,Tarea de decisión léxica,2024.2.5,Win32,59.88023952,,,,,,,,,,,,,,,,,,,,,,,432.311,433.6934,l,1,0.7025,1,433.6934,434.1938,,,,,,142,FEM,NOWORD,DIS,150,sina,,el,,0.7025,,434.1939,434.1941,0.612037094,-0.205555598,0,0,0,,0,148,148,141,1,cruz,,,,
,,,,,,6169abd4e006adba4739143e,676192165fb32c2e1fb7aee6,67d0b2661560e6b911c8b53a,2025-03-11_16h00.54.930,Tarea de decisión léxica,2024.2.5,Win32,59.88023952,,,,,,,,,,,,,,,,,,,,,,,434.1964,435.343,a,1,0.4754,1,435.3431,435.843,,,,,,145,MAS,WORD,AGR,150,león,,el,,0.4754,,435.843,435.8432,0.612037094,-0.205555598,0,0,0,,0,149,149,144,1,nobo,,,,
,,,,,,6169abd4e006adba4739143e,676192165fb32c2e1fb7aee6,67d0b2661560e6b911c8b53a,2025-03-11_16h00.54.930,Tarea de decisión léxica,2024.2.5,Win32,59.88023952,,,,,,,,,,,,,,,,,,,,,,,435.8444,437.2756,l,1,0.7489,1,437.2756,437.7757,,,,,,416,FEM,NOWORD,AGR,150,juira,,la,,0.7489,,437.7758,437.7759,0.612037094,-0.205555598,0,0,0,,0,150,150,415,1,jaula,,,,
,,,,,,6169abd4e006adba4739143e,676192165fb32c2e1fb7aee6,67d0b2661560e6b911c8b53a,2025-03-11_16h00.54.930,Tarea de decisión léxica,2024.2.5,Win32,59.88023952,,,,,,,,,,,,,,,,,,,,,,,437.7772,439.175,a,1,0.7183,1,439.1752,439.6753,,,,,,179,MAS,WORD,AGR,150,toro,,el,,0.7183,,439.6775,439.6787,0.612037094,-0.205555598,0,0,0,,0,151,151,178,1,sono,,,,
,,,,,,6169abd4e006adba4739143e,676192165fb32c2e1fb7aee6,67d0b2661560e6b911c8b53a,2025-03-11_16h00.54.930,Tarea de decisión léxica,2024.2.5,Win32,59.88023952,,,,,,,,,,,,,,,,,,,,,,,439.6801,440.8577,l,1,0.5022,1,440.8578,441.3577,,,,,,24,FEM,NOWORD,AGR,150,giva,,la,,0.5022,,441.3578,441.3579,0.612037094,-0.205555598,0,0,0,,0,152,152,23,1,hija,,,,
,,,,,,6169abd4e006adba4739143e,676192165fb32c2e1fb7aee6,67d0b2661560e6b911c8b53a,2025-03-11_16h00.54.930,Tarea de decisión léxica,2024.2.5,Win32,59.88023952,,,,,,,,,,,,,,,,,,,,,,,441.3591,442.6574,l,1,0.6223,1,442.6575,443.1571,,,,,,226,MAS,NOWORD,DIS,150,boco,,la,,0.6223,,443.1572,443.1573,0.612037094,-0.205555598,0,0,0,,0,153,153,225,1,lodo,,,,
,,,,,,6169abd4e006adba4739143e,676192165fb32c2e1fb7aee6,67d0b2661560e6b911c8b53a,2025-03-11_16h00.54.930,Tarea de decisión léxica,2024.2.5,Win32,59.88023952,,,,,,,,,,,,,,,,,,,,,,,443.1586,444.3068,l,1,0.4721,1,444.3069,444.807,,,,,,170,MAS,NOWORD,DIS,150,mibo,,la,,0.4721,,444.8071,444.8072,0.612037094,-0.205555598,0,0,0,,0,154,154,169,1,cubo,,,,
,,,,,,6169abd4e006adba4739143e,676192165fb32c2e1fb7aee6,67d0b2661560e6b911c8b53a,2025-03-11_16h00.54.930,Tarea de decisión léxica,2024.2.5,Win32,59.88023952,,,,,,,,,,,,,,,,,,,,,,,444.808,446.0726,a,0,0.5924,0,446.0732,446.5725,,,,,,450,FEM,NOWORD,DIS,150,crusa,,el,,0.5924,,446.5736,446.5741,0.612037094,-0.205555598,0,0,0,,0,155,155,449,1,pluma,,,,
,,,,,,6169abd4e006adba4739143e,676192165fb32c2e1fb7aee6,67d0b2661560e6b911c8b53a,2025-03-11_16h00.54.930,Tarea de decisión léxica,2024.2.5,Win32,59.88023952,,,,,,,,,,,,,,,,,,,,,,,446.5749,447.8552,a,1,0.5998,1,447.8556,448.3552,,,,,,157,MAS,WORD,AGR,150,nido,,el,,0.5998,,448.3553,448.3553,0.612037094,-0.205555598,0,0,0,,0,156,156,156,1,hico,,,,
,,,,,,6169abd4e006adba4739143e,676192165fb32c2e1fb7aee6,67d0b2661560e6b911c8b53a,2025-03-11_16h00.54.930,Tarea de decisión léxica,2024.2.5,Win32,59.88023952,,,,,,,,,,,,,,,,,,,,,,,448.3563,449.6383,l,1,0.6099,1,449.6383,450.138,,,,,,364,FEM,NOWORD,AGR,150,veida,,la,,0.6099,,450.138,450.1381,0.612037094,-0.205555598,0,0,0,,0,157,157,363,1,deuda,,,,
,,,,,,6169abd4e006adba4739143e,676192165fb32c2e1fb7aee6,67d0b2661560e6b911c8b53a,2025-03-11_16h00.54.930,Tarea de decisión léxica,2024.2.5,Win32,59.88023952,,,,,,,,,,,,,,,,,,,,,,,450.139,451.488,a,1,0.6673,1,451.4882,451.9875,,,,,,389,MAS,WORD,AGR,150,cerdo,,el,,0.6673,,451.9876,451.9877,0.612037094,-0.205555598,0,0,0,,0,158,158,388,1,cenco,,,,
,,,,,,6169abd4e006adba4739143e,676192165fb32c2e1fb7aee6,67d0b2661560e6b911c8b53a,2025-03-11_16h00.54.930,Tarea de decisión léxica,2024.2.5,Win32,59.88023952,,,,,,,,,,,,,,,,,,,,,,,451.989,453.0868,a,1,0.4214,1,453.0869,453.5868,,,,,,81,FEM,WORD,DIS,150,dama,,el,,0.4214,,453.5868,453.5869,0.612037094,-0.205555598,0,0,0,,0,159,159,80,1,vasa,,,,
,,,,,,6169abd4e006adba4739143e,676192165fb32c2e1fb7aee6,67d0b2661560e6b911c8b53a,2025-03-11_16h00.54.930,Tarea de decisión léxica,2024.2.5,Win32,59.88023952,,,,,,,,,,,,,,,,,,,,,,,453.5878,454.8865,l,1,0.6215,1,454.8865,455.3863,,,,,,194,FEM,NOWORD,DIS,150,foda,,el,,0.6215,,455.3875,466.5661,0.612037094,-0.205555598,0,0,0,space,0,160,160,193,1,loca,11.149,,,
,,,,,,6169abd4e006adba4739143e,676192165fb32c2e1fb7aee6,67d0b2661560e6b911c8b53a,2025-03-11_16h00.54.930,Tarea de decisión léxica,2024.2.5,Win32,59.88023952,,,,,,,,,,,,,,,,,,,,,,,466.568,468.2655,a,0,1.018,0,468.2669,468.7654,,,,,,206,FEM,NOWORD,DIS,150,bara,,el,,1.018,,468.7655,468.7657,0.612037094,-0.205555598,0,0,0,,0,161,161,205,1,rana,,,,
,,,,,,6169abd4e006adba4739143e,676192165fb32c2e1fb7aee6,67d0b2661560e6b911c8b53a,2025-03-11_16h00.54.930,Tarea de decisión léxica,2024.2.5,Win32,59.88023952,,,,,,,,,,,,,,,,,,,,,,,468.7675,469.9816,a,1,0.5365,1,469.9828,470.4813,,,,,,431,MAS,WORD,DIS,150,motor,,la,,0.5365,,470.4814,470.4816,0.612037094,-0.205555598,0,0,0,,0,162,162,430,1,tetor,,,,
,,,,,,6169abd4e006adba4739143e,676192165fb32c2e1fb7aee6,67d0b2661560e6b911c8b53a,2025-03-11_16h00.54.930,Tarea de decisión léxica,2024.2.5,Win32,59.88023952,,,,,,,,,,,,,,,,,,,,,,,470.4829,471.614,a,1,0.4594,1,471.614,472.1144,,,,,,57,MAS,WORD,AGR,150,dedo,,el,,0.4594,,472.1145,472.1147,0.612037094,-0.205555598,0,0,0,,0,163,163,56,1,heco,,,,
,,,,,,6169abd4e006adba4739143e,676192165fb32c2e1fb7aee6,67d0b2661560e6b911c8b53a,2025-03-11_16h00.54.930,Tarea de decisión léxica,2024.2.5,Win32,59.88023952,,,,,,,,,,,,,,,,,,,,,,,472.1164,473.1801,a,1,0.3843,1,473.1802,473.68,,,,,,45,FEM,WORD,AGR,150,mesa,,la,,0.3843,,473.6801,473.6803,0.612037094,-0.205555598,0,0,0,,0,164,164,44,1,pema,,,,
,,,,,,6169abd4e006adba4739143e,676192165fb32c2e1fb7aee6,67d0b2661560e6b911c8b53a,2025-03-11_16h00.54.930,Tarea de decisión léxica,2024.2.5,Win32,59.88023952,,,,,,,,,,,,,,,,,,,,,,,473.6812,474.9628,l,1,0.5986,1,474.9629,475.4627,,,,,,18,FEM,NOWORD,DIS,150,paba,,el,,0.5986,,475.4635,475.4644,0.612037094,-0.205555598,0,0,0,,0,165,165,17,1,mamá,,,,
,,,,,,6169abd4e006adba4739143e,676192165fb32c2e1fb7aee6,67d0b2661560e6b911c8b53a,2025-03-11_16h00.54.930,Tarea de decisión léxica,2024.2.5,Win32,59.88023952,,,,,,,,,,,,,,,,,,,,,,,475.4654,476.6788,a,1,0.5389,1,476.679,477.1788,,,,,,131,FEM,WORD,DIS,150,mina,,el,,0.5389,,477.1788,477.1789,0.612037094,-0.205555598,0,0,0,,0,166,166,130,1,fada,,,,
,,,,,,6169abd4e006adba4739143e,676192165fb32c2e1fb7aee6,67d0b2661560e6b911c8b53a,2025-03-11_16h00.54.930,Tarea de decisión léxica,2024.2.5,Win32,59.88023952,,,,,,,,,,,,,,,,,,,,,,,477.1795,478.3784,l,0,0.516,0,478.3792,478.8786,,,,,,155,FEM,WORD,DIS,150,fuga,,el,,0.516,,478.8787,478.8789,0.612037094,-0.205555598,0,0,0,,0,167,167,154,1,luma,,,,
,,,,,,6169abd4e006adba4739143e,676192165fb32c2e1fb7aee6,67d0b2661560e6b911c8b53a,2025-03-11_16h00.54.930,Tarea de decisión léxica,2024.2.5,Win32,59.88023952,,,,,,,,,,,,,,,,,,,,,,,478.8803,480.0946,a,0,0.5337,0,480.0946,480.5946,,,,,,336,FEM,NOWORD,AGR,150,pesta,,la,,0.5337,,480.5947,480.5949,0.612037094,-0.205555598,0,0,0,,0,168,168,335,1,costa,,,,
,,,,,,6169abd4e006adba4739143e,676192165fb32c2e1fb7aee6,67d0b2661560e6b911c8b53a,2025-03-11_16h00.54.930,Tarea de decisión léxica,2024.2.5,Win32,59.88023952,,,,,,,,,,,,,,,,,,,,,,,480.5965,481.8611,l,1,0.5846,1,481.8623,482.3606,,,,,,10,MAS,NOWORD,DIS,150,sibo,,la,,0.5846,,482.3608,482.361,0.612037094,-0.205555598,0,0,0,,0,169,169,9,1,tipo,,,,
,,,,,,6169abd4e006adba4739143e,676192165fb32c2e1fb7aee6,67d0b2661560e6b911c8b53a,2025-03-11_16h00.54.930,Tarea de decisión léxica,2024.2.5,Win32,59.88023952,,,,,,,,,,,,,,,,,,,,,,,482.3622,483.5437,a,1,0.504,1,483.5439,484.0434,,,,,,61,FEM,WORD,DIS,150,obra,,el,,0.504,,484.0453,484.0465,0.612037094,-0.205555598,0,0,0,,0,170,170,60,1,efla,,,,
,,,,,,6169abd4e006adba4739143e,676192165fb32c2e1fb7aee6,67d0b2661560e6b911c8b53a,2025-03-11_16h00.54.930,Tarea de decisión léxica,2024.2.5,Win32,59.88023952,,,,,,,,,,,,,,,,,,,,,,,484.0478,485.226,l,1,0.5002,1,485.2261,485.7263,,,,,,356,FEM,NOWORD,AGR,150,bepla,,la,,0.5002,,485.7263,485.7265,0.612037094,-0.205555598,0,0,0,,0,171,171,355,1,regla,,,,
,,,,,,6169abd4e006adba4739143e,676192165fb32c2e1fb7aee6,67d0b2661560e6b911c8b53a,2025-03-11_16h00.54.930,Tarea de decisión léxica,2024.2.5,Win32,59.88023952,,,,,,,,,,,,,,,,,,,,,,,485.728,486.892,l,1,0.4835,1,486.892,487.3925,,,,,,396,FEM,NOWORD,AGR,150,paeda,,la,,0.4835,,487.3927,487.3929,0.612037094,-0.205555598,0,0,0,,0,172,172,395,1,caída,,,,
,,,,,,6169abd4e006adba4739143e,676192165fb32c2e1fb7aee6,67d0b2661560e6b911c8b53a,2025-03-11_16h00.54.930,Tarea de decisión léxica,2024.2.5,Win32,59.88023952,,,,,,,,,,,,,,,,,,,,,,,487.3945,488.3754,l,1,0.3024,1,488.3755,488.875,,,,,,460,MAS,NOWORD,AGR,150,fraco,,el,,0.3024,,488.8751,488.8754,0.612037094,-0.205555598,0,0,0,,0,173,173,459,1,grado,,,,
,,,,,,6169abd4e006adba4739143e,676192165fb32c2e1fb7aee6,67d0b2661560e6b911c8b53a,2025-03-11_16h00.54.930,Tarea de decisión léxica,2024.2.5,Win32,59.88023952,,,,,,,,,,,,,,,,,,,,,,,488.8767,489.825,l,1,0.2681,1,489.8252,490.3249,,,,,,274,FEM,NOWORD,DIS,150,frosa,,el,,0.2681,,490.3249,490.3252,0.612037094,-0.205555598,0,0,0,,0,174,174,273,1,broma,,,,
,,,,,,6169abd4e006adba4739143e,676192165fb32c2e1fb7aee6,67d0b2661560e6b911c8b53a,2025-03-11_16h00.54.930,Tarea de decisión léxica,2024.2.5,Win32,59.88023952,,,,,,,,,,,,,,,,,,,,,,,490.3269,491.5408,a,1,0.535,1,491.5409,492.0406,,,,,,301,FEM,WORD,DIS,150,banda,,el,,0.535,,492.042,492.0429,0.612037094,-0.205555598,0,0,0,,0,175,175,300,1,ranga,,,,
,,,,,,6169abd4e006adba4739143e,676192165fb32c2e1fb7aee6,67d0b2661560e6b911c8b53a,2025-03-11_16h00.54.930,Tarea de decisión léxica,2024.2.5,Win32,59.88023952,,,,,,,,,,,,,,,,,,,,,,,492.044,493.2564,l,1,0.5438,1,493.2565,493.7566,,,,,,338,MAS,NOWORD,DIS,150,nuejo,,la,,0.5438,,493.7567,493.7568,0.612037094,-0.205555598,0,0,0,,0,176,176,337,1,huevo,,,,
,,,,,,6169abd4e006adba4739143e,676192165fb32c2e1fb7aee6,67d0b2661560e6b911c8b53a,2025-03-11_16h00.54.930,Tarea de decisión léxica,2024.2.5,Win32,59.88023952,,,,,,,,,,,,,,,,,,,,,,,493.758,494.8226,a,1,0.3908,1,494.8227,495.3225,,,,,,271,FEM,WORD,AGR,150,señal,,la,,0.3908,,495.3225,495.3227,0.612037094,-0.205555598,0,0,0,,0,177,177,270,1,refal,,,,
,,,,,,6169abd4e006adba4739143e,676192165fb32c2e1fb7aee6,67d0b2661560e6b911c8b53a,2025-03-11_16h00.54.930,Tarea de decisión léxica,2024.2.5,Win32,59.88023952,,,,,,,,,,,,,,,,,,,,,,,495.3232,496.4227,a,0,0.4189,0,496.4238,496.9226,,,,,,214,FEM,NOWORD,DIS,150,bana,,el,,0.4189,,496.9226,496.9228,0.612037094,-0.205555598,0,0,0,,0,178,178,213,1,rama,,,,
,,,,,,6169abd4e006adba4739143e,676192165fb32c2e1fb7aee6,67d0b2661560e6b911c8b53a,2025-03-11_16h00.54.930,Tarea de decisión léxica,2024.2.5,Win32,59.88023952,,,,,,,,,,,,,,,,,,,,,,,496.9244,498.1717,a,0,0.5665,0,498.1717,498.6719,,,,,,4,FEM,NOWORD,AGR,150,dica,,la,,0.5665,,498.6739,498.6751,0.612037094,-0.205555598,0,0,0,,0,179,179,3,1,vida,,,,
,,,,,,6169abd4e006adba4739143e,676192165fb32c2e1fb7aee6,67d0b2661560e6b911c8b53a,2025-03-11_16h00.54.930,Tarea de decisión léxica,2024.2.5,Win32,59.88023952,,,,,,,,,,,,,,,,,,,,,,,498.6767,500.0877,a,1,0.745,1,500.0891,500.5879,,,,,,195,FEM,WORD,DIS,150,tela,,el,,0.745,,500.5881,500.5883,0.612037094,-0.205555598,0,0,0,,0,180,180,194,1,sira,,,,
,,,,,,6169abd4e006adba4739143e,676192165fb32c2e1fb7aee6,67d0b2661560e6b911c8b53a,2025-03-11_16h00.54.930,Tarea de decisión léxica,2024.2.5,Win32,59.88023952,,,,,,,,,,,,,,,,,,,,,,,500.5899,501.7036,l,1,0.4438,1,501.7038,502.2038,,,,,,124,FEM,NOWORD,AGR,150,maba,,la,,0.4438,,502.2039,502.204,0.612037094,-0.205555598,0,0,0,,0,181,181,123,1,flor,,,,
,,,,,,6169abd4e006adba4739143e,676192165fb32c2e1fb7aee6,67d0b2661560e6b911c8b53a,2025-03-11_16h00.54.930,Tarea de decisión léxica,2024.2.5,Win32,59.88023952,,,,,,,,,,,,,,,,,,,,,,,502.2051,503.3367,l,1,0.4566,1,503.3368,503.8363,,,,,,158,MAS,NOWORD,DIS,150,hico,,la,,0.4566,,503.8363,503.8363,0.612037094,-0.205555598,0,0,0,,0,182,182,157,1,nido,,,,
,,,,,,6169abd4e006adba4739143e,676192165fb32c2e1fb7aee6,67d0b2661560e6b911c8b53a,2025-03-11_16h00.54.930,Tarea de decisión léxica,2024.2.5,Win32,59.88023952,,,,,,,,,,,,,,,,,,,,,,,503.837,504.8025,l,0,0.2953,0,504.8029,505.3028,,,,,,175,FEM,WORD,AGR,150,goma,,la,,0.2953,,505.3029,505.303,0.612037094,-0.205555598,0,0,0,,0,183,183,174,1,hosa,,,,
,,,,,,6169abd4e006adba4739143e,676192165fb32c2e1fb7aee6,67d0b2661560e6b911c8b53a,2025-03-11_16h00.54.930,Tarea de decisión léxica,2024.2.5,Win32,59.88023952,,,,,,,,,,,,,,,,,,,,,,,505.3047,506.3522,a,1,0.3666,1,506.3529,506.8521,,,,,,17,FEM,WORD,DIS,150,mamá,,el,,0.3666,,506.853,506.8536,0.612037094,-0.205555598,0,0,0,,0,184,184,16,1,paba,,,,
,,,,,,6169abd4e006adba4739143e,676192165fb32c2e1fb7aee6,67d0b2661560e6b911c8b53a,2025-03-11_16h00.54.930,Tarea de decisión léxica,2024.2.5,Win32,59.88023952,,,,,,,,,,,,,,,,,,,,,,,506.8542,507.9522,l,1,0.421,1,507.9523,508.4519,,,,,,166,FEM,NOWORD,DIS,150,dera,,el,,0.421,,508.452,508.4521,0.612037094,-0.205555598,0,0,0,,0,185,185,165,1,vela,,,,
,,,,,,6169abd4e006adba4739143e,676192165fb32c2e1fb7aee6,67d0b2661560e6b911c8b53a,2025-03-11_16h00.54.930,Tarea de decisión léxica,2024.2.5,Win32,59.88023952,,,,,,,,,,,,,,,,,,,,,,,508.4533,509.6011,l,1,0.4666,1,509.6012,510.1011,,,,,,238,MAS,NOWORD,DIS,150,huco,,la,,0.4666,,510.1012,510.1014,0.612037094,-0.205555598,0,0,0,,0,186,186,237,1,nudo,,,,
,,,,,,6169abd4e006adba4739143e,676192165fb32c2e1fb7aee6,67d0b2661560e6b911c8b53a,2025-03-11_16h00.54.930,Tarea de decisión léxica,2024.2.5,Win32,59.88023952,,,,,,,,,,,,,,,,,,,,,,,510.1027,511.251,a,0,0.4672,0,511.2519,511.7508,,,,,,404,FEM,NOWORD,AGR,150,grisa,,la,,0.4672,,511.7509,511.7511,0.612037094,-0.205555598,0,0,0,,0,187,187,403,1,prima,,,,
,,,,,,6169abd4e006adba4739143e,676192165fb32c2e1fb7aee6,67d0b2661560e6b911c8b53a,2025-03-11_16h00.54.930,Tarea de decisión léxica,2024.2.5,Win32,59.88023952,,,,,,,,,,,,,,,,,,,,,,,511.7525,512.8666,a,1,0.4436,1,512.867,513.3666,,,,,,439,FEM,WORD,DIS,150,presa,,el,,0.4436,,513.3666,513.3667,0.612037094,-0.205555598,0,0,0,,0,188,188,438,1,prema,,,,
,,,,,,6169abd4e006adba4739143e,676192165fb32c2e1fb7aee6,67d0b2661560e6b911c8b53a,2025-03-11_16h00.54.930,Tarea de decisión léxica,2024.2.5,Win32,59.88023952,,,,,,,,,,,,,,,,,,,,,,,513.3678,514.7665,a,1,0.7282,1,514.7666,515.2661,,,,,,185,MAS,WORD,DIS,150,baúl,,la,,0.7282,,515.2675,515.2686,0.612037094,-0.205555598,0,0,0,,0,189,189,184,1,raol,,,,
,,,,,,6169abd4e006adba4739143e,676192165fb32c2e1fb7aee6,67d0b2661560e6b911c8b53a,2025-03-11_16h00.54.930,Tarea de decisión léxica,2024.2.5,Win32,59.88023952,,,,,,,,,,,,,,,,,,,,,,,515.2698,516.499,l,1,0.5594,1,516.4991,516.999,,,,,,312,MAS,NOWORD,AGR,150,nosor,,el,,0.5594,,516.9991,516.9994,0.612037094,-0.205555598,0,0,0,,0,190,190,311,1,honor,,,,
,,,,,,6169abd4e006adba4739143e,676192165fb32c2e1fb7aee6,67d0b2661560e6b911c8b53a,2025-03-11_16h00.54.930,Tarea de decisión léxica,2024.2.5,Win32,59.88023952,,,,,,,,,,,,,,,,,,,,,,,517.0009,518.0821,a,1,0.401,1,518.0823,518.5821,,,,,,317,FEM,WORD,AGR,150,playa,,la,,0.401,,518.5822,518.5825,0.612037094,-0.205555598,0,0,0,,0,191,191,316,1,plaad,,,,
,,,,,,6169abd4e006adba4739143e,676192165fb32c2e1fb7aee6,67d0b2661560e6b911c8b53a,2025-03-11_16h00.54.930,Tarea de decisión léxica,2024.2.5,Win32,59.88023952,,,,,,,,,,,,,,,,,,,,,,,518.5855,519.7307,a,1,0.4769,1,519.7307,520.2313,,,,,,115,FEM,WORD,DIS,150,pata,,el,,0.4769,,520.2313,520.2315,0.612037094,-0.205555598,0,0,0,,0,192,192,114,1,haca,,,,
,,,,,,6169abd4e006adba4739143e,676192165fb32c2e1fb7aee6,67d0b2661560e6b911c8b53a,2025-03-11_16h00.54.930,Tarea de decisión léxica,2024.2.5,Win32,59.88023952,,,,,,,,,,,,,,,,,,,,,,,520.233,521.4975,l,1,0.5842,1,521.4977,521.9969,,,,,,438,FEM,NOWORD,DIS,150,glava,,el,,0.5842,,521.997,521.997,0.612037094,-0.205555598,0,0,0,,0,193,193,437,1,plaza,,,,
,,,,,,6169abd4e006adba4739143e,676192165fb32c2e1fb7aee6,67d0b2661560e6b911c8b53a,2025-03-11_16h00.54.930,Tarea de decisión léxica,2024.2.5,Win32,59.88023952,,,,,,,,,,,,,,,,,,,,,,,521.9975,523.1299,l,1,0.4493,1,523.13,523.6298,,,,,,286,MAS,NOWORD,DIS,150,echor,,la,,0.4493,,523.631,523.6317,0.612037094,-0.205555598,0,0,0,,0,194,194,285,1,error,,,,
,,,,,,6169abd4e006adba4739143e,676192165fb32c2e1fb7aee6,67d0b2661560e6b911c8b53a,2025-03-11_16h00.54.930,Tarea de decisión léxica,2024.2.5,Win32,59.88023952,,,,,,,,,,,,,,,,,,,,,,,523.6326,524.7632,l,1,0.4529,1,524.7634,525.2626,,,,,,212,FEM,NOWORD,AGR,150,joad,,la,,0.4529,,525.2627,525.2629,0.612037094,-0.205555598,0,0,0,,0,195,195,211,1,joya,,,,
,,,,,,6169abd4e006adba4739143e,676192165fb32c2e1fb7aee6,67d0b2661560e6b911c8b53a,2025-03-11_16h00.54.930,Tarea de decisión léxica,2024.2.5,Win32,59.88023952,,,,,,,,,,,,,,,,,,,,,,,525.2639,526.4622,a,0,0.5174,0,526.4631,526.9616,,,,,,14,FEM,NOWORD,DIS,150,nola,,el,,0.5174,,526.9616,526.9617,0.612037094,-0.205555598,0,0,0,,0,196,196,13,1,hora,,,,
,,,,,,6169abd4e006adba4739143e,676192165fb32c2e1fb7aee6,67d0b2661560e6b911c8b53a,2025-03-11_16h00.54.930,Tarea de decisión léxica,2024.2.5,Win32,59.88023952,,,,,,,,,,,,,,,,,,,,,,,526.9622,528.1947,l,1,0.5534,1,528.1951,528.6944,,,,,,456,MAS,NOWORD,AGR,150,riaso,,el,,0.5534,,528.6945,528.6945,0.612037094,-0.205555598,0,0,0,,0,197,197,455,1,reino,,,,
,,,,,,6169abd4e006adba4739143e,676192165fb32c2e1fb7aee6,67d0b2661560e6b911c8b53a,2025-03-11_16h00.54.930,Tarea de decisión léxica,2024.2.5,Win32,59.88023952,,,,,,,,,,,,,,,,,,,,,,,528.6951,529.8443,a,1,0.4693,1,529.8444,530.3446,,,,,,357,FEM,WORD,AGR,150,bruja,,la,,0.4693,,530.3447,530.3449,0.612037094,-0.205555598,0,0,0,,0,198,198,356,1,gruba,,,,
,,,,,,6169abd4e006adba4739143e,676192165fb32c2e1fb7aee6,67d0b2661560e6b911c8b53a,2025-03-11_16h00.54.930,Tarea de decisión léxica,2024.2.5,Win32,59.88023952,,,,,,,,,,,,,,,,,,,,,,,530.3464,531.9603,a,0,0.933,0,531.9608,532.4601,,,,,,200,MAS,NOWORD,AGR,150,fano,,el,,0.933,,532.4614,532.462,0.612037094,-0.205555598,0,0,0,,0,199,199,199,1,lazo,,,,
,,,,,,6169abd4e006adba4739143e,676192165fb32c2e1fb7aee6,67d0b2661560e6b911c8b53a,2025-03-11_16h00.54.930,Tarea de decisión léxica,2024.2.5,Win32,59.88023952,,,,,,,,,,,,,,,,,,,,,,,532.4629,533.6431,l,1,0.5041,1,533.644,534.1431,,,,,,352,MAS,NOWORD,AGR,150,duepo,,el,,0.5041,,534.1431,534.1433,0.612037094,-0.205555598,0,0,0,,0,200,200,351,1,vuelo,,,,
,,,,,,6169abd4e006adba4739143e,676192165fb32c2e1fb7aee6,67d0b2661560e6b911c8b53a,2025-03-11_16h00.54.930,Tarea de decisión léxica,2024.2.5,Win32,59.88023952,,,,,,,,,,,,,,,,,,,,,,,534.1448,535.1757,a,1,0.3602,1,535.1758,535.6755,,,,,,349,MAS,WORD,AGR,150,color,,el,,0.3602,,535.6756,535.6756,0.612037094,-0.205555598,0,0,0,,0,201,201,348,1,cosir,,,,
,,,,,,6169abd4e006adba4739143e,676192165fb32c2e1fb7aee6,67d0b2661560e6b911c8b53a,2025-03-11_16h00.54.930,Tarea de decisión léxica,2024.2.5,Win32,59.88023952,,,,,,,,,,,,,,,,,,,,,,,535.6762,536.7419,a,1,0.3818,1,536.742,537.2418,,,,,,347,FEM,WORD,DIS,150,pieza,,el,,0.3818,,537.2419,537.242,0.612037094,-0.205555598,0,0,0,,0,202,202,346,1,mueza,,,,
,,,,,,6169abd4e006adba4739143e,676192165fb32c2e1fb7aee6,67d0b2661560e6b911c8b53a,2025-03-11_16h00.54.930,Tarea de decisión léxica,2024.2.5,Win32,59.88023952,,,,,,,,,,,,,,,,,,,,,,,537.2428,538.7579,l,1,0.8426,1,538.758,539.2581,,,,,,414,FEM,NOWORD,DIS,150,bieda,,el,,0.8426,,539.2598,539.2611,0.612037094,-0.205555598,0,0,0,,0,203,203,413,1,rueda,,,,
,,,,,,6169abd4e006adba4739143e,676192165fb32c2e1fb7aee6,67d0b2661560e6b911c8b53a,2025-03-11_16h00.54.930,Tarea de decisión léxica,2024.2.5,Win32,59.88023952,,,,,,,,,,,,,,,,,,,,,,,539.2625,540.4073,a,1,0.4729,1,540.4075,540.9077,,,,,,123,FEM,WORD,AGR,150,flor,,la,,0.4729,,540.9077,540.9078,0.612037094,-0.205555598,0,0,0,,0,204,204,122,1,maba,,,,
,,,,,,6169abd4e006adba4739143e,676192165fb32c2e1fb7aee6,67d0b2661560e6b911c8b53a,2025-03-11_16h00.54.930,Tarea de decisión léxica,2024.2.5,Win32,59.88023952,,,,,,,,,,,,,,,,,,,,,,,540.9093,541.9403,l,1,0.3508,1,541.9403,542.44,,,,,,94,FEM,NOWORD,DIS,150,rona,,el,,0.3508,,542.44,542.4401,0.612037094,-0.205555598,0,0,0,,0,205,205,93,1,bola,,,,
,,,,,,6169abd4e006adba4739143e,676192165fb32c2e1fb7aee6,67d0b2661560e6b911c8b53a,2025-03-11_16h00.54.930,Tarea de decisión léxica,2024.2.5,Win32,59.88023952,,,,,,,,,,,,,,,,,,,,,,,542.4409,543.5397,a,1,0.4251,1,543.5399,544.0399,,,,,,331,MAS,WORD,AGR,150,éxito,,el,,0.4251,,544.0399,544.0401,0.612037094,-0.205555598,0,0,0,,0,206,206,330,1,erato,,,,
,,,,,,6169abd4e006adba4739143e,676192165fb32c2e1fb7aee6,67d0b2661560e6b911c8b53a,2025-03-11_16h00.54.930,Tarea de decisión léxica,2024.2.5,Win32,59.88023952,,,,,,,,,,,,,,,,,,,,,,,544.0413,545.2557,a,1,0.5352,1,545.2559,545.7558,,,,,,43,FEM,WORD,DIS,150,pena,,el,,0.5352,,545.7559,545.7561,0.612037094,-0.205555598,0,0,0,,0,207,207,42,1,meda,,,,
,,,,,,6169abd4e006adba4739143e,676192165fb32c2e1fb7aee6,67d0b2661560e6b911c8b53a,2025-03-11_16h00.54.930,Tarea de decisión léxica,2024.2.5,Win32,59.88023952,,,,,,,,,,,,,,,,,,,,,,,545.7571,547.3048,l,1,0.8661,1,547.3049,547.8048,,,,,,464,FEM,NOWORD,AGR,150,matla,,la,,0.8661,,547.8053,547.8058,0.612037094,-0.205555598,0,0,0,,0,208,208,463,1,cabra,,,,
,,,,,,6169abd4e006adba4739143e,676192165fb32c2e1fb7aee6,67d0b2661560e6b911c8b53a,2025-03-11_16h00.54.930,Tarea de decisión léxica,2024.2.5,Win32,59.88023952,,,,,,,,,,,,,,,,,,,,,,,547.8062,548.9712,l,0,0.4907,0,548.9717,549.4712,,,,,,5,FEM,WORD,AGR,150,cosa,,la,,0.4907,,549.4713,549.4714,0.612037094,-0.205555598,0,0,0,,0,209,209,4,1,poga,,,,
,,,,,,6169abd4e006adba4739143e,676192165fb32c2e1fb7aee6,67d0b2661560e6b911c8b53a,2025-03-11_16h00.54.930,Tarea de decisión léxica,2024.2.5,Win32,59.88023952,,,,,,,,,,,,,,,,,,,,,,,549.4726,550.6875,a,1,0.5357,1,550.6903,551.1874,,,,,,95,FEM,WORD,DIS,151,moda,,el,,0.5357,,551.1875,551.1877,0.612037094,-0.205555598,0,0,0,,0,210,210,94,1,neda,,,,
,,,,,,6169abd4e006adba4739143e,676192165fb32c2e1fb7aee6,67d0b2661560e6b911c8b53a,2025-03-11_16h00.54.930,Tarea de decisión léxica,2024.2.5,Win32,59.88023952,,,,,,,,,,,,,,,,,,,,,,,551.1894,552.2868,a,1,0.4165,1,552.2869,552.7864,,,,,,401,MAS,WORD,DIS,150,polvo,,la,,0.4165,,552.7864,552.7864,0.612037094,-0.205555598,0,0,0,,0,211,211,400,1,pirvo,,,,
,,,,,,6169abd4e006adba4739143e,676192165fb32c2e1fb7aee6,67d0b2661560e6b911c8b53a,2025-03-11_16h00.54.930,Tarea de decisión léxica,2024.2.5,Win32,59.88023952,,,,,,,,,,,,,,,,,,,,,,,552.7869,553.8532,l,0,0.3872,0,553.8545,554.3532,,,,,,393,FEM,WORD,AGR,150,aldea,,la,,0.3872,,554.3533,554.3535,0.612037094,-0.205555598,0,0,0,,0,212,212,392,1,ashea,,,,
,,,,,,6169abd4e006adba4739143e,676192165fb32c2e1fb7aee6,67d0b2661560e6b911c8b53a,2025-03-11_16h00.54.930,Tarea de decisión léxica,2024.2.5,Win32,59.88023952,,,,,,,,,,,,,,,,,,,,,,,554.3549,555.5025,l,1,0.4728,1,555.5034,556.0024,,,,,,210,MAS,NOWORD,DIS,150,dero,,la,,0.4728,,556.0039,556.005,0.612037094,-0.205555598,0,0,0,,0,213,213,209,1,velo,,,,
,,,,,,6169abd4e006adba4739143e,676192165fb32c2e1fb7aee6,67d0b2661560e6b911c8b53a,2025-03-11_16h00.54.930,Tarea de decisión léxica,2024.2.5,Win32,59.88023952,,,,,,,,,,,,,,,,,,,,,,,556.006,557.502,l,1,0.8202,1,557.502,558.0019,,,,,,2,FEM,NOWORD,DIS,150,mada,,el,,0.8202,,558.002,558.0022,0.612037094,-0.205555598,0,0,0,,0,214,214,1,1,casa,,,,
,,,,,,6169abd4e006adba4739143e,676192165fb32c2e1fb7aee6,67d0b2661560e6b911c8b53a,2025-03-11_16h00.54.930,Tarea de decisión léxica,2024.2.5,Win32,59.88023952,,,,,,,,,,,,,,,,,,,,,,,558.0036,559.1347,l,1,0.4505,1,559.1348,559.6348,,,,,,30,MAS,NOWORD,DIS,150,pono,,la,,0.4505,,559.6349,559.6351,0.612037094,-0.205555598,0,0,0,,0,215,215,29,1,modo,,,,
,,,,,,6169abd4e006adba4739143e,676192165fb32c2e1fb7aee6,67d0b2661560e6b911c8b53a,2025-03-11_16h00.54.930,Tarea de decisión léxica,2024.2.5,Win32,59.88023952,,,,,,,,,,,,,,,,,,,,,,,559.6366,561.1844,l,1,0.8685,1,561.1845,561.6836,,,,,,70,FEM,NOWORD,DIS,150,ñola,,el,,0.8685,,561.6837,561.6838,0.612037094,-0.205555598,0,0,0,,0,216,216,69,1,zona,,,,
,,,,,,6169abd4e006adba4739143e,676192165fb32c2e1fb7aee6,67d0b2661560e6b911c8b53a,2025-03-11_16h00.54.930,Tarea de decisión léxica,2024.2.5,Win32,59.88023952,,,,,,,,,,,,,,,,,,,,,,,561.6844,562.8503,a,1,0.4937,1,562.8505,563.3494,,,,,,453,FEM,WORD,DIS,150,mafia,,el,,0.4937,,563.3494,563.3494,0.612037094,-0.205555598,0,0,0,,0,217,217,452,1,pafia,,,,
,,,,,,6169abd4e006adba4739143e,676192165fb32c2e1fb7aee6,67d0b2661560e6b911c8b53a,2025-03-11_16h00.54.930,Tarea de decisión léxica,2024.2.5,Win32,59.88023952,,,,,,,,,,,,,,,,,,,,,,,563.35,564.6328,l,1,0.617,1,564.633,565.1329,,,,,,436,MAS,NOWORD,AGR,150,ricno,,el,,0.617,,565.1349,565.1363,0.612037094,-0.205555598,0,0,0,,0,218,218,435,1,ritmo,,,,
,,,,,,6169abd4e006adba4739143e,676192165fb32c2e1fb7aee6,67d0b2661560e6b911c8b53a,2025-03-11_16h00.54.930,Tarea de decisión léxica,2024.2.5,Win32,59.88023952,,,,,,,,,,,,,,,,,,,,,,,565.1378,566.3654,a,1,0.5576,1,566.3656,566.8651,,,,,,215,FEM,WORD,DIS,150,raíz,,el,,0.5576,,566.8651,566.8651,0.612037094,-0.205555598,0,0,0,,0,219,219,214,1,raua,,,,
,,,,,,6169abd4e006adba4739143e,676192165fb32c2e1fb7aee6,67d0b2661560e6b911c8b53a,2025-03-11_16h00.54.930,Tarea de decisión léxica,2024.2.5,Win32,59.88023952,,,,,,,,,,,,,,,,,,,,,,,566.8657,568.1983,l,1,0.6514,1,568.1984,568.6982,,,,,,106,FEM,NOWORD,DIS,150,vina,,el,,0.6514,,568.6984,568.6985,0.612037094,-0.205555598,0,0,0,,0,220,220,105,1,sopa,,,,
,,,,,,6169abd4e006adba4739143e,676192165fb32c2e1fb7aee6,67d0b2661560e6b911c8b53a,2025-03-11_16h00.54.930,Tarea de decisión léxica,2024.2.5,Win32,59.88023952,,,,,,,,,,,,,,,,,,,,,,,568.7001,569.8308,l,1,0.4494,1,569.8309,570.3307,,,,,,224,FEM,NOWORD,AGR,150,cira,,la,,0.4494,,570.3308,570.3308,0.612037094,-0.205555598,0,0,0,,0,221,221,223,1,cera,,,,
,,,,,,6169abd4e006adba4739143e,676192165fb32c2e1fb7aee6,67d0b2661560e6b911c8b53a,2025-03-11_16h00.54.930,Tarea de decisión léxica,2024.2.5,Win32,59.88023952,,,,,,,,,,,,,,,,,,,,,,,570.3317,571.4307,a,1,0.4179,1,571.4308,571.9305,,,,,,41,FEM,WORD,AGR,150,nave,,la,,0.4179,,571.9305,571.9307,0.612037094,-0.205555598,0,0,0,,0,222,222,40,1,haje,,,,
,,,,,,6169abd4e006adba4739143e,676192165fb32c2e1fb7aee6,67d0b2661560e6b911c8b53a,2025-03-11_16h00.54.930,Tarea de decisión léxica,2024.2.5,Win32,59.88023952,,,,,,,,,,,,,,,,,,,,,,,571.9323,573.1304,a,1,0.5277,1,573.1305,573.63,,,,,,265,FEM,WORD,DIS,150,mitad,,el,,0.5277,,573.6323,573.6337,0.612037094,-0.205555598,0,0,0,,0,223,223,264,1,pitat,,,,
,,,,,,6169abd4e006adba4739143e,676192165fb32c2e1fb7aee6,67d0b2661560e6b911c8b53a,2025-03-11_16h00.54.930,Tarea de decisión léxica,2024.2.5,Win32,59.88023952,,,,,,,,,,,,,,,,,,,,,,,573.6352,574.8131,a,1,0.5066,1,574.8133,575.3123,,,,,,315,FEM,WORD,DIS,150,reina,,el,,0.5066,,575.3123,575.3124,0.612037094,-0.205555598,0,0,0,,0,224,224,314,1,riosa,,,,
,,,,,,6169abd4e006adba4739143e,676192165fb32c2e1fb7aee6,67d0b2661560e6b911c8b53a,2025-03-11_16h00.54.930,Tarea de decisión léxica,2024.2.5,Win32,59.88023952,,,,,,,,,,,,,,,,,,,,,,,575.3129,576.4457,a,1,0.45,1,576.4458,576.945,,,,,,91,FEM,WORD,DIS,150,taza,,el,,0.45,,576.9451,576.9452,0.612037094,-0.205555598,0,0,0,,0,225,225,90,1,sava,,,,
,,,,,,6169abd4e006adba4739143e,676192165fb32c2e1fb7aee6,67d0b2661560e6b911c8b53a,2025-03-11_16h00.54.930,Tarea de decisión léxica,2024.2.5,Win32,59.88023952,,,,,,,,,,,,,,,,,,,,,,,576.9459,578.1281,l,1,0.5003,1,578.1282,578.6278,,,,,,472,FEM,NOWORD,AGR,150,prana,,la,,0.5003,,578.6279,578.628,0.612037094,-0.205555598,0,0,0,,0,226,226,471,1,grasa,,,,
,,,,,,6169abd4e006adba4739143e,676192165fb32c2e1fb7aee6,67d0b2661560e6b911c8b53a,2025-03-11_16h00.54.930,Tarea de decisión léxica,2024.2.5,Win32,59.88023952,,,,,,,,,,,,,,,,,,,,,,,578.6286,579.9772,a,1,0.6667,1,579.9773,580.477,,,,,,167,FEM,WORD,AGR,150,jefa,,la,,0.6667,,580.4776,580.478,0.612037094,-0.205555598,0,0,0,,0,227,227,166,1,zifa,,,,
,,,,,,6169abd4e006adba4739143e,676192165fb32c2e1fb7aee6,67d0b2661560e6b911c8b53a,2025-03-11_16h00.54.930,Tarea de decisión léxica,2024.2.5,Win32,59.88023952,,,,,,,,,,,,,,,,,,,,,,,580.4785,581.6433,a,1,0.4818,1,581.6434,582.1436,,,,,,77,MAS,WORD,AGR,150,loco,,el,,0.4818,,582.1436,582.1438,0.612037094,-0.205555598,0,0,0,,0,228,228,76,1,fodo,,,,
,,,,,,6169abd4e006adba4739143e,676192165fb32c2e1fb7aee6,67d0b2661560e6b911c8b53a,2025-03-11_16h00.54.930,Tarea de decisión léxica,2024.2.5,Win32,59.88023952,,,,,,,,,,,,,,,,,,,,,,,582.1443,583.4601,a,0,0.6347,0,583.4613,583.9593,,,,,,130,MAS,NOWORD,DIS,150,pima,,la,,0.6347,,583.9593,583.9595,0.612037094,-0.205555598,0,0,0,,0,229,229,129,1,oído,,,,
,,,,,,6169abd4e006adba4739143e,676192165fb32c2e1fb7aee6,67d0b2661560e6b911c8b53a,2025-03-11_16h00.54.930,Tarea de decisión léxica,2024.2.5,Win32,59.88023952,,,,,,,,,,,,,,,,,,,,,,,583.9603,585.2424,a,1,0.6045,1,585.2431,585.7423,,,,,,365,FEM,WORD,DIS,150,ducha,,el,,0.6045,,585.7425,585.7426,0.612037094,-0.205555598,0,0,0,,0,230,230,364,1,gulla,,,,
,,,,,,6169abd4e006adba4739143e,676192165fb32c2e1fb7aee6,67d0b2661560e6b911c8b53a,2025-03-11_16h00.54.930,Tarea de decisión léxica,2024.2.5,Win32,59.88023952,,,,,,,,,,,,,,,,,,,,,,,585.7439,586.7919,l,1,0.3742,1,586.792,587.2921,,,,,,468,MAS,NOWORD,AGR,150,peiso,,el,,0.3742,,587.2922,587.2924,0.612037094,-0.205555598,0,0,0,,0,231,231,467,1,piano,,,,
,,,,,,6169abd4e006adba4739143e,676192165fb32c2e1fb7aee6,67d0b2661560e6b911c8b53a,2025-03-11_16h00.54.930,Tarea de decisión léxica,2024.2.5,Win32,59.88023952,,,,,,,,,,,,,,,,,,,,,,,587.2942,588.4086,l,1,0.4341,1,588.4088,588.9079,,,,,,358,FEM,NOWORD,DIS,150,gruba,,el,,0.4341,,588.9093,588.9102,0.612037094,-0.205555598,0,0,0,,0,232,232,357,1,bruja,,,,
,,,,,,6169abd4e006adba4739143e,676192165fb32c2e1fb7aee6,67d0b2661560e6b911c8b53a,2025-03-11_16h00.54.930,Tarea de decisión léxica,2024.2.5,Win32,59.88023952,,,,,,,,,,,,,,,,,,,,,,,588.9112,589.9746,a,1,0.3872,1,589.9747,590.4739,,,,,,133,FEM,WORD,AGR,150,vaca,,la,,0.3872,,590.474,590.4741,0.612037094,-0.205555598,0,0,0,,0,233,233,132,1,vesa,,,,
,,,,,,6169abd4e006adba4739143e,676192165fb32c2e1fb7aee6,67d0b2661560e6b911c8b53a,2025-03-11_16h00.54.930,Tarea de decisión léxica,2024.2.5,Win32,59.88023952,,,,,,,,,,,,,,,,,,,,,,,590.4747,591.5406,a,1,0.3925,1,591.5408,592.0399,,,,,,437,FEM,WORD,AGR,150,plaza,,la,,0.3925,,592.04,592.0401,0.612037094,-0.205555598,0,0,0,,0,234,234,436,1,glava,,,,
,,,,,,6169abd4e006adba4739143e,676192165fb32c2e1fb7aee6,67d0b2661560e6b911c8b53a,2025-03-11_16h00.54.930,Tarea de decisión léxica,2024.2.5,Win32,59.88023952,,,,,,,,,,,,,,,,,,,,,,,592.0407,593.2729,a,1,0.5549,1,593.273,593.7725,,,,,,53,FEM,WORD,DIS,150,boda,,el,,0.5549,,593.7725,593.7726,0.612037094,-0.205555598,0,0,0,,0,235,235,52,1,rora,,,,
,,,,,,6169abd4e006adba4739143e,676192165fb32c2e1fb7aee6,67d0b2661560e6b911c8b53a,2025-03-11_16h00.54.930,Tarea de decisión léxica,2024.2.5,Win32,59.88023952,,,,,,,,,,,,,,,,,,,,,,,593.7731,595.2722,l,1,0.8139,1,595.2723,595.7718,,,,,,470,MAS,NOWORD,DIS,150,matia,,la,,0.8139,,595.7719,595.7719,0.612037094,-0.205555598,0,0,0,,0,236,236,469,1,patio,,,,
,,,,,,6169abd4e006adba4739143e,676192165fb32c2e1fb7aee6,67d0b2661560e6b911c8b53a,2025-03-11_16h00.54.930,Tarea de decisión léxica,2024.2.5,Win32,59.88023952,,,,,,,,,,,,,,,,,,,,,,,595.7726,596.8891,a,1,0.4455,1,596.8893,597.3879,,,,,,325,FEM,WORD,AGR,150,magia,,la,,0.4455,,597.3886,597.3892,0.612037094,-0.205555598,0,0,0,,0,237,237,324,1,mabia,,,,
,,,,,,6169abd4e006adba4739143e,676192165fb32c2e1fb7aee6,67d0b2661560e6b911c8b53a,2025-03-11_16h00.54.930,Tarea de decisión léxica,2024.2.5,Win32,59.88023952,,,,,,,,,,,,,,,,,,,,,,,597.3898,598.4549,a,1,0.3891,1,598.4551,598.9545,,,,,,129,MAS,WORD,DIS,150,oído,,la,,0.3891,,598.9547,598.955,0.612037094,-0.205555598,0,0,0,,0,238,238,128,1,pima,,,,
,,,,,,6169abd4e006adba4739143e,676192165fb32c2e1fb7aee6,67d0b2661560e6b911c8b53a,2025-03-11_16h00.54.930,Tarea de decisión léxica,2024.2.5,Win32,59.88023952,,,,,,,,,,,,,,,,,,,,,,,598.9564,600.1543,l,1,0.5195,1,600.1545,600.6538,,,,,,448,MAS,NOWORD,AGR,150,buaso,,el,,0.5195,,600.6538,600.6538,0.612037094,-0.205555598,0,0,0,,0,239,239,447,1,bolso,,,,
,,,,,,6169abd4e006adba4739143e,676192165fb32c2e1fb7aee6,67d0b2661560e6b911c8b53a,2025-03-11_16h00.54.930,Tarea de decisión léxica,2024.2.5,Win32,59.88023952,,,,,,,,,,,,,,,,,,,,,,,600.6547,601.6873,a,1,0.3573,1,601.6874,602.1868,,,,,,253,MAS,WORD,DIS,150,chico,,la,,0.3573,,602.1869,602.1871,0.612037094,-0.205555598,0,0,0,,0,240,240,252,1,trido,,,,
,,,,,,6169abd4e006adba4739143e,676192165fb32c2e1fb7aee6,67d0b2661560e6b911c8b53a,2025-03-11_16h00.54.930,Tarea de decisión léxica,2024.2.5,Win32,59.88023952,,,,,,,,,,,,,,,,,,,,,,,602.1885,603.4195,l,1,0.5522,1,603.4196,603.9197,,,,,,296,MAS,NOWORD,AGR,150,goler,,el,,0.5522,,603.9198,603.9199,0.612037094,-0.205555598,0,0,0,,0,241,241,295,1,dolor,,,,
,,,,,,6169abd4e006adba4739143e,676192165fb32c2e1fb7aee6,67d0b2661560e6b911c8b53a,2025-03-11_16h00.54.930,Tarea de decisión léxica,2024.2.5,Win32,59.88023952,,,,,,,,,,,,,,,,,,,,,,,603.9219,604.9526,l,1,0.3509,1,604.9528,605.4526,,,,,,168,FEM,NOWORD,AGR,150,zifa,,la,,0.3509,,605.4546,605.4569,0.612037094,-0.205555598,0,0,0,,0,242,242,167,1,jefa,,,,
,,,,,,6169abd4e006adba4739143e,676192165fb32c2e1fb7aee6,67d0b2661560e6b911c8b53a,2025-03-11_16h00.54.930,Tarea de decisión léxica,2024.2.5,Win32,59.88023952,,,,,,,,,,,,,,,,,,,,,,,605.4592,606.5352,a,0,0.4038,0,606.536,607.0348,,,,,,324,FEM,NOWORD,AGR,150,certa,,la,,0.4038,,607.0348,607.0349,0.612037094,-0.205555598,0,0,0,,0,243,243,323,1,cinta,,,,
,,,,,,6169abd4e006adba4739143e,676192165fb32c2e1fb7aee6,67d0b2661560e6b911c8b53a,2025-03-11_16h00.54.930,Tarea de decisión léxica,2024.2.5,Win32,59.88023952,,,,,,,,,,,,,,,,,,,,,,,607.0356,608.4178,l,1,0.7023,1,608.4184,608.918,,,,,,78,MAS,NOWORD,DIS,150,fodo,,la,,0.7023,,608.918,608.9182,0.612037094,-0.205555598,0,0,0,,0,244,244,77,1,loco,,,,
,,,,,,6169abd4e006adba4739143e,676192165fb32c2e1fb7aee6,67d0b2661560e6b911c8b53a,2025-03-11_16h00.54.930,Tarea de decisión léxica,2024.2.5,Win32,59.88023952,,,,,,,,,,,,,,,,,,,,,,,608.9197,609.9676,l,1,0.3717,1,609.9678,610.4669,,,,,,110,MAS,NOWORD,DIS,150,suno,,la,,0.3717,,610.4669,610.467,0.612037094,-0.205555598,0,0,0,,0,245,245,109,1,rayo,,,,
,,,,,,6169abd4e006adba4739143e,676192165fb32c2e1fb7aee6,67d0b2661560e6b911c8b53a,2025-03-11_16h00.54.930,Tarea de decisión léxica,2024.2.5,Win32,59.88023952,,,,,,,,,,,,,,,,,,,,,,,610.4675,611.6333,a,1,0.4837,1,611.6334,612.1337,,,,,,435,MAS,WORD,DIS,150,ritmo,,la,,0.4837,,612.1339,612.1344,0.612037094,-0.205555598,0,0,0,,0,246,246,434,1,ricno,,,,
,,,,,,6169abd4e006adba4739143e,676192165fb32c2e1fb7aee6,67d0b2661560e6b911c8b53a,2025-03-11_16h00.54.930,Tarea de decisión léxica,2024.2.5,Win32,59.88023952,,,,,,,,,,,,,,,,,,,,,,,612.1368,613.283,a,1,0.4666,1,613.2831,613.7831,,,,,,299,FEM,WORD,AGR,150,bolsa,,la,,0.4666,,613.7847,613.7858,0.612037094,-0.205555598,0,0,0,,0,247,247,298,1,bosga,,,,
,,,,,,6169abd4e006adba4739143e,676192165fb32c2e1fb7aee6,67d0b2661560e6b911c8b53a,2025-03-11_16h00.54.930,Tarea de decisión léxica,2024.2.5,Win32,59.88023952,,,,,,,,,,,,,,,,,,,,,,,613.787,615.0655,l,1,0.6057,1,615.0655,615.5656,,,,,,258,FEM,NOWORD,DIS,150,asama,,el,,0.6057,,615.5657,615.5658,0.612037094,-0.205555598,0,0,0,,0,248,248,257,1,amiga,,,,
,,,,,,6169abd4e006adba4739143e,676192165fb32c2e1fb7aee6,67d0b2661560e6b911c8b53a,2025-03-11_16h00.54.930,Tarea de decisión léxica,2024.2.5,Win32,59.88023952,,,,,,,,,,,,,,,,,,,,,,,615.5671,616.6316,a,1,0.3843,1,616.6317,617.1317,,,,,,291,FEM,WORD,DIS,150,pista,,el,,0.3843,,617.1317,617.1319,0.612037094,-0.205555598,0,0,0,,0,249,249,290,1,mesta,,,,
,,,,,,6169abd4e006adba4739143e,676192165fb32c2e1fb7aee6,67d0b2661560e6b911c8b53a,2025-03-11_16h00.54.930,Tarea de decisión léxica,2024.2.5,Win32,59.88023952,,,,,,,,,,,,,,,,,,,,,,,617.1332,618.2815,l,0,0.4674,0,618.2826,618.7814,,,,,,159,MAS,WORD,DIS,150,giro,,la,,0.4674,,618.7815,618.7817,0.612037094,-0.205555598,0,0,0,,0,250,250,158,1,bilo,,,,
,,,,,,6169abd4e006adba4739143e,676192165fb32c2e1fb7aee6,67d0b2661560e6b911c8b53a,2025-03-11_16h00.54.930,Tarea de decisión léxica,2024.2.5,Win32,59.88023952,,,,,,,,,,,,,,,,,,,,,,,618.7833,620.0643,l,1,0.6049,1,620.066,620.5643,,,,,,478,MAS,NOWORD,DIS,150,hocon,,la,,0.6049,,620.5686,620.5705,0.612037094,-0.205555598,0,0,0,,0,251,251,477,1,botón,,,,
,,,,,,6169abd4e006adba4739143e,676192165fb32c2e1fb7aee6,67d0b2661560e6b911c8b53a,2025-03-11_16h00.54.930,Tarea de decisión léxica,2024.2.5,Win32,59.88023952,,,,,,,,,,,,,,,,,,,,,,,620.5725,621.9964,a,0,0.7522,0,621.9969,622.4965,,,,,,182,FEM,NOWORD,DIS,150,teda,,el,,0.7522,,622.4966,622.4968,0.612037094,-0.205555598,0,0,0,,0,252,252,181,1,seda,,,,
,,,,,,6169abd4e006adba4739143e,676192165fb32c2e1fb7aee6,67d0b2661560e6b911c8b53a,2025-03-11_16h00.54.930,Tarea de decisión léxica,2024.2.5,Win32,59.88023952,,,,,,,,,,,,,,,,,,,,,,,622.4981,623.9626,a,1,0.7936,1,623.9636,624.4626,,,,,,223,FEM,WORD,AGR,150,cera,,la,,0.7936,,624.4627,624.463,0.612037094,-0.205555598,0,0,0,,0,253,253,222,1,cira,,,,
,,,,,,6169abd4e006adba4739143e,676192165fb32c2e1fb7aee6,67d0b2661560e6b911c8b53a,2025-03-11_16h00.54.930,Tarea de decisión léxica,2024.2.5,Win32,59.88023952,,,,,,,,,,,,,,,,,,,,,,,624.464,625.612,a,1,0.474,1,625.6121,626.1116,,,,,,245,FEM,WORD,AGR,150,madre,,la,,0.474,,626.1116,626.1116,0.612037094,-0.205555598,0,0,0,,0,254,254,244,1,pafle,,,,
,,,,,,6169abd4e006adba4739143e,676192165fb32c2e1fb7aee6,67d0b2661560e6b911c8b53a,2025-03-11_16h00.54.930,Tarea de decisión léxica,2024.2.5,Win32,59.88023952,,,,,,,,,,,,,,,,,,,,,,,626.1121,627.2285,a,1,0.4504,1,627.2287,627.7285,,,,,,109,MAS,WORD,AGR,150,rayo,,el,,0.4504,,627.7286,627.7288,0.612037094,-0.205555598,0,0,0,,0,255,255,108,1,suno,,,,
,,,,,,6169abd4e006adba4739143e,676192165fb32c2e1fb7aee6,67d0b2661560e6b911c8b53a,2025-03-11_16h00.54.930,Tarea de decisión léxica,2024.2.5,Win32,59.88023952,,,,,,,,,,,,,,,,,,,,,,,627.7305,628.861,a,1,0.4509,1,628.861,629.3606,,,,,,343,FEM,WORD,DIS,150,plata,,el,,0.4509,,629.3616,629.3625,0.612037094,-0.205555598,0,0,0,,0,256,256,342,1,trada,,,,
,,,,,,6169abd4e006adba4739143e,676192165fb32c2e1fb7aee6,67d0b2661560e6b911c8b53a,2025-03-11_16h00.54.930,Tarea de decisión léxica,2024.2.5,Win32,59.88023952,,,,,,,,,,,,,,,,,,,,,,,629.3631,630.644,a,1,0.6,1,630.6442,631.144,,,,,,55,MAS,WORD,DIS,150,gato,,la,,0.6,,631.1441,631.1443,0.612037094,-0.205555598,0,0,0,,0,257,257,54,1,jado,,,,
,,,,,,6169abd4e006adba4739143e,676192165fb32c2e1fb7aee6,67d0b2661560e6b911c8b53a,2025-03-11_16h00.54.930,Tarea de decisión léxica,2024.2.5,Win32,59.88023952,,,,,,,,,,,,,,,,,,,,,,,631.146,632.2766,a,1,0.4504,1,632.2767,632.7765,,,,,,305,MAS,WORD,AGR,150,avión,,el,,0.4504,,632.7766,632.7766,0.612037094,-0.205555598,0,0,0,,0,258,258,304,1,adiol,,,,
,,,,,,6169abd4e006adba4739143e,676192165fb32c2e1fb7aee6,67d0b2661560e6b911c8b53a,2025-03-11_16h00.54.930,Tarea de decisión léxica,2024.2.5,Win32,59.88023952,,,,,,,,,,,,,,,,,,,,,,,632.7781,634.0426,l,1,0.5944,1,634.0427,634.5425,,,,,,188,MAS,NOWORD,AGR,150,suto,,el,,0.5944,,634.5425,634.5427,0.612037094,-0.205555598,0,0,0,,0,259,259,187,1,mito,,,,
,,,,,,6169abd4e006adba4739143e,676192165fb32c2e1fb7aee6,67d0b2661560e6b911c8b53a,2025-03-11_16h00.54.930,Tarea de decisión léxica,2024.2.5,Win32,59.88023952,,,,,,,,,,,,,,,,,,,,,,,634.5439,635.6753,a,1,0.4494,1,635.6755,636.1751,,,,,,163,FEM,WORD,AGR,150,fama,,la,,0.4494,,636.1752,636.1754,0.612037094,-0.205555598,0,0,0,,0,260,260,162,1,laga,,,,
,,,,,,6169abd4e006adba4739143e,676192165fb32c2e1fb7aee6,67d0b2661560e6b911c8b53a,2025-03-11_16h00.54.930,Tarea de decisión léxica,2024.2.5,Win32,59.88023952,,,,,,,,,,,,,,,,,,,,,,,636.1762,637.2581,a,1,0.3997,1,637.2582,637.7584,,,,,,89,MAS,WORD,DIS,150,humo,,la,,0.3997,,637.7601,637.7614,0.612037094,-0.205555598,0,0,0,,0,261,261,88,1,guso,,,,
,,,,,,6169abd4e006adba4739143e,676192165fb32c2e1fb7aee6,67d0b2661560e6b911c8b53a,2025-03-11_16h00.54.930,Tarea de decisión léxica,2024.2.5,Win32,59.88023952,,,,,,,,,,,,,,,,,,,,,,,637.7628,639.1079,l,1,0.6688,1,639.1081,639.6077,,,,,,330,MAS,NOWORD,DIS,150,nueno,,la,,0.6688,,639.6077,639.6079,0.612037094,-0.205555598,0,0,0,,0,262,262,329,1,hueso,,,,
,,,,,,6169abd4e006adba4739143e,676192165fb32c2e1fb7aee6,67d0b2661560e6b911c8b53a,2025-03-11_16h00.54.930,Tarea de decisión léxica,2024.2.5,Win32,59.88023952,,,,,,,,,,,,,,,,,,,,,,,639.6096,640.7401,l,1,0.45,1,640.7402,641.2404,,,,,,392,MAS,NOWORD,AGR,150,dievo,,el,,0.45,,641.2404,641.2406,0.612037094,-0.205555598,0,0,0,,0,263,263,391,1,dueño,,,,
