counterbalancing_condition,consent_prescreening.block_1/declare_consent,consent_prescreening.block_1/age_years,consent_prescreening.block_1/gender,consent_prescreening.block_1/language_disorder,consent_prescreening.block_1/first_language,PROLIFIC_PID,STUDY_ID,SESSION_ID,date,expName,psychopyVersion,OS,frameRate,check_prescreening_answers.started,check_prescreening_answers.stopped,Instructions.started,Instructions.stopped,instr_done_keyboard.keys,instr_done_keyboard.rt,instr_done_keyboard.duration,instr_done_touch.x,instr_done_touch.y,instr_done_touch.leftButton,instr_done_touch.midButton,instr_done_touch.rightButton,instruction_pages.thisRepN,instruction_pages.thisTrialN,instruction_pages.thisN,instruction_pages.thisIndex,instruction_pages.ran,pageN,phase,instruct_text,has_image,instruct_image,presentTrial.started,presentTrial.stopped,response.keys,response.corr,rt,corr,feedback.started,feedback.stopped,practice_trials.thisRepN,practice_trials.thisTrialN,practice_trials.thisN,practice_trials.thisIndex,practice_trials.ran,TrialID,Gender,StimulusType,Condition,PrimeDuration,Prime,len,Flanker,corrAns,response.rt,response.duration,Break.started,Break.stopped,break_done_touch.x,break_done_touch.y,break_done_touch.leftButton,break_done_touch.midButton,break_done_touch.rightButton,break_done_keyboard.keys,experiment_trials.thisRepN,experiment_trials.thisTrialN,experiment_trials.thisN,experiment_trials.thisIndex,experiment_trials.ran,PairedWith,break_done_keyboard.rt,break_done_keyboard.duration,End.started,End.stopped
2,"[""read_info"",""comfortable"",""consent_given"",""over_18""]",24,F,"[""none""]","[""spanish""]",616f423e8893bea6dd1e7f52,676192165fb32c2e1fb7aee6,67d0cef0b4d4c1d595b2cb0e,2025-03-11_18h02.30.096,Tarea de decisión léxica,2024.2.5,Win32,59.88023952,,,,,,,,,,,,,,,,,,,,,,,,,,,,,,,,,,,,,,,,,,,,,,,,,,,,,,,,,,,,,,,,
,,,,,,616f423e8893bea6dd1e7f52,676192165fb32c2e1fb7aee6,67d0cef0b4d4c1d595b2cb0e,2025-03-11_18h02.30.096,Tarea de decisión léxica,2024.2.5,Win32,59.88023952,47.6531,47.6534,,,,,,,,,,,,,,,,,,,,,,,,,,,,,,,,,,,,,,,,,,,,,,,,,,,,,,,,,,,,,,
,,,,,,616f423e8893bea6dd1e7f52,676192165fb32c2e1fb7aee6,67d0cef0b4d4c1d595b2cb0e,2025-03-11_18h02.30.096,Tarea de decisión léxica,2024.2.5,Win32,59.88023952,,,47.6829,72.5604,space,24.8434,,0.044444444,-0.218518519,0,0,0,0,0,0,0,1,1,instructions,"INSTRUCCIONES
Va a realizar una prueba de decisión léxica. Desde el comienzo de la prueba mire siempre al centro de la pantalla. Se presentará una serie de cadenas de letras, una a la vez, en la pantalla. Su tarea consiste en determinar si cada cadena de letras constituye una palabra real en español o una no-palabra (una secuencia de letras que no constituye una palabra real). 

Pulse la tecla ESPACIO para continuar.",0,keyboardresponseWN.png,,,,,,,,,,,,,,,,,,,,,,,,,,,,,,,,,,,,,,,,,,
,,,,,,616f423e8893bea6dd1e7f52,676192165fb32c2e1fb7aee6,67d0cef0b4d4c1d595b2cb0e,2025-03-11_18h02.30.096,Tarea de decisión léxica,2024.2.5,Win32,59.88023952,,,72.5708,83.3359,space,10.7393,,0.044444444,-0.218518519,0,0,0,0,1,1,1,1,2,instructions,"El procedimiento es el siguiente: Aparecerán dos barras verticales posicionadas en el centro de la pantalla, separadas por un pequeño espacio.Por favor, enfoque su atención en el espacio entre las barras. Esto preparará sus ojos para la siguiente cadena de letras, que aparecerá entre las dos barras durante un instante.

Pulse la tecla ESPACIO para continuar.",0,keyboardresponseNW.png,,,,,,,,,,,,,,,,,,,,,,,,,,,,,,,,,,,,,,,,,,
,,,,,,616f423e8893bea6dd1e7f52,676192165fb32c2e1fb7aee6,67d0cef0b4d4c1d595b2cb0e,2025-03-11_18h02.30.096,Tarea de decisión léxica,2024.2.5,Win32,59.88023952,,,83.3408,99.2855,space,15.868,,0.044444444,-0.218518519,0,0,0,0,2,2,2,1,3,instructions,"En el teclado de su dispositivo, pulse la tecla ""A"" si la cadena de letras es una palabra real en español (por ejemplo: ""mano"") y la tecla ""L"" si la cadena de letras es una no-palabra (por ejemplo: ""minu"").
Pulse la tecla ESPACIO para continuar.",1,keyboardresponseWN.png,,,,,,,,,,,,,,,,,,,,,,,,,,,,,,,,,,,,,,,,,,
,,,,,,616f423e8893bea6dd1e7f52,676192165fb32c2e1fb7aee6,67d0cef0b4d4c1d595b2cb0e,2025-03-11_18h02.30.096,Tarea de decisión léxica,2024.2.5,Win32,59.88023952,,,99.294,111.6975,space,12.3748,,0.044444444,-0.218518519,0,0,0,0,3,3,3,1,4,instructions,"Es muy importante que responda con la mayor rapidez y precisión posibles. Si no responde dentro de 2 segundos, aparecerá el mensaje ""Muy lento"" y el experimento pasará a la siguiente palabra. Inmediatamente después de su respuesta se indicará si fue correcta o no. Los primeros 15 intentos serán de práctica y habrá dos descansos durante la prueba.

Pulse la tecla ESPACIO  para iniciar la parte de práctica.",0,keyboardresponseWN.png,,,,,,,,,,,,,,,,,,,,,,,,,,,,,,,,,,,,,,,,,,
,,,,,,616f423e8893bea6dd1e7f52,676192165fb32c2e1fb7aee6,67d0cef0b4d4c1d595b2cb0e,2025-03-11_18h02.30.096,Tarea de decisión léxica,2024.2.5,Win32,59.88023952,,,,,,,,,,,,,,,,,,,,,,,111.7415,114.3833,,0,,-1,114.3841,114.8841,0,0,0,5,1,1006,FEM,WORD,AGR,150,cara,4,la,l,,,,,,,,,,,,,,,,,,,,
,,,,,,616f423e8893bea6dd1e7f52,676192165fb32c2e1fb7aee6,67d0cef0b4d4c1d595b2cb0e,2025-03-11_18h02.30.096,Tarea de decisión léxica,2024.2.5,Win32,59.88023952,,,,,,,,,,,,,,,,,,,,,,,114.8889,116.3208,l,0,0.7606,0,116.3649,116.8187,0,1,1,7,1,1008,MAS,WORD,DIS,150,frío,4,la,l,0.7606,,,,,,,,,,,,,,,,,,,
,,,,,,616f423e8893bea6dd1e7f52,676192165fb32c2e1fb7aee6,67d0cef0b4d4c1d595b2cb0e,2025-03-11_18h02.30.096,Tarea de decisión léxica,2024.2.5,Win32,59.88023952,,,,,,,,,,,,,,,,,,,,,,,116.8245,118.2198,a,1,0.7264,1,118.2235,118.7206,0,2,2,9,1,1010,MAS,WORD,DIS,150,video,5,la,l,0.7264,,,,,,,,,,,,,,,,,,,
,,,,,,616f423e8893bea6dd1e7f52,676192165fb32c2e1fb7aee6,67d0cef0b4d4c1d595b2cb0e,2025-03-11_18h02.30.096,Tarea de decisión léxica,2024.2.5,Win32,59.88023952,,,,,,,,,,,,,,,,,,,,,,,118.7242,120.0886,a,1,0.6875,1,120.089,120.5892,0,3,3,8,1,1009,FEM,WORD,AGR,150,viejo,5,la,l,0.6875,,,,,,,,,,,,,,,,,,,
,,,,,,616f423e8893bea6dd1e7f52,676192165fb32c2e1fb7aee6,67d0cef0b4d4c1d595b2cb0e,2025-03-11_18h02.30.096,Tarea de decisión léxica,2024.2.5,Win32,59.88023952,,,,,,,,,,,,,,,,,,,,,,,120.5932,121.8573,l,1,0.5873,1,121.8578,122.3575,0,4,4,0,1,1001,FEM,NOWORD,AGR,150,croz,4,la,a,0.5873,,,,,,,,,,,,,,,,,,,
,,,,,,616f423e8893bea6dd1e7f52,676192165fb32c2e1fb7aee6,67d0cef0b4d4c1d595b2cb0e,2025-03-11_18h02.30.096,Tarea de decisión léxica,2024.2.5,Win32,59.88023952,,,,,,,,,,,,,,,,,,,,,,,122.3619,123.4919,a,1,0.4588,1,123.4924,123.9924,0,5,5,6,1,1007,MAS,WORD,DIS,150,masa,4,la,l,0.4588,,,,,,,,,,,,,,,,,,,
,,,,,,616f423e8893bea6dd1e7f52,676192165fb32c2e1fb7aee6,67d0cef0b4d4c1d595b2cb0e,2025-03-11_18h02.30.096,Tarea de decisión léxica,2024.2.5,Win32,59.88023952,,,,,,,,,,,,,,,,,,,,,,,123.9966,125.3105,l,1,0.6403,1,125.3109,125.8107,0,6,6,1,1,1002,FEM,NOWORD,DIS,150,mabo,4,el,a,0.6403,,,,,,,,,,,,,,,,,,,
,,,,,,616f423e8893bea6dd1e7f52,676192165fb32c2e1fb7aee6,67d0cef0b4d4c1d595b2cb0e,2025-03-11_18h02.30.096,Tarea de decisión léxica,2024.2.5,Win32,59.88023952,,,,,,,,,,,,,,,,,,,,,,,125.8146,126.9955,l,1,0.502,1,126.9958,127.4961,0,7,7,2,1,1003,FEM,NOWORD,DIS,150,muvor,5,el,a,0.502,,,,,,,,,,,,,,,,,,,
,,,,,,616f423e8893bea6dd1e7f52,676192165fb32c2e1fb7aee6,67d0cef0b4d4c1d595b2cb0e,2025-03-11_18h02.30.096,Tarea de decisión léxica,2024.2.5,Win32,59.88023952,,,,,,,,,,,,,,,,,,,,,,,127.4998,128.7473,l,1,0.5686,1,128.7478,129.2478,0,8,8,4,1,1005,MAS,NOWORD,DIS,150,nobad,5,la,a,0.5686,,,,,,,,,,,,,,,,,,,
,,,,,,616f423e8893bea6dd1e7f52,676192165fb32c2e1fb7aee6,67d0cef0b4d4c1d595b2cb0e,2025-03-11_18h02.30.096,Tarea de decisión léxica,2024.2.5,Win32,59.88023952,,,,,,,,,,,,,,,,,,,,,,,129.251,130.3822,l,1,0.451,1,130.3825,130.883,0,9,9,3,1,1004,FEM,NOWORD,AGR,150,bireo,5,la,a,0.451,,,,,,,,,,,,,,,,,,,
,,,,,,616f423e8893bea6dd1e7f52,676192165fb32c2e1fb7aee6,67d0cef0b4d4c1d595b2cb0e,2025-03-11_18h02.30.096,Tarea de decisión léxica,2024.2.5,Win32,59.88023952,,,145.5211,156.759,space,11.2114,,0.044444444,-0.218518519,0,0,0,,,,,,,,,,,156.8107,157.9765,l,1,0.4847,1,157.9767,158.4769,,,,,,444,MAS,NOWORD,AGR,150,taron,,el,,0.4847,,158.4775,158.4904,0.044444444,-0.218518519,0,0,0,,0,0,0,443,1,salón,,,,
,,,,,,616f423e8893bea6dd1e7f52,676192165fb32c2e1fb7aee6,67d0cef0b4d4c1d595b2cb0e,2025-03-11_18h02.30.096,Tarea de decisión léxica,2024.2.5,Win32,59.88023952,,,,,,,,,,,,,,,,,,,,,,,158.492,159.5611,a,1,0.405,1,159.5613,160.0616,,,,,,413,FEM,WORD,DIS,150,rueda,,el,,0.405,,160.0617,160.0619,0.044444444,-0.218518519,0,0,0,,0,1,1,412,1,bieda,,,,
,,,,,,616f423e8893bea6dd1e7f52,676192165fb32c2e1fb7aee6,67d0cef0b4d4c1d595b2cb0e,2025-03-11_18h02.30.096,Tarea de decisión léxica,2024.2.5,Win32,59.88023952,,,,,,,,,,,,,,,,,,,,,,,160.0637,161.1127,l,1,0.3718,1,161.1128,161.6132,,,,,,388,FEM,NOWORD,AGR,150,bresa,,la,,0.3718,,161.6163,161.6189,0.044444444,-0.218518519,0,0,0,,0,2,2,387,1,crema,,,,
,,,,,,616f423e8893bea6dd1e7f52,676192165fb32c2e1fb7aee6,67d0cef0b4d4c1d595b2cb0e,2025-03-11_18h02.30.096,Tarea de decisión léxica,2024.2.5,Win32,59.88023952,,,,,,,,,,,,,,,,,,,,,,,161.6203,162.6976,a,1,0.4052,1,162.6979,163.1982,,,,,,405,FEM,WORD,DIS,150,barra,,el,,0.4052,,163.1982,163.1986,0.044444444,-0.218518519,0,0,0,,0,3,3,404,1,rarra,,,,
,,,,,,616f423e8893bea6dd1e7f52,676192165fb32c2e1fb7aee6,67d0cef0b4d4c1d595b2cb0e,2025-03-11_18h02.30.096,Tarea de decisión léxica,2024.2.5,Win32,59.88023952,,,,,,,,,,,,,,,,,,,,,,,163.2007,164.2659,a,1,0.3875,1,164.2661,164.7662,,,,,,29,MAS,WORD,DIS,150,modo,,la,,0.3875,,164.7664,164.7665,0.044444444,-0.218518519,0,0,0,,0,4,4,28,1,pono,,,,
,,,,,,616f423e8893bea6dd1e7f52,676192165fb32c2e1fb7aee6,67d0cef0b4d4c1d595b2cb0e,2025-03-11_18h02.30.096,Tarea de decisión léxica,2024.2.5,Win32,59.88023952,,,,,,,,,,,,,,,,,,,,,,,164.7679,165.8338,l,1,0.3873,1,165.8338,166.3343,,,,,,284,MAS,NOWORD,AGR,150,tuevo,,el,,0.3873,,166.3343,166.3345,0.044444444,-0.218518519,0,0,0,,0,5,5,283,1,sueño,,,,
,,,,,,616f423e8893bea6dd1e7f52,676192165fb32c2e1fb7aee6,67d0cef0b4d4c1d595b2cb0e,2025-03-11_18h02.30.096,Tarea de decisión léxica,2024.2.5,Win32,59.88023952,,,,,,,,,,,,,,,,,,,,,,,166.3361,167.2856,a,1,0.2847,1,167.2857,167.7861,,,,,,243,MAS,WORD,AGR,150,amigo,,el,,0.2847,,167.7863,167.7867,0.044444444,-0.218518519,0,0,0,,0,6,6,242,1,asamo,,,,
,,,,,,616f423e8893bea6dd1e7f52,676192165fb32c2e1fb7aee6,67d0cef0b4d4c1d595b2cb0e,2025-03-11_18h02.30.096,Tarea de decisión léxica,2024.2.5,Win32,59.88023952,,,,,,,,,,,,,,,,,,,,,,,167.7888,168.9204,l,1,0.4555,1,168.9205,169.421,,,,,,254,MAS,NOWORD,DIS,150,trido,,la,,0.4555,,169.4246,169.4266,0.044444444,-0.218518519,0,0,0,,0,7,7,253,1,chico,,,,
,,,,,,616f423e8893bea6dd1e7f52,676192165fb32c2e1fb7aee6,67d0cef0b4d4c1d595b2cb0e,2025-03-11_18h02.30.096,Tarea de decisión léxica,2024.2.5,Win32,59.88023952,,,,,,,,,,,,,,,,,,,,,,,169.428,170.5221,a,1,0.4215,1,170.5222,171.0226,,,,,,479,MAS,WORD,AGR,150,rumbo,,el,,0.4215,,171.0227,171.023,0.044444444,-0.218518519,0,0,0,,0,8,8,478,1,rimpo,,,,
,,,,,,616f423e8893bea6dd1e7f52,676192165fb32c2e1fb7aee6,67d0cef0b4d4c1d595b2cb0e,2025-03-11_18h02.30.096,Tarea de decisión léxica,2024.2.5,Win32,59.88023952,,,,,,,,,,,,,,,,,,,,,,,171.0266,172.023,l,1,0.322,1,172.023,172.5241,,,,,,246,FEM,NOWORD,DIS,150,pafle,,el,,0.322,,172.5242,172.5245,0.044444444,-0.218518519,0,0,0,,0,9,9,245,1,madre,,,,
,,,,,,616f423e8893bea6dd1e7f52,676192165fb32c2e1fb7aee6,67d0cef0b4d4c1d595b2cb0e,2025-03-11_18h02.30.096,Tarea de decisión léxica,2024.2.5,Win32,59.88023952,,,,,,,,,,,,,,,,,,,,,,,172.5265,173.6251,l,1,0.4221,1,173.6252,174.1258,,,,,,476,FEM,NOWORD,AGR,150,mucta,,la,,0.4221,,174.1258,174.1263,0.044444444,-0.218518519,0,0,0,,0,10,10,475,1,manta,,,,
,,,,,,616f423e8893bea6dd1e7f52,676192165fb32c2e1fb7aee6,67d0cef0b4d4c1d595b2cb0e,2025-03-11_18h02.30.096,Tarea de decisión léxica,2024.2.5,Win32,59.88023952,,,,,,,,,,,,,,,,,,,,,,,174.1282,175.2603,l,1,0.4603,1,175.2604,175.7606,,,,,,126,MAS,NOWORD,DIS,150,vudo,,la,,0.4603,,175.7637,175.7662,0.044444444,-0.218518519,0,0,0,,0,11,11,125,1,lujo,,,,
,,,,,,616f423e8893bea6dd1e7f52,676192165fb32c2e1fb7aee6,67d0cef0b4d4c1d595b2cb0e,2025-03-11_18h02.30.096,Tarea de decisión léxica,2024.2.5,Win32,59.88023952,,,,,,,,,,,,,,,,,,,,,,,175.7678,176.7955,a,1,0.3616,1,176.7956,177.2955,,,,,,465,FEM,WORD,DIS,150,aguja,,el,,0.3616,,177.2955,177.2957,0.044444444,-0.218518519,0,0,0,,0,12,12,464,1,asuba,,,,
,,,,,,616f423e8893bea6dd1e7f52,676192165fb32c2e1fb7aee6,67d0cef0b4d4c1d595b2cb0e,2025-03-11_18h02.30.096,Tarea de decisión léxica,2024.2.5,Win32,59.88023952,,,,,,,,,,,,,,,,,,,,,,,177.2975,178.3467,a,1,0.371,1,178.3468,178.8467,,,,,,37,MAS,WORD,DIS,150,rato,,la,,0.371,,178.8468,178.8469,0.044444444,-0.218518519,0,0,0,,0,13,13,36,1,gaco,,,,
,,,,,,616f423e8893bea6dd1e7f52,676192165fb32c2e1fb7aee6,67d0cef0b4d4c1d595b2cb0e,2025-03-11_18h02.30.096,Tarea de decisión léxica,2024.2.5,Win32,59.88023952,,,,,,,,,,,,,,,,,,,,,,,178.8484,179.7314,l,1,0.2275,1,179.7316,180.2316,,,,,,362,FEM,NOWORD,DIS,150,solle,,el,,0.2275,,180.2318,180.232,0.044444444,-0.218518519,0,0,0,,0,14,14,361,1,torre,,,,
,,,,,,616f423e8893bea6dd1e7f52,676192165fb32c2e1fb7aee6,67d0cef0b4d4c1d595b2cb0e,2025-03-11_18h02.30.096,Tarea de decisión léxica,2024.2.5,Win32,59.88023952,,,,,,,,,,,,,,,,,,,,,,,180.2341,181.1658,a,1,0.2496,1,181.1659,181.6664,,,,,,367,MAS,WORD,AGR,150,reloj,,el,,0.2496,,181.6664,181.6665,0.044444444,-0.218518519,0,0,0,,0,15,15,366,1,rerob,,,,
,,,,,,616f423e8893bea6dd1e7f52,676192165fb32c2e1fb7aee6,67d0cef0b4d4c1d595b2cb0e,2025-03-11_18h02.30.096,Tarea de decisión léxica,2024.2.5,Win32,59.88023952,,,,,,,,,,,,,,,,,,,,,,,181.6684,182.7342,a,1,0.4074,1,182.7343,183.2348,,,,,,327,MAS,WORD,AGR,150,fondo,,el,,0.4074,,183.238,183.2405,0.044444444,-0.218518519,0,0,0,,0,16,16,326,1,lendo,,,,
,,,,,,616f423e8893bea6dd1e7f52,676192165fb32c2e1fb7aee6,67d0cef0b4d4c1d595b2cb0e,2025-03-11_18h02.30.096,Tarea de decisión léxica,2024.2.5,Win32,59.88023952,,,,,,,,,,,,,,,,,,,,,,,183.2429,184.2034,a,1,0.2951,1,184.2034,184.703,,,,,,211,FEM,WORD,AGR,150,joya,,la,,0.2951,,184.703,184.7032,0.044444444,-0.218518519,0,0,0,,0,17,17,210,1,joad,,,,
,,,,,,616f423e8893bea6dd1e7f52,676192165fb32c2e1fb7aee6,67d0cef0b4d4c1d595b2cb0e,2025-03-11_18h02.30.096,Tarea de decisión léxica,2024.2.5,Win32,59.88023952,,,,,,,,,,,,,,,,,,,,,,,184.7068,185.8707,a,1,0.4908,1,185.8709,186.3712,,,,,,189,MAS,WORD,DIS,150,puño,,la,,0.4908,,186.3713,186.3715,0.044444444,-0.218518519,0,0,0,,0,18,18,188,1,muvo,,,,
,,,,,,616f423e8893bea6dd1e7f52,676192165fb32c2e1fb7aee6,67d0cef0b4d4c1d595b2cb0e,2025-03-11_18h02.30.096,Tarea de decisión léxica,2024.2.5,Win32,59.88023952,,,,,,,,,,,,,,,,,,,,,,,186.3734,187.4392,a,1,0.3904,1,187.4394,187.9396,,,,,,439,FEM,WORD,AGR,150,presa,,la,,0.3904,,187.9396,187.9398,0.044444444,-0.218518519,0,0,0,,0,19,19,438,1,prema,,,,
,,,,,,616f423e8893bea6dd1e7f52,676192165fb32c2e1fb7aee6,67d0cef0b4d4c1d595b2cb0e,2025-03-11_18h02.30.096,Tarea de decisión léxica,2024.2.5,Win32,59.88023952,,,,,,,,,,,,,,,,,,,,,,,187.9417,189.0239,a,1,0.407,1,189.024,189.5243,,,,,,319,MAS,WORD,AGR,150,suelo,,el,,0.407,,189.5245,189.5246,0.044444444,-0.218518519,0,0,0,,0,20,20,318,1,tuero,,,,
,,,,,,616f423e8893bea6dd1e7f52,676192165fb32c2e1fb7aee6,67d0cef0b4d4c1d595b2cb0e,2025-03-11_18h02.30.096,Tarea de decisión léxica,2024.2.5,Win32,59.88023952,,,,,,,,,,,,,,,,,,,,,,,189.5276,190.7587,l,1,0.5575,1,190.7588,191.2595,,,,,,478,MAS,NOWORD,DIS,150,hocon,,la,,0.5575,,191.2621,191.2644,0.044444444,-0.218518519,0,0,0,,0,21,21,477,1,botón,,,,
,,,,,,616f423e8893bea6dd1e7f52,676192165fb32c2e1fb7aee6,67d0cef0b4d4c1d595b2cb0e,2025-03-11_18h02.30.096,Tarea de decisión léxica,2024.2.5,Win32,59.88023952,,,,,,,,,,,,,,,,,,,,,,,191.2654,192.4441,l,1,0.5027,1,192.4443,192.9444,,,,,,148,FEM,NOWORD,AGR,150,pama,,la,,0.5027,,192.9445,192.9448,0.044444444,-0.218518519,0,0,0,,0,22,22,147,1,hoja,,,,
,,,,,,616f423e8893bea6dd1e7f52,676192165fb32c2e1fb7aee6,67d0cef0b4d4c1d595b2cb0e,2025-03-11_18h02.30.096,Tarea de decisión léxica,2024.2.5,Win32,59.88023952,,,,,,,,,,,,,,,,,,,,,,,192.9468,193.9453,a,1,0.3204,1,193.9453,194.4456,,,,,,231,FEM,WORD,AGR,150,bota,,la,,0.3204,,194.4457,194.4457,0.044444444,-0.218518519,0,0,0,,0,23,23,230,1,heta,,,,
,,,,,,616f423e8893bea6dd1e7f52,676192165fb32c2e1fb7aee6,67d0cef0b4d4c1d595b2cb0e,2025-03-11_18h02.30.096,Tarea de decisión léxica,2024.2.5,Win32,59.88023952,,,,,,,,,,,,,,,,,,,,,,,194.4467,195.5972,a,1,0.4923,1,195.5973,196.0976,,,,,,365,FEM,WORD,DIS,150,ducha,,el,,0.4923,,196.0976,196.0978,0.044444444,-0.218518519,0,0,0,,0,24,24,364,1,gulla,,,,
,,,,,,616f423e8893bea6dd1e7f52,676192165fb32c2e1fb7aee6,67d0cef0b4d4c1d595b2cb0e,2025-03-11_18h02.30.096,Tarea de decisión léxica,2024.2.5,Win32,59.88023952,,,,,,,,,,,,,,,,,,,,,,,196.0996,197.2153,a,1,0.44,1,197.2155,197.7159,,,,,,441,FEM,WORD,DIS,150,selva,,el,,0.44,,197.716,197.7162,0.044444444,-0.218518519,0,0,0,,0,25,25,440,1,telza,,,,
,,,,,,616f423e8893bea6dd1e7f52,676192165fb32c2e1fb7aee6,67d0cef0b4d4c1d595b2cb0e,2025-03-11_18h02.30.096,Tarea de decisión léxica,2024.2.5,Win32,59.88023952,,,,,,,,,,,,,,,,,,,,,,,197.7181,198.8503,l,1,0.454,1,198.8504,199.3509,,,,,,368,MAS,NOWORD,AGR,150,rerob,,el,,0.454,,199.3541,199.3566,0.044444444,-0.218518519,0,0,0,,0,26,26,367,1,reloj,,,,
,,,,,,616f423e8893bea6dd1e7f52,676192165fb32c2e1fb7aee6,67d0cef0b4d4c1d595b2cb0e,2025-03-11_18h02.30.096,Tarea de decisión léxica,2024.2.5,Win32,59.88023952,,,,,,,,,,,,,,,,,,,,,,,199.3582,200.4352,a,1,0.404,1,200.4354,200.9358,,,,,,73,MAS,WORD,DIS,150,odio,,la,,0.404,,200.9359,200.936,0.044444444,-0.218518519,0,0,0,,0,27,27,72,1,omio,,,,
,,,,,,616f423e8893bea6dd1e7f52,676192165fb32c2e1fb7aee6,67d0cef0b4d4c1d595b2cb0e,2025-03-11_18h02.30.096,Tarea de decisión léxica,2024.2.5,Win32,59.88023952,,,,,,,,,,,,,,,,,,,,,,,200.9378,202.137,l,1,0.5196,1,202.1372,202.6376,,,,,,100,MAS,NOWORD,AGR,150,soro,,el,,0.5196,,202.6377,202.6378,0.044444444,-0.218518519,0,0,0,,0,28,28,99,1,lobo,,,,
,,,,,,616f423e8893bea6dd1e7f52,676192165fb32c2e1fb7aee6,67d0cef0b4d4c1d595b2cb0e,2025-03-11_18h02.30.096,Tarea de decisión léxica,2024.2.5,Win32,59.88023952,,,,,,,,,,,,,,,,,,,,,,,202.6397,203.6385,a,0,0.3178,0,203.64,204.139,,,,,,28,MAS,NOWORD,AGR,150,ravo,,el,,0.3178,,204.139,204.1392,0.044444444,-0.218518519,0,0,0,,0,29,29,27,1,baño,,,,
,,,,,,616f423e8893bea6dd1e7f52,676192165fb32c2e1fb7aee6,67d0cef0b4d4c1d595b2cb0e,2025-03-11_18h02.30.096,Tarea de decisión léxica,2024.2.5,Win32,59.88023952,,,,,,,,,,,,,,,,,,,,,,,204.141,205.2735,l,1,0.4551,1,205.275,205.7745,,,,,,288,FEM,NOWORD,AGR,150,fosta,,la,,0.4551,,205.7747,205.7749,0.044444444,-0.218518519,0,0,0,,0,30,30,287,1,lista,,,,
,,,,,,616f423e8893bea6dd1e7f52,676192165fb32c2e1fb7aee6,67d0cef0b4d4c1d595b2cb0e,2025-03-11_18h02.30.096,Tarea de decisión léxica,2024.2.5,Win32,59.88023952,,,,,,,,,,,,,,,,,,,,,,,205.7771,206.9086,l,1,0.4522,1,206.9088,207.409,,,,,,68,FEM,NOWORD,AGR,150,gesa,,la,,0.4522,,207.4122,207.4145,0.044444444,-0.218518519,0,0,0,,0,31,31,67,1,nena,,,,
,,,,,,616f423e8893bea6dd1e7f52,676192165fb32c2e1fb7aee6,67d0cef0b4d4c1d595b2cb0e,2025-03-11_18h02.30.096,Tarea de decisión léxica,2024.2.5,Win32,59.88023952,,,,,,,,,,,,,,,,,,,,,,,207.4158,208.443,a,1,0.3609,1,208.4431,208.9437,,,,,,471,FEM,WORD,AGR,150,grasa,,la,,0.3609,,208.9438,208.944,0.044444444,-0.218518519,0,0,0,,0,32,32,470,1,prana,,,,
,,,,,,616f423e8893bea6dd1e7f52,676192165fb32c2e1fb7aee6,67d0cef0b4d4c1d595b2cb0e,2025-03-11_18h02.30.096,Tarea de decisión léxica,2024.2.5,Win32,59.88023952,,,,,,,,,,,,,,,,,,,,,,,208.9461,210.0949,l,1,0.468,1,210.0951,210.5954,,,,,,330,MAS,NOWORD,DIS,150,nueno,,la,,0.468,,210.5955,210.5957,0.044444444,-0.218518519,0,0,0,,0,33,33,329,1,hueso,,,,
,,,,,,616f423e8893bea6dd1e7f52,676192165fb32c2e1fb7aee6,67d0cef0b4d4c1d595b2cb0e,2025-03-11_18h02.30.096,Tarea de decisión léxica,2024.2.5,Win32,59.88023952,,,,,,,,,,,,,,,,,,,,,,,210.5976,211.5798,a,0,0.3032,0,211.5812,212.0803,,,,,,60,FEM,NOWORD,AGR,150,tafa,,la,,0.3032,,212.0803,212.0805,0.044444444,-0.218518519,0,0,0,,0,34,34,59,1,sala,,,,
,,,,,,616f423e8893bea6dd1e7f52,676192165fb32c2e1fb7aee6,67d0cef0b4d4c1d595b2cb0e,2025-03-11_18h02.30.096,Tarea de decisión léxica,2024.2.5,Win32,59.88023952,,,,,,,,,,,,,,,,,,,,,,,212.0824,213.2982,l,1,0.5383,1,213.2996,213.7986,,,,,,466,FEM,NOWORD,DIS,150,asuba,,el,,0.5383,,213.802,213.8042,0.044444444,-0.218518519,0,0,0,,0,35,35,465,1,aguja,,,,
,,,,,,616f423e8893bea6dd1e7f52,676192165fb32c2e1fb7aee6,67d0cef0b4d4c1d595b2cb0e,2025-03-11_18h02.30.096,Tarea de decisión léxica,2024.2.5,Win32,59.88023952,,,,,,,,,,,,,,,,,,,,,,,213.8056,214.9664,a,1,0.491,1,214.9665,215.4671,,,,,,429,FEM,WORD,DIS,150,tarta,,el,,0.491,,215.4673,215.4674,0.044444444,-0.218518519,0,0,0,,0,36,36,428,1,tenta,,,,
,,,,,,616f423e8893bea6dd1e7f52,676192165fb32c2e1fb7aee6,67d0cef0b4d4c1d595b2cb0e,2025-03-11_18h02.30.096,Tarea de decisión léxica,2024.2.5,Win32,59.88023952,,,,,,,,,,,,,,,,,,,,,,,215.4692,216.568,a,1,0.4227,1,216.5682,217.0685,,,,,,353,FEM,WORD,DIS,150,celda,,el,,0.4227,,217.0687,217.069,0.044444444,-0.218518519,0,0,0,,0,37,37,352,1,cezca,,,,
,,,,,,616f423e8893bea6dd1e7f52,676192165fb32c2e1fb7aee6,67d0cef0b4d4c1d595b2cb0e,2025-03-11_18h02.30.096,Tarea de decisión léxica,2024.2.5,Win32,59.88023952,,,,,,,,,,,,,,,,,,,,,,,217.0708,218.1872,a,1,0.4461,1,218.1873,218.6866,,,,,,459,MAS,WORD,AGR,150,grado,,el,,0.4461,,218.6868,218.6869,0.044444444,-0.218518519,0,0,0,,0,38,38,458,1,fraco,,,,
,,,,,,616f423e8893bea6dd1e7f52,676192165fb32c2e1fb7aee6,67d0cef0b4d4c1d595b2cb0e,2025-03-11_18h02.30.096,Tarea de decisión léxica,2024.2.5,Win32,59.88023952,,,,,,,,,,,,,,,,,,,,,,,218.6887,219.7043,a,1,0.3351,1,219.7044,220.205,,,,,,343,FEM,WORD,AGR,150,plata,,la,,0.3351,,220.2051,220.2054,0.044444444,-0.218518519,0,0,0,,0,39,39,342,1,trada,,,,
,,,,,,616f423e8893bea6dd1e7f52,676192165fb32c2e1fb7aee6,67d0cef0b4d4c1d595b2cb0e,2025-03-11_18h02.30.096,Tarea de decisión léxica,2024.2.5,Win32,59.88023952,,,,,,,,,,,,,,,,,,,,,,,220.2083,221.3561,l,1,0.4767,1,221.3562,221.8566,,,,,,200,MAS,NOWORD,AGR,150,fano,,el,,0.4767,,221.8598,221.8621,0.044444444,-0.218518519,0,0,0,,0,40,40,199,1,lazo,,,,
,,,,,,616f423e8893bea6dd1e7f52,676192165fb32c2e1fb7aee6,67d0cef0b4d4c1d595b2cb0e,2025-03-11_18h02.30.096,Tarea de decisión léxica,2024.2.5,Win32,59.88023952,,,,,,,,,,,,,,,,,,,,,,,221.8636,223.0076,l,1,0.4678,1,223.0077,223.5083,,,,,,480,MAS,NOWORD,AGR,150,rimpo,,el,,0.4678,,223.5084,223.5085,0.044444444,-0.218518519,0,0,0,,0,41,41,479,1,rumbo,,,,
,,,,,,616f423e8893bea6dd1e7f52,676192165fb32c2e1fb7aee6,67d0cef0b4d4c1d595b2cb0e,2025-03-11_18h02.30.096,Tarea de decisión léxica,2024.2.5,Win32,59.88023952,,,,,,,,,,,,,,,,,,,,,,,223.5104,224.6257,a,1,0.437,1,224.6258,225.1262,,,,,,119,MAS,WORD,AGR,150,pozo,,el,,0.437,,225.1264,225.1265,0.044444444,-0.218518519,0,0,0,,0,42,42,118,1,hooy,,,,
,,,,,,616f423e8893bea6dd1e7f52,676192165fb32c2e1fb7aee6,67d0cef0b4d4c1d595b2cb0e,2025-03-11_18h02.30.096,Tarea de decisión léxica,2024.2.5,Win32,59.88023952,,,,,,,,,,,,,,,,,,,,,,,225.1286,226.2441,l,1,0.4349,1,226.2441,226.7447,,,,,,350,MAS,NOWORD,DIS,150,cosir,,la,,0.4349,,226.7448,226.7449,0.044444444,-0.218518519,0,0,0,,0,43,43,349,1,color,,,,
,,,,,,616f423e8893bea6dd1e7f52,676192165fb32c2e1fb7aee6,67d0cef0b4d4c1d595b2cb0e,2025-03-11_18h02.30.096,Tarea de decisión léxica,2024.2.5,Win32,59.88023952,,,,,,,,,,,,,,,,,,,,,,,226.7463,227.7623,a,1,0.338,1,227.7625,228.2631,,,,,,149,MAS,WORD,DIS,150,cabo,,la,,0.338,,228.2631,228.2633,0.044444444,-0.218518519,0,0,0,,0,44,44,148,1,pafo,,,,
,,,,,,616f423e8893bea6dd1e7f52,676192165fb32c2e1fb7aee6,67d0cef0b4d4c1d595b2cb0e,2025-03-11_18h02.30.096,Tarea de decisión léxica,2024.2.5,Win32,59.88023952,,,,,,,,,,,,,,,,,,,,,,,228.2652,229.3806,l,1,0.4426,1,229.3809,229.881,,,,,,338,MAS,NOWORD,DIS,150,nuejo,,la,,0.4426,,229.8827,229.8854,0.044444444,-0.218518519,0,0,0,,0,45,45,337,1,huevo,,,,
,,,,,,616f423e8893bea6dd1e7f52,676192165fb32c2e1fb7aee6,67d0cef0b4d4c1d595b2cb0e,2025-03-11_18h02.30.096,Tarea de decisión léxica,2024.2.5,Win32,59.88023952,,,,,,,,,,,,,,,,,,,,,,,229.8867,231.0492,l,1,0.4849,1,231.0493,231.5496,,,,,,114,FEM,NOWORD,DIS,150,tada,,el,,0.4849,,231.5497,231.5499,0.044444444,-0.218518519,0,0,0,,0,46,46,113,1,miel,,,,
,,,,,,616f423e8893bea6dd1e7f52,676192165fb32c2e1fb7aee6,67d0cef0b4d4c1d595b2cb0e,2025-03-11_18h02.30.096,Tarea de decisión léxica,2024.2.5,Win32,59.88023952,,,,,,,,,,,,,,,,,,,,,,,231.5515,232.6505,a,1,0.4212,1,232.6506,233.1511,,,,,,95,FEM,WORD,AGR,151,moda,,la,,0.4212,,233.1512,233.1513,0.044444444,-0.218518519,0,0,0,,0,47,47,94,1,neda,,,,
,,,,,,616f423e8893bea6dd1e7f52,676192165fb32c2e1fb7aee6,67d0cef0b4d4c1d595b2cb0e,2025-03-11_18h02.30.096,Tarea de decisión léxica,2024.2.5,Win32,59.88023952,,,,,,,,,,,,,,,,,,,,,,,233.153,234.2195,l,1,0.3842,1,234.2196,234.7192,,,,,,370,MAS,NOWORD,DIS,150,rioco,,la,,0.3842,,234.7193,234.7193,0.044444444,-0.218518519,0,0,0,,0,48,48,369,1,ruido,,,,
,,,,,,616f423e8893bea6dd1e7f52,676192165fb32c2e1fb7aee6,67d0cef0b4d4c1d595b2cb0e,2025-03-11_18h02.30.096,Tarea de decisión léxica,2024.2.5,Win32,59.88023952,,,,,,,,,,,,,,,,,,,,,,,234.7205,235.7206,a,1,0.3387,1,235.7207,236.2208,,,,,,227,MAS,WORD,AGR,150,faro,,el,,0.3387,,236.221,236.2212,0.044444444,-0.218518519,0,0,0,,0,49,49,226,1,laro,,,,
,,,,,,616f423e8893bea6dd1e7f52,676192165fb32c2e1fb7aee6,67d0cef0b4d4c1d595b2cb0e,2025-03-11_18h02.30.096,Tarea de decisión léxica,2024.2.5,Win32,59.88023952,,,,,,,,,,,,,,,,,,,,,,,236.2229,237.2887,a,1,0.3849,1,237.2889,237.7892,,,,,,377,MAS,WORD,DIS,150,hielo,,la,,0.3849,,237.7916,237.7943,0.044444444,-0.218518519,0,0,0,,0,50,50,376,1,gaulo,,,,
,,,,,,616f423e8893bea6dd1e7f52,676192165fb32c2e1fb7aee6,67d0cef0b4d4c1d595b2cb0e,2025-03-11_18h02.30.096,Tarea de decisión léxica,2024.2.5,Win32,59.88023952,,,,,,,,,,,,,,,,,,,,,,,237.7958,238.8401,l,1,0.3728,1,238.8402,239.3407,,,,,,130,MAS,NOWORD,DIS,150,pima,,la,,0.3728,,239.3408,239.341,0.044444444,-0.218518519,0,0,0,,0,51,51,129,1,oído,,,,
,,,,,,616f423e8893bea6dd1e7f52,676192165fb32c2e1fb7aee6,67d0cef0b4d4c1d595b2cb0e,2025-03-11_18h02.30.096,Tarea de decisión léxica,2024.2.5,Win32,59.88023952,,,,,,,,,,,,,,,,,,,,,,,239.3428,240.4586,l,0,0.4353,0,240.46,240.959,,,,,,123,FEM,WORD,AGR,150,flor,,la,,0.4353,,240.959,240.9593,0.044444444,-0.218518519,0,0,0,,0,52,52,122,1,maba,,,,
,,,,,,616f423e8893bea6dd1e7f52,676192165fb32c2e1fb7aee6,67d0cef0b4d4c1d595b2cb0e,2025-03-11_18h02.30.096,Tarea de decisión léxica,2024.2.5,Win32,59.88023952,,,,,,,,,,,,,,,,,,,,,,,240.9631,242.0441,a,1,0.4121,1,242.0453,242.5439,,,,,,207,MAS,WORD,AGR,150,kilo,,el,,0.4121,,242.5441,242.5442,0.044444444,-0.218518519,0,0,0,,0,53,53,206,1,kedo,,,,
,,,,,,616f423e8893bea6dd1e7f52,676192165fb32c2e1fb7aee6,67d0cef0b4d4c1d595b2cb0e,2025-03-11_18h02.30.096,Tarea de decisión léxica,2024.2.5,Win32,59.88023952,,,,,,,,,,,,,,,,,,,,,,,242.5461,243.545,a,1,0.3227,1,243.5451,244.0455,,,,,,247,FEM,WORD,AGR,150,chica,,la,,0.3227,,244.0456,244.0457,0.044444444,-0.218518519,0,0,0,,0,54,54,246,1,trida,,,,
,,,,,,616f423e8893bea6dd1e7f52,676192165fb32c2e1fb7aee6,67d0cef0b4d4c1d595b2cb0e,2025-03-11_18h02.30.096,Tarea de decisión léxica,2024.2.5,Win32,59.88023952,,,,,,,,,,,,,,,,,,,,,,,244.0477,245.0631,a,1,0.3341,1,245.0633,245.5637,,,,,,137,MAS,WORD,DIS,150,nene,,la,,0.3341,,245.5659,245.5686,0.044444444,-0.218518519,0,0,0,,0,55,55,136,1,pamo,,,,
,,,,,,616f423e8893bea6dd1e7f52,676192165fb32c2e1fb7aee6,67d0cef0b4d4c1d595b2cb0e,2025-03-11_18h02.30.096,Tarea de decisión léxica,2024.2.5,Win32,59.88023952,,,,,,,,,,,,,,,,,,,,,,,245.5699,246.6645,l,1,0.4219,1,246.6647,247.1652,,,,,,232,FEM,NOWORD,AGR,150,heta,,la,,0.4219,,247.1654,247.1655,0.044444444,-0.218518519,0,0,0,,0,56,56,231,1,bota,,,,
,,,,,,616f423e8893bea6dd1e7f52,676192165fb32c2e1fb7aee6,67d0cef0b4d4c1d595b2cb0e,2025-03-11_18h02.30.096,Tarea de decisión léxica,2024.2.5,Win32,59.88023952,,,,,,,,,,,,,,,,,,,,,,,247.1673,248.3996,l,1,0.5563,1,248.3998,248.9003,,,,,,404,FEM,NOWORD,AGR,150,grisa,,la,,0.5563,,248.9004,248.9006,0.044444444,-0.218518519,0,0,0,,0,57,57,403,1,prima,,,,
,,,,,,616f423e8893bea6dd1e7f52,676192165fb32c2e1fb7aee6,67d0cef0b4d4c1d595b2cb0e,2025-03-11_18h02.30.096,Tarea de decisión léxica,2024.2.5,Win32,59.88023952,,,,,,,,,,,,,,,,,,,,,,,248.9025,250.1349,l,1,0.5514,1,250.135,250.635,,,,,,464,FEM,NOWORD,AGR,150,matla,,la,,0.5514,,250.6351,250.6352,0.044444444,-0.218518519,0,0,0,,0,58,58,463,1,cabra,,,,
,,,,,,616f423e8893bea6dd1e7f52,676192165fb32c2e1fb7aee6,67d0cef0b4d4c1d595b2cb0e,2025-03-11_18h02.30.096,Tarea de decisión léxica,2024.2.5,Win32,59.88023952,,,,,,,,,,,,,,,,,,,,,,,250.6366,251.8031,l,1,0.5106,1,251.8031,252.3035,,,,,,18,FEM,NOWORD,DIS,150,paba,,el,,0.5106,,252.3057,252.3083,0.044444444,-0.218518519,0,0,0,,0,59,59,17,1,mamá,,,,
,,,,,,616f423e8893bea6dd1e7f52,676192165fb32c2e1fb7aee6,67d0cef0b4d4c1d595b2cb0e,2025-03-11_18h02.30.096,Tarea de decisión léxica,2024.2.5,Win32,59.88023952,,,,,,,,,,,,,,,,,,,,,,,252.3097,253.3047,a,1,0.3218,1,253.3048,253.805,,,,,,281,MAS,WORD,DIS,150,cielo,,la,,0.3218,,253.8051,253.8052,0.044444444,-0.218518519,0,0,0,,0,60,60,280,1,cauro,,,,
,,,,,,616f423e8893bea6dd1e7f52,676192165fb32c2e1fb7aee6,67d0cef0b4d4c1d595b2cb0e,2025-03-11_18h02.30.096,Tarea de decisión léxica,2024.2.5,Win32,59.88023952,,,,,,,,,,,,,,,,,,,,,,,253.8067,254.7893,a,1,0.301,1,254.7895,255.2902,,,,,,467,MAS,WORD,AGR,150,piano,,el,,0.301,,255.2902,255.2905,0.044444444,-0.218518519,0,0,0,,0,61,61,466,1,peiso,,,,
,,,,,,616f423e8893bea6dd1e7f52,676192165fb32c2e1fb7aee6,67d0cef0b4d4c1d595b2cb0e,2025-03-11_18h02.30.096,Tarea de decisión léxica,2024.2.5,Win32,59.88023952,,,,,,,,,,,,,,,,,,,,,,,255.2928,256.3744,l,1,0.4077,1,256.3746,256.8749,,,,,,110,MAS,NOWORD,DIS,150,suno,,la,,0.4077,,256.8749,256.8751,0.044444444,-0.218518519,0,0,0,,0,62,62,109,1,rayo,,,,
,,,,,,616f423e8893bea6dd1e7f52,676192165fb32c2e1fb7aee6,67d0cef0b4d4c1d595b2cb0e,2025-03-11_18h02.30.096,Tarea de decisión léxica,2024.2.5,Win32,59.88023952,,,,,,,,,,,,,,,,,,,,,,,256.8771,257.9259,a,1,0.3679,1,257.9261,258.4265,,,,,,205,FEM,WORD,DIS,150,rana,,el,,0.3679,,258.4265,258.4267,0.044444444,-0.218518519,0,0,0,,0,63,63,204,1,bara,,,,
,,,,,,616f423e8893bea6dd1e7f52,676192165fb32c2e1fb7aee6,67d0cef0b4d4c1d595b2cb0e,2025-03-11_18h02.30.096,Tarea de decisión léxica,2024.2.5,Win32,59.88023952,,,,,,,,,,,,,,,,,,,,,,,258.4285,259.4607,a,1,0.3602,1,259.4609,259.9609,,,,,,267,MAS,WORD,AGR,150,libro,,el,,0.3602,,259.9624,259.9641,0.044444444,-0.218518519,0,0,0,,0,64,64,266,1,figro,,,,
,,,,,,616f423e8893bea6dd1e7f52,676192165fb32c2e1fb7aee6,67d0cef0b4d4c1d595b2cb0e,2025-03-11_18h02.30.096,Tarea de decisión léxica,2024.2.5,Win32,59.88023952,,,,,,,,,,,,,,,,,,,,,,,259.9658,260.9631,a,1,0.3288,1,260.9633,261.4629,,,,,,181,FEM,WORD,DIS,150,seda,,el,,0.3288,,261.463,261.4632,0.044444444,-0.218518519,0,0,0,,0,65,65,180,1,teda,,,,
,,,,,,616f423e8893bea6dd1e7f52,676192165fb32c2e1fb7aee6,67d0cef0b4d4c1d595b2cb0e,2025-03-11_18h02.30.096,Tarea de decisión léxica,2024.2.5,Win32,59.88023952,,,,,,,,,,,,,,,,,,,,,,,261.4649,262.4806,a,1,0.3387,1,262.4807,262.9811,,,,,,111,MAS,WORD,AGR,150,muro,,el,,0.3387,,262.9811,262.9813,0.044444444,-0.218518519,0,0,0,,0,66,66,110,1,siro,,,,
,,,,,,616f423e8893bea6dd1e7f52,676192165fb32c2e1fb7aee6,67d0cef0b4d4c1d595b2cb0e,2025-03-11_18h02.30.096,Tarea de decisión léxica,2024.2.5,Win32,59.88023952,,,,,,,,,,,,,,,,,,,,,,,262.9848,263.9319,a,1,0.2686,1,263.9321,264.4324,,,,,,331,MAS,WORD,AGR,150,éxito,,el,,0.2686,,264.4325,264.4326,0.044444444,-0.218518519,0,0,0,,0,67,67,330,1,erato,,,,
,,,,,,616f423e8893bea6dd1e7f52,676192165fb32c2e1fb7aee6,67d0cef0b4d4c1d595b2cb0e,2025-03-11_18h02.30.096,Tarea de decisión léxica,2024.2.5,Win32,59.88023952,,,,,,,,,,,,,,,,,,,,,,,264.4343,265.5,l,1,0.4094,1,265.5003,266.0003,,,,,,346,FEM,NOWORD,DIS,150,anera,,el,,0.4094,,266.0003,266.0004,0.044444444,-0.218518519,0,0,0,,0,68,68,345,1,arena,,,,
,,,,,,616f423e8893bea6dd1e7f52,676192165fb32c2e1fb7aee6,67d0cef0b4d4c1d595b2cb0e,2025-03-11_18h02.30.096,Tarea de decisión léxica,2024.2.5,Win32,59.88023952,,,,,,,,,,,,,,,,,,,,,,,266.0015,266.9848,a,0,0.3205,0,266.9862,267.4853,,,,,,450,FEM,NOWORD,DIS,150,crusa,,el,,0.3205,,267.4875,267.49,0.044444444,-0.218518519,0,0,0,,0,69,69,449,1,pluma,,,,
,,,,,,616f423e8893bea6dd1e7f52,676192165fb32c2e1fb7aee6,67d0cef0b4d4c1d595b2cb0e,2025-03-11_18h02.30.096,Tarea de decisión léxica,2024.2.5,Win32,59.88023952,,,,,,,,,,,,,,,,,,,,,,,267.4916,268.6029,a,0,0.4437,0,268.603,269.1037,,,,,,52,FEM,NOWORD,AGR,150,mava,,la,,0.4437,,269.1037,269.104,0.044444444,-0.218518519,0,0,0,,0,70,70,51,1,caja,,,,
,,,,,,616f423e8893bea6dd1e7f52,676192165fb32c2e1fb7aee6,67d0cef0b4d4c1d595b2cb0e,2025-03-11_18h02.30.096,Tarea de decisión léxica,2024.2.5,Win32,59.88023952,,,,,,,,,,,,,,,,,,,,,,,269.1056,270.2883,l,1,0.5059,1,270.2896,270.7886,,,,,,56,MAS,NOWORD,AGR,150,jado,,el,,0.5059,,270.7887,270.7888,0.044444444,-0.218518519,0,0,0,,0,71,71,55,1,gato,,,,
,,,,,,616f423e8893bea6dd1e7f52,676192165fb32c2e1fb7aee6,67d0cef0b4d4c1d595b2cb0e,2025-03-11_18h02.30.096,Tarea de decisión léxica,2024.2.5,Win32,59.88023952,,,,,,,,,,,,,,,,,,,,,,,270.7902,271.89,a,1,0.4207,1,271.8901,272.3902,,,,,,273,FEM,WORD,DIS,150,broma,,el,,0.4207,,272.3902,272.3903,0.044444444,-0.218518519,0,0,0,,0,72,72,272,1,frosa,,,,
,,,,,,616f423e8893bea6dd1e7f52,676192165fb32c2e1fb7aee6,67d0cef0b4d4c1d595b2cb0e,2025-03-11_18h02.30.096,Tarea de decisión léxica,2024.2.5,Win32,59.88023952,,,,,,,,,,,,,,,,,,,,,,,272.3921,273.4576,a,1,0.3864,1,273.4576,273.9585,,,,,,135,MAS,WORD,AGR,150,tubo,,el,,0.3864,,273.9587,273.9588,0.044444444,-0.218518519,0,0,0,,0,73,73,134,1,geso,,,,
,,,,,,616f423e8893bea6dd1e7f52,676192165fb32c2e1fb7aee6,67d0cef0b4d4c1d595b2cb0e,2025-03-11_18h02.30.096,Tarea de decisión léxica,2024.2.5,Win32,59.88023952,,,,,,,,,,,,,,,,,,,,,,,273.9615,275.0597,l,1,0.4197,1,275.0598,275.5603,,,,,,360,MAS,NOWORD,AGR,150,cacer,,el,,0.4197,,275.5626,275.5652,0.044444444,-0.218518519,0,0,0,,0,74,74,359,1,calor,,,,
,,,,,,616f423e8893bea6dd1e7f52,676192165fb32c2e1fb7aee6,67d0cef0b4d4c1d595b2cb0e,2025-03-11_18h02.30.096,Tarea de decisión léxica,2024.2.5,Win32,59.88023952,,,,,,,,,,,,,,,,,,,,,,,275.5665,276.611,a,1,0.3772,1,276.6111,277.1117,,,,,,55,MAS,WORD,AGR,150,gato,,el,,0.3772,,277.1118,277.1119,0.044444444,-0.218518519,0,0,0,,0,75,75,54,1,jado,,,,
,,,,,,616f423e8893bea6dd1e7f52,676192165fb32c2e1fb7aee6,67d0cef0b4d4c1d595b2cb0e,2025-03-11_18h02.30.096,Tarea de decisión léxica,2024.2.5,Win32,59.88023952,,,,,,,,,,,,,,,,,,,,,,,277.1137,278.2463,l,1,0.4515,1,278.2464,278.7468,,,,,,272,FEM,NOWORD,AGR,150,refal,,la,,0.4515,,278.7469,278.747,0.044444444,-0.218518519,0,0,0,,0,76,76,271,1,señal,,,,
,,,,,,616f423e8893bea6dd1e7f52,676192165fb32c2e1fb7aee6,67d0cef0b4d4c1d595b2cb0e,2025-03-11_18h02.30.096,Tarea de decisión léxica,2024.2.5,Win32,59.88023952,,,,,,,,,,,,,,,,,,,,,,,278.7488,279.7977,a,1,0.368,1,279.7979,280.2981,,,,,,383,FEM,WORD,AGR,150,frase,,la,,0.368,,280.2983,280.2988,0.044444444,-0.218518519,0,0,0,,0,77,77,382,1,brame,,,,
,,,,,,616f423e8893bea6dd1e7f52,676192165fb32c2e1fb7aee6,67d0cef0b4d4c1d595b2cb0e,2025-03-11_18h02.30.096,Tarea de decisión léxica,2024.2.5,Win32,59.88023952,,,,,,,,,,,,,,,,,,,,,,,280.3013,281.2659,a,0,0.2872,0,281.2673,281.7662,,,,,,234,FEM,NOWORD,DIS,150,fasa,,el,,0.2872,,281.7663,281.7664,0.044444444,-0.218518519,0,0,0,,0,78,78,233,1,lana,,,,
,,,,,,616f423e8893bea6dd1e7f52,676192165fb32c2e1fb7aee6,67d0cef0b4d4c1d595b2cb0e,2025-03-11_18h02.30.096,Tarea de decisión léxica,2024.2.5,Win32,59.88023952,,,,,,,,,,,,,,,,,,,,,,,281.7682,282.8173,a,1,0.3716,1,282.8187,283.3181,,,,,,1,FEM,WORD,DIS,150,casa,,el,,0.3716,,283.3202,283.3229,0.044444444,-0.218518519,0,0,0,,0,79,79,0,1,mada,,,,
,,,,,,616f423e8893bea6dd1e7f52,676192165fb32c2e1fb7aee6,67d0cef0b4d4c1d595b2cb0e,2025-03-11_18h02.30.096,Tarea de decisión léxica,2024.2.5,Win32,59.88023952,,,,,,,,,,,,,,,,,,,,,,,283.3243,284.4521,l,1,0.459,1,284.4523,284.9529,,,,,,432,MAS,NOWORD,AGR,150,tetor,,el,,0.459,,284.9529,284.9531,0.044444444,-0.218518519,0,0,0,,0,80,80,431,1,motor,,,,
,,,,,,616f423e8893bea6dd1e7f52,676192165fb32c2e1fb7aee6,67d0cef0b4d4c1d595b2cb0e,2025-03-11_18h02.30.096,Tarea de decisión léxica,2024.2.5,Win32,59.88023952,,,,,,,,,,,,,,,,,,,,,,,284.9549,286.0875,l,1,0.4512,1,286.0877,286.5877,,,,,,240,MAS,NOWORD,AGR,150,poño,,el,,0.4512,,286.5877,286.5878,0.044444444,-0.218518519,0,0,0,,0,81,81,239,1,mozo,,,,
,,,,,,616f423e8893bea6dd1e7f52,676192165fb32c2e1fb7aee6,67d0cef0b4d4c1d595b2cb0e,2025-03-11_18h02.30.096,Tarea de decisión léxica,2024.2.5,Win32,59.88023952,,,,,,,,,,,,,,,,,,,,,,,286.5893,287.5885,a,1,0.3172,1,287.5886,288.0892,,,,,,47,MAS,WORD,AGR,150,club,,el,,0.3172,,288.0893,288.0895,0.044444444,-0.218518519,0,0,0,,0,82,82,46,1,chub,,,,
,,,,,,616f423e8893bea6dd1e7f52,676192165fb32c2e1fb7aee6,67d0cef0b4d4c1d595b2cb0e,2025-03-11_18h02.30.096,Tarea de decisión léxica,2024.2.5,Win32,59.88023952,,,,,,,,,,,,,,,,,,,,,,,288.0912,289.1903,l,1,0.4338,1,289.1905,289.6908,,,,,,238,MAS,NOWORD,DIS,150,huco,,la,,0.4338,,289.6928,289.6955,0.044444444,-0.218518519,0,0,0,,0,83,83,237,1,nudo,,,,
,,,,,,616f423e8893bea6dd1e7f52,676192165fb32c2e1fb7aee6,67d0cef0b4d4c1d595b2cb0e,2025-03-11_18h02.30.096,Tarea de decisión léxica,2024.2.5,Win32,59.88023952,,,,,,,,,,,,,,,,,,,,,,,289.6969,290.7088,a,1,0.3425,1,290.7091,291.2092,,,,,,455,MAS,WORD,AGR,150,reino,,el,,0.3425,,291.2093,291.2095,0.044444444,-0.218518519,0,0,0,,0,84,84,454,1,riaso,,,,
,,,,,,616f423e8893bea6dd1e7f52,676192165fb32c2e1fb7aee6,67d0cef0b4d4c1d595b2cb0e,2025-03-11_18h02.30.096,Tarea de decisión léxica,2024.2.5,Win32,59.88023952,,,,,,,,,,,,,,,,,,,,,,,291.2115,292.2271,a,1,0.3446,1,292.2274,292.7275,,,,,,293,MAS,WORD,DIS,150,campo,,la,,0.3446,,292.7275,292.7278,0.044444444,-0.218518519,0,0,0,,0,85,85,292,1,cacso,,,,
,,,,,,616f423e8893bea6dd1e7f52,676192165fb32c2e1fb7aee6,67d0cef0b4d4c1d595b2cb0e,2025-03-11_18h02.30.096,Tarea de decisión léxica,2024.2.5,Win32,59.88023952,,,,,,,,,,,,,,,,,,,,,,,292.7295,293.8617,l,1,0.4583,1,293.8618,294.3622,,,,,,344,FEM,NOWORD,AGR,150,trada,,la,,0.4583,,294.3623,294.3625,0.044444444,-0.218518519,0,0,0,,0,86,86,343,1,plata,,,,
,,,,,,616f423e8893bea6dd1e7f52,676192165fb32c2e1fb7aee6,67d0cef0b4d4c1d595b2cb0e,2025-03-11_18h02.30.096,Tarea de decisión léxica,2024.2.5,Win32,59.88023952,,,,,,,,,,,,,,,,,,,,,,,294.3642,295.4801,l,1,0.4349,1,295.4803,295.9806,,,,,,382,MAS,NOWORD,DIS,150,nusor,,la,,0.4349,,295.9806,295.9808,0.044444444,-0.218518519,0,0,0,,0,87,87,381,1,humor,,,,
,,,,,,616f423e8893bea6dd1e7f52,676192165fb32c2e1fb7aee6,67d0cef0b4d4c1d595b2cb0e,2025-03-11_18h02.30.096,Tarea de decisión léxica,2024.2.5,Win32,59.88023952,,,,,,,,,,,,,,,,,,,,,,,295.9825,296.9983,a,1,0.3407,1,296.9984,297.4988,,,,,,91,FEM,WORD,AGR,150,taza,,la,,0.3407,,297.5011,297.5037,0.044444444,-0.218518519,0,0,0,,0,88,88,90,1,sava,,,,
,,,,,,616f423e8893bea6dd1e7f52,676192165fb32c2e1fb7aee6,67d0cef0b4d4c1d595b2cb0e,2025-03-11_18h02.30.096,Tarea de decisión léxica,2024.2.5,Win32,59.88023952,,,,,,,,,,,,,,,,,,,,,,,297.5051,298.5832,l,1,0.4076,1,298.5834,299.0837,,,,,,154,MAS,NOWORD,DIS,150,tado,,la,,0.4076,,299.0839,299.0841,0.044444444,-0.218518519,0,0,0,,0,89,89,153,1,pato,,,,
,,,,,,616f423e8893bea6dd1e7f52,676192165fb32c2e1fb7aee6,67d0cef0b4d4c1d595b2cb0e,2025-03-11_18h02.30.096,Tarea de decisión léxica,2024.2.5,Win32,59.88023952,,,,,,,,,,,,,,,,,,,,,,,299.0857,300.2182,l,1,0.4559,1,300.2183,300.7187,,,,,,398,FEM,NOWORD,DIS,150,trigi,,el,,0.4559,,300.7188,300.719,0.044444444,-0.218518519,0,0,0,,0,90,90,397,1,tribu,,,,
,,,,,,616f423e8893bea6dd1e7f52,676192165fb32c2e1fb7aee6,67d0cef0b4d4c1d595b2cb0e,2025-03-11_18h02.30.096,Tarea de decisión léxica,2024.2.5,Win32,59.88023952,,,,,,,,,,,,,,,,,,,,,,,300.7213,301.9698,l,1,0.5718,1,301.97,302.4705,,,,,,132,FEM,NOWORD,AGR,150,fada,,la,,0.5718,,302.4705,302.4707,0.044444444,-0.218518519,0,0,0,,0,91,91,131,1,mina,,,,
,,,,,,616f423e8893bea6dd1e7f52,676192165fb32c2e1fb7aee6,67d0cef0b4d4c1d595b2cb0e,2025-03-11_18h02.30.096,Tarea de decisión léxica,2024.2.5,Win32,59.88023952,,,,,,,,,,,,,,,,,,,,,,,302.4724,303.5381,a,1,0.3854,1,303.5382,304.0386,,,,,,261,MAS,WORD,DIS,150,sitio,,la,,0.3854,,304.0387,304.0389,0.044444444,-0.218518519,0,0,0,,0,92,92,260,1,titio,,,,
,,,,,,616f423e8893bea6dd1e7f52,676192165fb32c2e1fb7aee6,67d0cef0b4d4c1d595b2cb0e,2025-03-11_18h02.30.096,Tarea de decisión léxica,2024.2.5,Win32,59.88023952,,,,,,,,,,,,,,,,,,,,,,,304.0407,305.2063,l,1,0.4851,1,305.2065,305.707,,,,,,372,FEM,NOWORD,AGR,150,mosta,,la,,0.4851,,305.7092,305.712,0.044444444,-0.218518519,0,0,0,,0,93,93,371,1,pasta,,,,
,,,,,,616f423e8893bea6dd1e7f52,676192165fb32c2e1fb7aee6,67d0cef0b4d4c1d595b2cb0e,2025-03-11_18h02.30.096,Tarea de decisión léxica,2024.2.5,Win32,59.88023952,,,,,,,,,,,,,,,,,,,,,,,305.7133,306.8246,a,1,0.4351,1,306.8247,307.3253,,,,,,361,FEM,WORD,DIS,150,torre,,el,,0.4351,,307.3253,307.3254,0.044444444,-0.218518519,0,0,0,,0,94,94,360,1,solle,,,,
,,,,,,616f423e8893bea6dd1e7f52,676192165fb32c2e1fb7aee6,67d0cef0b4d4c1d595b2cb0e,2025-03-11_18h02.30.096,Tarea de decisión léxica,2024.2.5,Win32,59.88023952,,,,,,,,,,,,,,,,,,,,,,,307.3272,308.4264,a,1,0.4184,1,308.4265,308.9269,,,,,,237,MAS,WORD,DIS,150,nudo,,la,,0.4184,,308.9269,308.9272,0.044444444,-0.218518519,0,0,0,,0,95,95,236,1,huco,,,,
,,,,,,616f423e8893bea6dd1e7f52,676192165fb32c2e1fb7aee6,67d0cef0b4d4c1d595b2cb0e,2025-03-11_18h02.30.096,Tarea de decisión léxica,2024.2.5,Win32,59.88023952,,,,,,,,,,,,,,,,,,,,,,,308.929,309.9446,a,1,0.3394,1,309.9448,310.445,,,,,,51,FEM,WORD,AGR,150,caja,,la,,0.3394,,310.4451,310.4452,0.044444444,-0.218518519,0,0,0,,0,96,96,50,1,mava,,,,
,,,,,,616f423e8893bea6dd1e7f52,676192165fb32c2e1fb7aee6,67d0cef0b4d4c1d595b2cb0e,2025-03-11_18h02.30.096,Tarea de decisión léxica,2024.2.5,Win32,59.88023952,,,,,,,,,,,,,,,,,,,,,,,310.447,311.6463,l,1,0.5184,1,311.6464,312.1468,,,,,,310,FEM,NOWORD,DIS,150,tirra,,el,,0.5184,,312.1469,312.147,0.044444444,-0.218518519,0,0,0,,0,97,97,309,1,silla,,,,
,,,,,,616f423e8893bea6dd1e7f52,676192165fb32c2e1fb7aee6,67d0cef0b4d4c1d595b2cb0e,2025-03-11_18h02.30.096,Tarea de decisión léxica,2024.2.5,Win32,59.88023952,,,,,,,,,,,,,,,,,,,,,,,312.1489,313.3311,l,1,0.5034,1,313.3312,313.8318,,,,,,472,FEM,NOWORD,AGR,150,prana,,la,,0.5034,,313.8339,313.8365,0.044444444,-0.218518519,0,0,0,,0,98,98,471,1,grasa,,,,
,,,,,,616f423e8893bea6dd1e7f52,676192165fb32c2e1fb7aee6,67d0cef0b4d4c1d595b2cb0e,2025-03-11_18h02.30.096,Tarea de decisión léxica,2024.2.5,Win32,59.88023952,,,,,,,,,,,,,,,,,,,,,,,313.8378,314.7994,a,1,0.2896,1,314.7996,315.2999,,,,,,183,FEM,WORD,AGR,150,raya,,la,,0.2896,,315.3,315.3001,0.044444444,-0.218518519,0,0,0,,0,99,99,182,1,raad,,,,
,,,,,,616f423e8893bea6dd1e7f52,676192165fb32c2e1fb7aee6,67d0cef0b4d4c1d595b2cb0e,2025-03-11_18h02.30.096,Tarea de decisión léxica,2024.2.5,Win32,59.88023952,,,,,,,,,,,,,,,,,,,,,,,315.3018,316.3507,a,1,0.3679,1,316.3509,316.8514,,,,,,291,FEM,WORD,AGR,150,pista,,la,,0.3679,,316.8514,316.8516,0.044444444,-0.218518519,0,0,0,,0,100,100,290,1,mesta,,,,
,,,,,,616f423e8893bea6dd1e7f52,676192165fb32c2e1fb7aee6,67d0cef0b4d4c1d595b2cb0e,2025-03-11_18h02.30.096,Tarea de decisión léxica,2024.2.5,Win32,59.88023952,,,,,,,,,,,,,,,,,,,,,,,316.8535,318.0359,a,1,0.51,1,318.036,318.5364,,,,,,411,MAS,WORD,AGR,150,pollo,,el,,0.51,,318.5365,318.5367,0.044444444,-0.218518519,0,0,0,,0,101,101,410,1,mobro,,,,
,,,,,,616f423e8893bea6dd1e7f52,676192165fb32c2e1fb7aee6,67d0cef0b4d4c1d595b2cb0e,2025-03-11_18h02.30.096,Tarea de decisión léxica,2024.2.5,Win32,59.88023952,,,,,,,,,,,,,,,,,,,,,,,318.5385,319.5541,l,1,0.3372,1,319.5543,320.0544,,,,,,66,MAS,NOWORD,DIS,150,nios,,la,,0.3372,,320.0546,320.0547,0.044444444,-0.218518519,0,0,0,,0,102,102,65,1,dios,,,,
,,,,,,616f423e8893bea6dd1e7f52,676192165fb32c2e1fb7aee6,67d0cef0b4d4c1d595b2cb0e,2025-03-11_18h02.30.096,Tarea de decisión léxica,2024.2.5,Win32,59.88023952,,,,,,,,,,,,,,,,,,,,,,,320.0564,321.1558,l,1,0.4195,1,321.1559,321.6562,,,,,,98,MAS,NOWORD,DIS,150,fopo,,la,,0.4195,,321.6618,321.6623,0.044444444,-0.218518519,0,0,0,,0,103,103,97,1,mono,,,,
,,,,,,616f423e8893bea6dd1e7f52,676192165fb32c2e1fb7aee6,67d0cef0b4d4c1d595b2cb0e,2025-03-11_18h02.30.096,Tarea de decisión léxica,2024.2.5,Win32,59.88023952,,,,,,,,,,,,,,,,,,,,,,,321.6629,322.724,l,0,0.3856,0,322.7253,323.2245,,,,,,219,FEM,WORD,AGR,150,pipa,,la,,0.3856,,323.2246,323.2247,0.044444444,-0.218518519,0,0,0,,0,104,104,218,1,miva,,,,
,,,,,,616f423e8893bea6dd1e7f52,676192165fb32c2e1fb7aee6,67d0cef0b4d4c1d595b2cb0e,2025-03-11_18h02.30.096,Tarea de decisión léxica,2024.2.5,Win32,59.88023952,,,,,,,,,,,,,,,,,,,,,,,323.2266,324.2755,a,1,0.3697,1,324.2768,324.7759,,,,,,263,FEM,WORD,AGR,150,vista,,la,,0.3697,,324.776,324.7762,0.044444444,-0.218518519,0,0,0,,0,105,105,262,1,dosta,,,,
,,,,,,616f423e8893bea6dd1e7f52,676192165fb32c2e1fb7aee6,67d0cef0b4d4c1d595b2cb0e,2025-03-11_18h02.30.096,Tarea de decisión léxica,2024.2.5,Win32,59.88023952,,,,,,,,,,,,,,,,,,,,,,,324.7777,325.9771,l,1,0.521,1,325.9772,326.4776,,,,,,354,FEM,NOWORD,DIS,150,cezca,,el,,0.521,,326.4777,326.4779,0.044444444,-0.218518519,0,0,0,,0,106,106,353,1,celda,,,,
,,,,,,616f423e8893bea6dd1e7f52,676192165fb32c2e1fb7aee6,67d0cef0b4d4c1d595b2cb0e,2025-03-11_18h02.30.096,Tarea de decisión léxica,2024.2.5,Win32,59.88023952,,,,,,,,,,,,,,,,,,,,,,,326.4795,327.5786,l,1,0.4277,1,327.5786,328.0793,,,,,,122,MAS,NOWORD,DIS,150,bomo,,la,,0.4277,,328.0817,328.0843,0.044444444,-0.218518519,0,0,0,,0,107,107,121,1,hoyo,,,,
,,,,,,616f423e8893bea6dd1e7f52,676192165fb32c2e1fb7aee6,67d0cef0b4d4c1d595b2cb0e,2025-03-11_18h02.30.096,Tarea de decisión léxica,2024.2.5,Win32,59.88023952,,,,,,,,,,,,,,,,,,,,,,,328.0865,330.1313,l,0,1.3709,0,330.1326,330.6317,,,,,,185,MAS,WORD,DIS,150,baúl,,la,,1.3709,,330.6318,330.632,0.044444444,-0.218518519,0,0,0,,0,108,108,184,1,raol,,,,
,,,,,,616f423e8893bea6dd1e7f52,676192165fb32c2e1fb7aee6,67d0cef0b4d4c1d595b2cb0e,2025-03-11_18h02.30.096,Tarea de decisión léxica,2024.2.5,Win32,59.88023952,,,,,,,,,,,,,,,,,,,,,,,330.6338,331.5995,a,0,0.2845,0,331.5996,332.1,,,,,,206,FEM,NOWORD,DIS,150,bara,,el,,0.2845,,332.1001,332.1003,0.044444444,-0.218518519,0,0,0,,0,109,109,205,1,rana,,,,
,,,,,,616f423e8893bea6dd1e7f52,676192165fb32c2e1fb7aee6,67d0cef0b4d4c1d595b2cb0e,2025-03-11_18h02.30.096,Tarea de decisión léxica,2024.2.5,Win32,59.88023952,,,,,,,,,,,,,,,,,,,,,,,332.102,333.1677,a,1,0.3846,1,333.1691,333.6684,,,,,,357,FEM,WORD,DIS,150,bruja,,el,,0.3846,,333.6685,333.6687,0.044444444,-0.218518519,0,0,0,,0,110,110,356,1,gruba,,,,
,,,,,,616f423e8893bea6dd1e7f52,676192165fb32c2e1fb7aee6,67d0cef0b4d4c1d595b2cb0e,2025-03-11_18h02.30.096,Tarea de decisión léxica,2024.2.5,Win32,59.88023952,,,,,,,,,,,,,,,,,,,,,,,333.6708,334.7694,l,1,0.4208,1,334.7695,335.2696,,,,,,208,MAS,NOWORD,AGR,150,kedo,,el,,0.4208,,335.2697,335.27,0.044444444,-0.218518519,0,0,0,,0,111,111,207,1,kilo,,,,
,,,,,,616f423e8893bea6dd1e7f52,676192165fb32c2e1fb7aee6,67d0cef0b4d4c1d595b2cb0e,2025-03-11_18h02.30.096,Tarea de decisión léxica,2024.2.5,Win32,59.88023952,,,,,,,,,,,,,,,,,,,,,,,335.2722,336.3374,a,1,0.3871,1,336.3376,336.8381,,,,,,43,FEM,WORD,AGR,150,pena,,la,,0.3871,,336.84,336.8424,0.044444444,-0.218518519,0,0,0,,0,112,112,42,1,meda,,,,
,,,,,,616f423e8893bea6dd1e7f52,676192165fb32c2e1fb7aee6,67d0cef0b4d4c1d595b2cb0e,2025-03-11_18h02.30.096,Tarea de decisión léxica,2024.2.5,Win32,59.88023952,,,,,,,,,,,,,,,,,,,,,,,336.8441,337.9388,a,1,0.4275,1,337.939,338.4396,,,,,,11,MAS,WORD,AGR,150,lado,,el,,0.4275,,338.4397,338.4399,0.044444444,-0.218518519,0,0,0,,0,113,113,10,1,bapo,,,,
,,,,,,616f423e8893bea6dd1e7f52,676192165fb32c2e1fb7aee6,67d0cef0b4d4c1d595b2cb0e,2025-03-11_18h02.30.096,Tarea de decisión léxica,2024.2.5,Win32,59.88023952,,,,,,,,,,,,,,,,,,,,,,,338.4417,339.474,a,1,0.3548,1,339.4742,339.9745,,,,,,399,MAS,WORD,AGR,150,techo,,el,,0.3548,,339.9745,339.9748,0.044444444,-0.218518519,0,0,0,,0,114,114,398,1,serro,,,,
,,,,,,616f423e8893bea6dd1e7f52,676192165fb32c2e1fb7aee6,67d0cef0b4d4c1d595b2cb0e,2025-03-11_18h02.30.096,Tarea de decisión léxica,2024.2.5,Win32,59.88023952,,,,,,,,,,,,,,,,,,,,,,,339.9765,340.9921,a,1,0.3388,1,340.9922,341.4926,,,,,,157,MAS,WORD,DIS,150,nido,,la,,0.3388,,341.4927,341.493,0.044444444,-0.218518519,0,0,0,,0,115,115,156,1,hico,,,,
,,,,,,616f423e8893bea6dd1e7f52,676192165fb32c2e1fb7aee6,67d0cef0b4d4c1d595b2cb0e,2025-03-11_18h02.30.096,Tarea de decisión léxica,2024.2.5,Win32,59.88023952,,,,,,,,,,,,,,,,,,,,,,,341.4946,342.6269,a,0,0.4609,0,342.6282,343.1274,,,,,,336,FEM,NOWORD,AGR,150,pesta,,la,,0.4609,,343.1276,343.1277,0.044444444,-0.218518519,0,0,0,,0,116,116,335,1,costa,,,,
,,,,,,616f423e8893bea6dd1e7f52,676192165fb32c2e1fb7aee6,67d0cef0b4d4c1d595b2cb0e,2025-03-11_18h02.30.096,Tarea de decisión léxica,2024.2.5,Win32,59.88023952,,,,,,,,,,,,,,,,,,,,,,,343.1296,344.2455,l,1,0.4346,1,344.2468,344.746,,,,,,280,FEM,NOWORD,AGR,150,grina,,la,,0.4346,,344.7482,344.7506,0.044444444,-0.218518519,0,0,0,,0,117,117,279,1,prisa,,,,
,,,,,,616f423e8893bea6dd1e7f52,676192165fb32c2e1fb7aee6,67d0cef0b4d4c1d595b2cb0e,2025-03-11_18h02.30.096,Tarea de decisión léxica,2024.2.5,Win32,59.88023952,,,,,,,,,,,,,,,,,,,,,,,344.752,345.8638,l,1,0.4345,1,345.8638,346.3642,,,,,,16,FEM,NOWORD,AGR,150,odea,,la,,0.4345,,346.3643,346.3645,0.044444444,-0.218518519,0,0,0,,0,118,118,15,1,idea,,,,
,,,,,,616f423e8893bea6dd1e7f52,676192165fb32c2e1fb7aee6,67d0cef0b4d4c1d595b2cb0e,2025-03-11_18h02.30.096,Tarea de decisión léxica,2024.2.5,Win32,59.88023952,,,,,,,,,,,,,,,,,,,,,,,346.3663,347.5989,l,1,0.5574,1,347.599,348.0993,,,,,,78,MAS,NOWORD,DIS,150,fodo,,la,,0.5574,,348.0994,348.0995,0.044444444,-0.218518519,0,0,0,,0,119,119,77,1,loco,,,,
,,,,,,616f423e8893bea6dd1e7f52,676192165fb32c2e1fb7aee6,67d0cef0b4d4c1d595b2cb0e,2025-03-11_18h02.30.096,Tarea de decisión léxica,2024.2.5,Win32,59.88023952,,,,,,,,,,,,,,,,,,,,,,,348.1013,349.117,a,1,0.3353,1,349.1171,349.6175,,,,,,311,MAS,WORD,AGR,150,honor,,el,,0.3353,,349.6176,349.6179,0.044444444,-0.218518519,0,0,0,,0,120,120,310,1,nosor,,,,
,,,,,,616f423e8893bea6dd1e7f52,676192165fb32c2e1fb7aee6,67d0cef0b4d4c1d595b2cb0e,2025-03-11_18h02.30.096,Tarea de decisión léxica,2024.2.5,Win32,59.88023952,,,,,,,,,,,,,,,,,,,,,,,349.6196,350.6185,a,1,0.3213,1,350.6187,351.1189,,,,,,229,MAS,WORD,DIS,150,amor,,la,,0.3213,,351.119,351.1193,0.044444444,-0.218518519,0,0,0,,0,121,121,228,1,ador,,,,
,,,,,,616f423e8893bea6dd1e7f52,676192165fb32c2e1fb7aee6,67d0cef0b4d4c1d595b2cb0e,2025-03-11_18h02.30.096,Tarea de decisión léxica,2024.2.5,Win32,59.88023952,,,,,,,,,,,,,,,,,,,,,,,351.121,352.1709,l,1,0.3783,1,352.1711,352.6706,,,,,,306,MAS,NOWORD,DIS,150,adiol,,la,,0.3783,,352.6726,352.6756,0.044444444,-0.218518519,0,0,0,,0,122,122,305,1,avión,,,,
,,,,,,616f423e8893bea6dd1e7f52,676192165fb32c2e1fb7aee6,67d0cef0b4d4c1d595b2cb0e,2025-03-11_18h02.30.096,Tarea de decisión léxica,2024.2.5,Win32,59.88023952,,,,,,,,,,,,,,,,,,,,,,,352.6771,353.7712,l,1,0.4267,1,353.7713,354.2719,,,,,,436,MAS,NOWORD,AGR,150,ricno,,el,,0.4267,,354.272,354.2723,0.044444444,-0.218518519,0,0,0,,0,123,123,435,1,ritmo,,,,
,,,,,,616f423e8893bea6dd1e7f52,676192165fb32c2e1fb7aee6,67d0cef0b4d4c1d595b2cb0e,2025-03-11_18h02.30.096,Tarea de decisión léxica,2024.2.5,Win32,59.88023952,,,,,,,,,,,,,,,,,,,,,,,354.2742,355.3898,a,1,0.4343,1,355.39,355.8904,,,,,,9,MAS,WORD,DIS,150,tipo,,la,,0.4343,,355.8905,355.8907,0.044444444,-0.218518519,0,0,0,,0,124,124,8,1,sibo,,,,
,,,,,,616f423e8893bea6dd1e7f52,676192165fb32c2e1fb7aee6,67d0cef0b4d4c1d595b2cb0e,2025-03-11_18h02.30.096,Tarea de decisión léxica,2024.2.5,Win32,59.88023952,,,,,,,,,,,,,,,,,,,,,,,355.8923,356.9582,l,1,0.3847,1,356.9584,357.4587,,,,,,44,FEM,NOWORD,AGR,150,meda,,la,,0.3847,,357.4588,357.459,0.044444444,-0.218518519,0,0,0,,0,125,125,43,1,pena,,,,
,,,,,,616f423e8893bea6dd1e7f52,676192165fb32c2e1fb7aee6,67d0cef0b4d4c1d595b2cb0e,2025-03-11_18h02.30.096,Tarea de decisión léxica,2024.2.5,Win32,59.88023952,,,,,,,,,,,,,,,,,,,,,,,357.4609,358.6097,a,1,0.4706,1,358.6098,359.1103,,,,,,69,FEM,WORD,DIS,150,zona,,el,,0.4706,,359.1104,359.1106,0.044444444,-0.218518519,0,0,0,,0,126,126,68,1,ñola,,,,
,,,,,,616f423e8893bea6dd1e7f52,676192165fb32c2e1fb7aee6,67d0cef0b4d4c1d595b2cb0e,2025-03-11_18h02.30.096,Tarea de decisión léxica,2024.2.5,Win32,59.88023952,,,,,,,,,,,,,,,,,,,,,,,359.1122,360.111,a,1,0.3225,1,360.1111,360.6117,,,,,,341,MAS,WORD,DIS,150,valor,,la,,0.3225,,360.6137,360.6161,0.044444444,-0.218518519,0,0,0,,0,127,127,340,1,daror,,,,
,,,,,,616f423e8893bea6dd1e7f52,676192165fb32c2e1fb7aee6,67d0cef0b4d4c1d595b2cb0e,2025-03-11_18h02.30.096,Tarea de decisión léxica,2024.2.5,Win32,59.88023952,,,,,,,,,,,,,,,,,,,,,,,360.6176,361.7796,l,1,0.4867,1,361.7798,362.2802,,,,,,420,MAS,NOWORD,AGR,150,chudo,,el,,0.4867,,362.2802,362.2803,0.044444444,-0.218518519,0,0,0,,0,128,128,419,1,truco,,,,
,,,,,,616f423e8893bea6dd1e7f52,676192165fb32c2e1fb7aee6,67d0cef0b4d4c1d595b2cb0e,2025-03-11_18h02.30.096,Tarea de decisión léxica,2024.2.5,Win32,59.88023952,,,,,,,,,,,,,,,,,,,,,,,362.2821,363.3645,l,1,0.4092,1,363.3646,363.865,,,,,,252,MAS,NOWORD,AGR,150,refor,,el,,0.4092,,363.8651,363.8653,0.044444444,-0.218518519,0,0,0,,0,129,129,251,1,señor,,,,
,,,,,,616f423e8893bea6dd1e7f52,676192165fb32c2e1fb7aee6,67d0cef0b4d4c1d595b2cb0e,2025-03-11_18h02.30.096,Tarea de decisión léxica,2024.2.5,Win32,59.88023952,,,,,,,,,,,,,,,,,,,,,,,363.8669,364.8991,a,1,0.3603,1,364.8991,365.3997,,,,,,469,MAS,WORD,DIS,150,patio,,la,,0.3603,,365.3998,365.3999,0.044444444,-0.218518519,0,0,0,,0,130,130,468,1,matia,,,,
,,,,,,616f423e8893bea6dd1e7f52,676192165fb32c2e1fb7aee6,67d0cef0b4d4c1d595b2cb0e,2025-03-11_18h02.30.096,Tarea de decisión léxica,2024.2.5,Win32,59.88023952,,,,,,,,,,,,,,,,,,,,,,,365.4018,366.4842,l,1,0.4097,1,366.4844,366.9847,,,,,,228,MAS,NOWORD,AGR,150,laro,,el,,0.4097,,366.9869,366.9896,0.044444444,-0.218518519,0,0,0,,0,131,131,227,1,faro,,,,
,,,,,,616f423e8893bea6dd1e7f52,676192165fb32c2e1fb7aee6,67d0cef0b4d4c1d595b2cb0e,2025-03-11_18h02.30.096,Tarea de decisión léxica,2024.2.5,Win32,59.88023952,,,,,,,,,,,,,,,,,,,,,,,366.9911,368.0692,l,1,0.4018,1,368.0694,368.5696,,,,,,264,FEM,NOWORD,AGR,150,dosta,,la,,0.4018,,368.5697,368.5701,0.044444444,-0.218518519,0,0,0,,0,132,132,263,1,vista,,,,
,,,,,,616f423e8893bea6dd1e7f52,676192165fb32c2e1fb7aee6,67d0cef0b4d4c1d595b2cb0e,2025-03-11_18h02.30.096,Tarea de decisión léxica,2024.2.5,Win32,59.88023952,,,,,,,,,,,,,,,,,,,,,,,368.5737,369.6205,a,1,0.3757,1,369.6206,370.121,,,,,,477,MAS,WORD,DIS,150,botón,,la,,0.3757,,370.121,370.1211,0.044444444,-0.218518519,0,0,0,,0,133,133,476,1,hocon,,,,
,,,,,,616f423e8893bea6dd1e7f52,676192165fb32c2e1fb7aee6,67d0cef0b4d4c1d595b2cb0e,2025-03-11_18h02.30.096,Tarea de decisión léxica,2024.2.5,Win32,59.88023952,,,,,,,,,,,,,,,,,,,,,,,370.1222,371.1054,l,1,0.3218,1,371.1056,371.6061,,,,,,294,MAS,NOWORD,DIS,150,cacso,,la,,0.3218,,371.6061,371.6063,0.044444444,-0.218518519,0,0,0,,0,134,134,293,1,campo,,,,
,,,,,,616f423e8893bea6dd1e7f52,676192165fb32c2e1fb7aee6,67d0cef0b4d4c1d595b2cb0e,2025-03-11_18h02.30.096,Tarea de decisión léxica,2024.2.5,Win32,59.88023952,,,,,,,,,,,,,,,,,,,,,,,371.6081,372.7071,l,1,0.4208,1,372.7073,373.2076,,,,,,6,FEM,NOWORD,DIS,150,poga,,el,,0.4208,,373.2077,373.2079,0.044444444,-0.218518519,0,0,0,,0,135,135,5,1,cosa,,,,
,,,,,,616f423e8893bea6dd1e7f52,676192165fb32c2e1fb7aee6,67d0cef0b4d4c1d595b2cb0e,2025-03-11_18h02.30.096,Tarea de decisión léxica,2024.2.5,Win32,59.88023952,,,,,,,,,,,,,,,,,,,,,,,373.2096,374.3255,l,1,0.4347,1,374.3255,374.8259,,,,,,50,FEM,NOWORD,DIS,150,ecat,,el,,0.4347,,374.8282,374.8306,0.044444444,-0.218518519,0,0,0,,0,136,136,49,1,edad,,,,
,,,,,,616f423e8893bea6dd1e7f52,676192165fb32c2e1fb7aee6,67d0cef0b4d4c1d595b2cb0e,2025-03-11_18h02.30.096,Tarea de decisión léxica,2024.2.5,Win32,59.88023952,,,,,,,,,,,,,,,,,,,,,,,374.832,375.9769,l,1,0.4681,1,375.977,376.4775,,,,,,158,MAS,NOWORD,DIS,150,hico,,la,,0.4681,,376.4776,376.4779,0.044444444,-0.218518519,0,0,0,,0,137,137,157,1,nido,,,,
,,,,,,616f423e8893bea6dd1e7f52,676192165fb32c2e1fb7aee6,67d0cef0b4d4c1d595b2cb0e,2025-03-11_18h02.30.096,Tarea de decisión léxica,2024.2.5,Win32,59.88023952,,,,,,,,,,,,,,,,,,,,,,,376.4796,377.5286,a,1,0.3683,1,377.5288,378.0291,,,,,,83,FEM,WORD,AGR,150,bala,,la,,0.3683,,378.0292,378.0295,0.044444444,-0.218518519,0,0,0,,0,138,138,82,1,taga,,,,
,,,,,,616f423e8893bea6dd1e7f52,676192165fb32c2e1fb7aee6,67d0cef0b4d4c1d595b2cb0e,2025-03-11_18h02.30.096,Tarea de decisión léxica,2024.2.5,Win32,59.88023952,,,,,,,,,,,,,,,,,,,,,,,378.0312,379.247,l,1,0.5399,1,379.2471,379.7475,,,,,,152,MAS,NOWORD,AGR,150,sogo,,el,,0.5399,,379.7476,379.748,0.044444444,-0.218518519,0,0,0,,0,139,139,151,1,tomo,,,,
,,,,,,616f423e8893bea6dd1e7f52,676192165fb32c2e1fb7aee6,67d0cef0b4d4c1d595b2cb0e,2025-03-11_18h02.30.096,Tarea de decisión léxica,2024.2.5,Win32,59.88023952,,,,,,,,,,,,,,,,,,,,,,,379.7497,380.8824,l,1,0.4618,1,380.8827,381.3824,,,,,,108,MAS,NOWORD,AGR,150,raot,,el,,0.4618,,381.3825,381.3827,0.044444444,-0.218518519,0,0,0,,0,140,140,107,1,saco,,,,
,,,,,,616f423e8893bea6dd1e7f52,676192165fb32c2e1fb7aee6,67d0cef0b4d4c1d595b2cb0e,2025-03-11_18h02.30.096,Tarea de decisión léxica,2024.2.5,Win32,59.88023952,,,,,,,,,,,,,,,,,,,,,,,381.3845,382.4336,a,1,0.3727,1,382.4337,382.934,,,,,,163,FEM,WORD,AGR,150,fama,,la,,0.3727,,382.936,382.9389,0.044444444,-0.218518519,0,0,0,,0,141,141,162,1,laga,,,,
,,,,,,616f423e8893bea6dd1e7f52,676192165fb32c2e1fb7aee6,67d0cef0b4d4c1d595b2cb0e,2025-03-11_18h02.30.096,Tarea de decisión léxica,2024.2.5,Win32,59.88023952,,,,,,,,,,,,,,,,,,,,,,,382.9403,383.9517,l,1,0.3357,1,383.9519,384.4521,,,,,,76,MAS,NOWORD,AGR,150,ocer,,el,,0.3357,,384.4523,384.4524,0.044444444,-0.218518519,0,0,0,,0,142,142,75,1,olor,,,,
,,,,,,616f423e8893bea6dd1e7f52,676192165fb32c2e1fb7aee6,67d0cef0b4d4c1d595b2cb0e,2025-03-11_18h02.30.096,Tarea de decisión léxica,2024.2.5,Win32,59.88023952,,,,,,,,,,,,,,,,,,,,,,,384.4542,385.4867,a,1,0.3512,1,385.4867,385.987,,,,,,415,FEM,WORD,AGR,150,jaula,,la,,0.3512,,385.9871,385.9873,0.044444444,-0.218518519,0,0,0,,0,143,143,414,1,juira,,,,
,,,,,,616f423e8893bea6dd1e7f52,676192165fb32c2e1fb7aee6,67d0cef0b4d4c1d595b2cb0e,2025-03-11_18h02.30.096,Tarea de decisión léxica,2024.2.5,Win32,59.88023952,,,,,,,,,,,,,,,,,,,,,,,385.9891,387.0548,l,1,0.3905,1,387.0549,387.5553,,,,,,32,FEM,NOWORD,AGR,150,bova,,la,,0.3905,,387.5554,387.5556,0.044444444,-0.218518519,0,0,0,,0,144,144,31,1,ropa,,,,
,,,,,,616f423e8893bea6dd1e7f52,676192165fb32c2e1fb7aee6,67d0cef0b4d4c1d595b2cb0e,2025-03-11_18h02.30.096,Tarea de decisión léxica,2024.2.5,Win32,59.88023952,,,,,,,,,,,,,,,,,,,,,,,387.5573,388.6231,a,1,0.3901,1,388.6232,389.1236,,,,,,77,MAS,WORD,DIS,150,loco,,la,,0.3901,,389.1238,389.1239,0.044444444,-0.218518519,0,0,0,,0,145,145,76,1,fodo,,,,
,,,,,,616f423e8893bea6dd1e7f52,676192165fb32c2e1fb7aee6,67d0cef0b4d4c1d595b2cb0e,2025-03-11_18h02.30.096,Tarea de decisión léxica,2024.2.5,Win32,59.88023952,,,,,,,,,,,,,,,,,,,,,,,389.1256,390.3079,a,1,0.5112,1,390.3081,390.8085,,,,,,141,FEM,WORD,DIS,150,cruz,,el,,0.5112,,390.8107,390.8133,0.044444444,-0.218518519,0,0,0,,0,146,146,140,1,sina,,,,
,,,,,,616f423e8893bea6dd1e7f52,676192165fb32c2e1fb7aee6,67d0cef0b4d4c1d595b2cb0e,2025-03-11_18h02.30.096,Tarea de decisión léxica,2024.2.5,Win32,59.88023952,,,,,,,,,,,,,,,,,,,,,,,390.8147,391.7593,a,1,0.2727,1,391.7595,392.2599,,,,,,31,FEM,WORD,AGR,150,ropa,,la,,0.2727,,392.2599,392.2602,0.044444444,-0.218518519,0,0,0,,0,147,147,30,1,bova,,,,
,,,,,,616f423e8893bea6dd1e7f52,676192165fb32c2e1fb7aee6,67d0cef0b4d4c1d595b2cb0e,2025-03-11_18h02.30.096,Tarea de decisión léxica,2024.2.5,Win32,59.88023952,,,,,,,,,,,,,,,,,,,,,,,392.2618,393.1946,a,1,0.2612,1,393.1947,393.6944,,,,,,115,FEM,WORD,AGR,150,pata,,la,,0.2612,,393.6944,393.6945,0.044444444,-0.218518519,0,0,0,,0,148,148,114,1,haca,,,,
,,,,,,616f423e8893bea6dd1e7f52,676192165fb32c2e1fb7aee6,67d0cef0b4d4c1d595b2cb0e,2025-03-11_18h02.30.096,Tarea de decisión léxica,2024.2.5,Win32,59.88023952,,,,,,,,,,,,,,,,,,,,,,,393.6953,394.763,l,1,0.4116,1,394.7632,395.2627,,,,,,104,FEM,NOWORD,AGR,150,rova,,la,,0.4116,,395.2627,395.2628,0.044444444,-0.218518519,0,0,0,,0,149,149,103,1,ruta,,,,
,,,,,,616f423e8893bea6dd1e7f52,676192165fb32c2e1fb7aee6,67d0cef0b4d4c1d595b2cb0e,2025-03-11_18h02.30.096,Tarea de decisión léxica,2024.2.5,Win32,59.88023952,,,,,,,,,,,,,,,,,,,,,,,395.2637,396.3974,l,1,0.4751,1,396.3976,396.8977,,,,,,258,FEM,NOWORD,DIS,150,asama,,el,,0.4751,,396.8977,396.8979,0.044444444,-0.218518519,0,0,0,,0,150,150,257,1,amiga,,,,
,,,,,,616f423e8893bea6dd1e7f52,676192165fb32c2e1fb7aee6,67d0cef0b4d4c1d595b2cb0e,2025-03-11_18h02.30.096,Tarea de decisión léxica,2024.2.5,Win32,59.88023952,,,,,,,,,,,,,,,,,,,,,,,396.8988,397.8656,a,1,0.3038,1,397.8658,398.3662,,,,,,193,FEM,WORD,DIS,150,loca,,el,,0.3038,,398.3684,398.3709,0.044444444,-0.218518519,0,0,0,,0,151,151,192,1,foda,,,,
,,,,,,616f423e8893bea6dd1e7f52,676192165fb32c2e1fb7aee6,67d0cef0b4d4c1d595b2cb0e,2025-03-11_18h02.30.096,Tarea de decisión léxica,2024.2.5,Win32,59.88023952,,,,,,,,,,,,,,,,,,,,,,,398.3722,399.3837,a,1,0.3347,1,399.3839,399.8842,,,,,,451,FEM,WORD,AGR,150,fruta,,la,,0.3347,,399.8843,399.8845,0.044444444,-0.218518519,0,0,0,,0,152,152,450,1,clita,,,,
,,,,,,616f423e8893bea6dd1e7f52,676192165fb32c2e1fb7aee6,67d0cef0b4d4c1d595b2cb0e,2025-03-11_18h02.30.096,Tarea de decisión léxica,2024.2.5,Win32,59.88023952,,,,,,,,,,,,,,,,,,,,,,,399.8862,400.9353,a,1,0.369,1,400.9355,401.4358,,,,,,297,MAS,WORD,DIS,150,grupo,,la,,0.369,,401.4359,401.4361,0.044444444,-0.218518519,0,0,0,,0,153,153,296,1,brubo,,,,
,,,,,,616f423e8893bea6dd1e7f52,676192165fb32c2e1fb7aee6,67d0cef0b4d4c1d595b2cb0e,2025-03-11_18h02.30.096,Tarea de decisión léxica,2024.2.5,Win32,59.88023952,,,,,,,,,,,,,,,,,,,,,,,401.4378,402.537,l,1,0.4221,1,402.5372,403.0374,,,,,,268,MAS,NOWORD,AGR,150,figro,,el,,0.4221,,403.0375,403.0376,0.044444444,-0.218518519,0,0,0,,0,154,154,267,1,libro,,,,
,,,,,,616f423e8893bea6dd1e7f52,676192165fb32c2e1fb7aee6,67d0cef0b4d4c1d595b2cb0e,2025-03-11_18h02.30.096,Tarea de decisión léxica,2024.2.5,Win32,59.88023952,,,,,,,,,,,,,,,,,,,,,,,403.0397,404.0885,a,1,0.3723,1,404.0886,404.5891,,,,,,351,MAS,WORD,AGR,150,vuelo,,el,,0.3723,,404.5913,404.5943,0.044444444,-0.218518519,0,0,0,,0,155,155,350,1,duepo,,,,
,,,,,,616f423e8893bea6dd1e7f52,676192165fb32c2e1fb7aee6,67d0cef0b4d4c1d595b2cb0e,2025-03-11_18h02.30.096,Tarea de decisión léxica,2024.2.5,Win32,59.88023952,,,,,,,,,,,,,,,,,,,,,,,404.5957,405.6732,a,1,0.4051,1,405.6734,406.1739,,,,,,375,FEM,WORD,AGR,150,salsa,,la,,0.4051,,406.174,406.1742,0.044444444,-0.218518519,0,0,0,,0,156,156,374,1,sasna,,,,
,,,,,,616f423e8893bea6dd1e7f52,676192165fb32c2e1fb7aee6,67d0cef0b4d4c1d595b2cb0e,2025-03-11_18h02.30.096,Tarea de decisión léxica,2024.2.5,Win32,59.88023952,,,,,,,,,,,,,,,,,,,,,,,406.1758,407.1915,l,1,0.3345,1,407.1917,407.692,,,,,,74,MAS,NOWORD,DIS,150,omio,,la,,0.3345,,407.6921,407.6922,0.044444444,-0.218518519,0,0,0,,0,157,157,73,1,odio,,,,
,,,,,,616f423e8893bea6dd1e7f52,676192165fb32c2e1fb7aee6,67d0cef0b4d4c1d595b2cb0e,2025-03-11_18h02.30.096,Tarea de decisión léxica,2024.2.5,Win32,59.88023952,,,,,,,,,,,,,,,,,,,,,,,407.6939,408.6598,a,1,0.2857,1,408.6599,409.1602,,,,,,109,MAS,WORD,DIS,150,rayo,,la,,0.2857,,409.1603,409.1605,0.044444444,-0.218518519,0,0,0,,0,158,158,108,1,suno,,,,
,,,,,,616f423e8893bea6dd1e7f52,676192165fb32c2e1fb7aee6,67d0cef0b4d4c1d595b2cb0e,2025-03-11_18h02.30.096,Tarea de decisión léxica,2024.2.5,Win32,59.88023952,,,,,,,,,,,,,,,,,,,,,,,409.1623,410.2779,a,1,0.4344,1,410.2781,410.7786,,,,,,151,MAS,WORD,AGR,150,tomo,,el,,0.4344,,410.7787,410.7789,0.044444444,-0.218518519,0,0,0,,0,159,159,150,1,sogo,,,,
,,,,,,616f423e8893bea6dd1e7f52,676192165fb32c2e1fb7aee6,67d0cef0b4d4c1d595b2cb0e,2025-03-11_18h02.30.096,Tarea de decisión léxica,2024.2.5,Win32,59.88023952,,,,,,,,,,,,,,,,,,,,,,,410.7806,411.7792,a,1,0.3267,1,411.7793,412.2799,,,,,,401,MAS,WORD,DIS,150,polvo,,la,,0.3267,,412.2817,417.7689,0.044444444,-0.218518519,0,0,0,space,0,160,160,400,1,pirvo,5.464,,,
,,,,,,616f423e8893bea6dd1e7f52,676192165fb32c2e1fb7aee6,67d0cef0b4d4c1d595b2cb0e,2025-03-11_18h02.30.096,Tarea de decisión léxica,2024.2.5,Win32,59.88023952,,,,,,,,,,,,,,,,,,,,,,,417.7709,418.9364,l,1,0.4891,1,418.9366,419.4371,,,,,,142,FEM,NOWORD,DIS,150,sina,,el,,0.4891,,419.4371,419.4374,0.044444444,-0.218518519,0,0,0,,0,161,161,141,1,cruz,,,,
,,,,,,616f423e8893bea6dd1e7f52,676192165fb32c2e1fb7aee6,67d0cef0b4d4c1d595b2cb0e,2025-03-11_18h02.30.096,Tarea de decisión léxica,2024.2.5,Win32,59.88023952,,,,,,,,,,,,,,,,,,,,,,,419.4391,420.6215,l,1,0.5084,1,420.6216,421.122,,,,,,36,MAS,NOWORD,AGR,150,meno,,el,,0.5084,,421.1221,421.1223,0.044444444,-0.218518519,0,0,0,,0,162,162,35,1,pelo,,,,
,,,,,,616f423e8893bea6dd1e7f52,676192165fb32c2e1fb7aee6,67d0cef0b4d4c1d595b2cb0e,2025-03-11_18h02.30.096,Tarea de decisión léxica,2024.2.5,Win32,59.88023952,,,,,,,,,,,,,,,,,,,,,,,421.124,422.1231,a,1,0.3207,1,422.1232,422.6237,,,,,,445,MAS,WORD,DIS,150,actor,,la,,0.3207,,422.6237,422.6239,0.044444444,-0.218518519,0,0,0,,0,163,163,444,1,ascor,,,,
,,,,,,616f423e8893bea6dd1e7f52,676192165fb32c2e1fb7aee6,67d0cef0b4d4c1d595b2cb0e,2025-03-11_18h02.30.096,Tarea de decisión léxica,2024.2.5,Win32,59.88023952,,,,,,,,,,,,,,,,,,,,,,,422.6256,423.8411,a,1,0.5373,1,423.8412,424.3418,,,,,,349,MAS,WORD,DIS,150,color,,la,,0.5373,,424.3418,424.3421,0.044444444,-0.218518519,0,0,0,,0,164,164,348,1,cosir,,,,
,,,,,,616f423e8893bea6dd1e7f52,676192165fb32c2e1fb7aee6,67d0cef0b4d4c1d595b2cb0e,2025-03-11_18h02.30.096,Tarea de decisión léxica,2024.2.5,Win32,59.88023952,,,,,,,,,,,,,,,,,,,,,,,424.3442,425.3598,l,1,0.3393,1,425.3598,425.8601,,,,,,364,FEM,NOWORD,AGR,150,veida,,la,,0.3393,,425.8627,425.8657,0.044444444,-0.218518519,0,0,0,,0,165,165,363,1,deuda,,,,
,,,,,,616f423e8893bea6dd1e7f52,676192165fb32c2e1fb7aee6,67d0cef0b4d4c1d595b2cb0e,2025-03-11_18h02.30.096,Tarea de decisión léxica,2024.2.5,Win32,59.88023952,,,,,,,,,,,,,,,,,,,,,,,425.867,427.0111,a,1,0.4704,1,427.0113,427.5118,,,,,,253,MAS,WORD,DIS,150,chico,,la,,0.4704,,427.5119,427.512,0.044444444,-0.218518519,0,0,0,,0,166,166,252,1,trido,,,,
,,,,,,616f423e8893bea6dd1e7f52,676192165fb32c2e1fb7aee6,67d0cef0b4d4c1d595b2cb0e,2025-03-11_18h02.30.096,Tarea de decisión léxica,2024.2.5,Win32,59.88023952,,,,,,,,,,,,,,,,,,,,,,,427.5137,428.6628,l,0,0.4678,0,428.6641,429.1632,,,,,,239,MAS,WORD,AGR,150,mozo,,el,,0.4678,,429.1632,429.1634,0.044444444,-0.218518519,0,0,0,,0,167,167,238,1,poño,,,,
,,,,,,616f423e8893bea6dd1e7f52,676192165fb32c2e1fb7aee6,67d0cef0b4d4c1d595b2cb0e,2025-03-11_18h02.30.096,Tarea de decisión léxica,2024.2.5,Win32,59.88023952,,,,,,,,,,,,,,,,,,,,,,,429.1646,430.4648,l,1,0.6182,1,430.4661,430.9653,,,,,,216,FEM,NOWORD,AGR,150,raua,,la,,0.6182,,430.9654,430.9656,0.044444444,-0.218518519,0,0,0,,0,168,168,215,1,raíz,,,,
,,,,,,616f423e8893bea6dd1e7f52,676192165fb32c2e1fb7aee6,67d0cef0b4d4c1d595b2cb0e,2025-03-11_18h02.30.096,Tarea de decisión léxica,2024.2.5,Win32,59.88023952,,,,,,,,,,,,,,,,,,,,,,,430.9672,432.067,l,1,0.4282,1,432.0672,432.5668,,,,,,334,FEM,NOWORD,DIS,150,dalea,,el,,0.4282,,432.5669,432.5672,0.044444444,-0.218518519,0,0,0,,0,169,169,333,1,tarea,,,,
,,,,,,616f423e8893bea6dd1e7f52,676192165fb32c2e1fb7aee6,67d0cef0b4d4c1d595b2cb0e,2025-03-11_18h02.30.096,Tarea de decisión léxica,2024.2.5,Win32,59.88023952,,,,,,,,,,,,,,,,,,,,,,,432.5689,433.5512,a,1,0.3064,1,433.5514,434.0517,,,,,,61,FEM,WORD,DIS,150,obra,,el,,0.3064,,434.0539,434.0568,0.044444444,-0.218518519,0,0,0,,0,170,170,60,1,efla,,,,
,,,,,,616f423e8893bea6dd1e7f52,676192165fb32c2e1fb7aee6,67d0cef0b4d4c1d595b2cb0e,2025-03-11_18h02.30.096,Tarea de decisión léxica,2024.2.5,Win32,59.88023952,,,,,,,,,,,,,,,,,,,,,,,434.0581,435.1195,l,1,0.3845,1,435.1196,435.6199,,,,,,72,FEM,NOWORD,AGR,150,urla,,la,,0.3845,,435.6201,435.6202,0.044444444,-0.218518519,0,0,0,,0,171,171,71,1,isla,,,,
,,,,,,616f423e8893bea6dd1e7f52,676192165fb32c2e1fb7aee6,67d0cef0b4d4c1d595b2cb0e,2025-03-11_18h02.30.096,Tarea de decisión léxica,2024.2.5,Win32,59.88023952,,,,,,,,,,,,,,,,,,,,,,,435.6219,436.7711,l,1,0.4681,1,436.7712,437.2715,,,,,,146,MAS,NOWORD,DIS,150,nobo,,la,,0.4681,,437.2715,437.2717,0.044444444,-0.218518519,0,0,0,,0,172,172,145,1,león,,,,
,,,,,,616f423e8893bea6dd1e7f52,676192165fb32c2e1fb7aee6,67d0cef0b4d4c1d595b2cb0e,2025-03-11_18h02.30.096,Tarea de decisión léxica,2024.2.5,Win32,59.88023952,,,,,,,,,,,,,,,,,,,,,,,437.2735,438.2225,a,1,0.2736,1,438.2227,438.7227,,,,,,65,MAS,WORD,DIS,150,dios,,la,,0.2736,,438.7228,438.7229,0.044444444,-0.218518519,0,0,0,,0,173,173,64,1,nios,,,,
,,,,,,616f423e8893bea6dd1e7f52,676192165fb32c2e1fb7aee6,67d0cef0b4d4c1d595b2cb0e,2025-03-11_18h02.30.096,Tarea de decisión léxica,2024.2.5,Win32,59.88023952,,,,,,,,,,,,,,,,,,,,,,,438.7242,439.7572,l,1,0.3503,1,439.7573,440.2577,,,,,,22,MAS,NOWORD,DIS,150,blan,,la,,0.3503,,440.2578,440.2579,0.044444444,-0.218518519,0,0,0,,0,174,174,21,1,plan,,,,
,,,,,,616f423e8893bea6dd1e7f52,676192165fb32c2e1fb7aee6,67d0cef0b4d4c1d595b2cb0e,2025-03-11_18h02.30.096,Tarea de decisión léxica,2024.2.5,Win32,59.88023952,,,,,,,,,,,,,,,,,,,,,,,440.2605,441.409,l,1,0.4719,1,441.4091,441.9095,,,,,,90,MAS,NOWORD,DIS,150,guso,,la,,0.4719,,441.9114,441.9135,0.044444444,-0.218518519,0,0,0,,0,175,175,89,1,humo,,,,
,,,,,,616f423e8893bea6dd1e7f52,676192165fb32c2e1fb7aee6,67d0cef0b4d4c1d595b2cb0e,2025-03-11_18h02.30.096,Tarea de decisión léxica,2024.2.5,Win32,59.88023952,,,,,,,,,,,,,,,,,,,,,,,441.9154,442.9605,l,1,0.3683,1,442.9606,443.4609,,,,,,188,MAS,NOWORD,AGR,150,suto,,el,,0.3683,,443.4611,443.4612,0.044444444,-0.218518519,0,0,0,,0,176,176,187,1,mito,,,,
,,,,,,616f423e8893bea6dd1e7f52,676192165fb32c2e1fb7aee6,67d0cef0b4d4c1d595b2cb0e,2025-03-11_18h02.30.096,Tarea de decisión léxica,2024.2.5,Win32,59.88023952,,,,,,,,,,,,,,,,,,,,,,,443.4628,444.6289,a,1,0.4919,1,444.6291,445.1294,,,,,,41,FEM,WORD,DIS,150,nave,,el,,0.4919,,445.1295,445.1297,0.044444444,-0.218518519,0,0,0,,0,177,177,40,1,haje,,,,
,,,,,,616f423e8893bea6dd1e7f52,676192165fb32c2e1fb7aee6,67d0cef0b4d4c1d595b2cb0e,2025-03-11_18h02.30.096,Tarea de decisión léxica,2024.2.5,Win32,59.88023952,,,,,,,,,,,,,,,,,,,,,,,445.1314,446.5139,a,0,0.7036,0,446.5147,447.0147,,,,,,400,MAS,NOWORD,AGR,150,serro,,el,,0.7036,,447.0149,447.015,0.044444444,-0.218518519,0,0,0,,0,178,178,399,1,techo,,,,
,,,,,,616f423e8893bea6dd1e7f52,676192165fb32c2e1fb7aee6,67d0cef0b4d4c1d595b2cb0e,2025-03-11_18h02.30.096,Tarea de decisión léxica,2024.2.5,Win32,59.88023952,,,,,,,,,,,,,,,,,,,,,,,447.0167,448.2491,l,1,0.556,1,448.2503,448.7495,,,,,,316,FEM,NOWORD,AGR,150,riosa,,la,,0.556,,448.7517,448.7547,0.044444444,-0.218518519,0,0,0,,0,179,179,315,1,reina,,,,
,,,,,,616f423e8893bea6dd1e7f52,676192165fb32c2e1fb7aee6,67d0cef0b4d4c1d595b2cb0e,2025-03-11_18h02.30.096,Tarea de decisión léxica,2024.2.5,Win32,59.88023952,,,,,,,,,,,,,,,,,,,,,,,448.7561,449.7006,a,1,0.2699,1,449.7008,450.201,,,,,,85,MAS,WORD,DIS,150,lago,,la,,0.2699,,450.201,450.2011,0.044444444,-0.218518519,0,0,0,,0,180,180,84,1,babo,,,,
,,,,,,616f423e8893bea6dd1e7f52,676192165fb32c2e1fb7aee6,67d0cef0b4d4c1d595b2cb0e,2025-03-11_18h02.30.096,Tarea de decisión léxica,2024.2.5,Win32,59.88023952,,,,,,,,,,,,,,,,,,,,,,,450.2023,451.2029,a,1,0.3298,1,451.2029,451.7026,,,,,,259,MAS,WORD,AGR,150,juego,,el,,0.3298,,451.7027,451.7029,0.044444444,-0.218518519,0,0,0,,0,181,181,258,1,jaumo,,,,
,,,,,,616f423e8893bea6dd1e7f52,676192165fb32c2e1fb7aee6,67d0cef0b4d4c1d595b2cb0e,2025-03-11_18h02.30.096,Tarea de decisión léxica,2024.2.5,Win32,59.88023952,,,,,,,,,,,,,,,,,,,,,,,451.7046,452.7865,l,1,0.41,1,452.7866,453.2875,,,,,,446,MAS,NOWORD,DIS,150,ascor,,la,,0.41,,453.2876,453.2878,0.044444444,-0.218518519,0,0,0,,0,182,182,445,1,actor,,,,
,,,,,,616f423e8893bea6dd1e7f52,676192165fb32c2e1fb7aee6,67d0cef0b4d4c1d595b2cb0e,2025-03-11_18h02.30.096,Tarea de decisión léxica,2024.2.5,Win32,59.88023952,,,,,,,,,,,,,,,,,,,,,,,453.2896,454.3386,l,1,0.3678,1,454.3388,454.8392,,,,,,186,MAS,NOWORD,DIS,150,raol,,la,,0.3678,,454.8393,454.8396,0.044444444,-0.218518519,0,0,0,,0,183,183,185,1,baúl,,,,
,,,,,,616f423e8893bea6dd1e7f52,676192165fb32c2e1fb7aee6,67d0cef0b4d4c1d595b2cb0e,2025-03-11_18h02.30.096,Tarea de decisión léxica,2024.2.5,Win32,59.88023952,,,,,,,,,,,,,,,,,,,,,,,454.8413,455.8568,a,1,0.3375,1,455.8569,456.3572,,,,,,307,MAS,WORD,AGR,150,hotel,,el,,0.3375,,456.3593,456.3618,0.044444444,-0.218518519,0,0,0,,0,184,184,306,1,holol,,,,
,,,,,,616f423e8893bea6dd1e7f52,676192165fb32c2e1fb7aee6,67d0cef0b4d4c1d595b2cb0e,2025-03-11_18h02.30.096,Tarea de decisión léxica,2024.2.5,Win32,59.88023952,,,,,,,,,,,,,,,,,,,,,,,456.3632,457.5415,a,1,0.508,1,457.5418,458.0422,,,,,,187,MAS,WORD,AGR,150,mito,,el,,0.508,,458.0423,458.0425,0.044444444,-0.218518519,0,0,0,,0,185,185,186,1,suto,,,,
,,,,,,616f423e8893bea6dd1e7f52,676192165fb32c2e1fb7aee6,67d0cef0b4d4c1d595b2cb0e,2025-03-11_18h02.30.096,Tarea de decisión léxica,2024.2.5,Win32,59.88023952,,,,,,,,,,,,,,,,,,,,,,,458.0443,459.11,a,1,0.3912,1,459.1102,459.6101,,,,,,53,FEM,WORD,DIS,150,boda,,el,,0.3912,,459.6102,459.6102,0.044444444,-0.218518519,0,0,0,,0,186,186,52,1,rora,,,,
,,,,,,616f423e8893bea6dd1e7f52,676192165fb32c2e1fb7aee6,67d0cef0b4d4c1d595b2cb0e,2025-03-11_18h02.30.096,Tarea de decisión léxica,2024.2.5,Win32,59.88023952,,,,,,,,,,,,,,,,,,,,,,,459.6112,460.5788,a,1,0.3121,1,460.5789,461.0787,,,,,,57,MAS,WORD,DIS,150,dedo,,la,,0.3121,,461.0788,461.079,0.044444444,-0.218518519,0,0,0,,0,187,187,56,1,heco,,,,
,,,,,,616f423e8893bea6dd1e7f52,676192165fb32c2e1fb7aee6,67d0cef0b4d4c1d595b2cb0e,2025-03-11_18h02.30.096,Tarea de decisión léxica,2024.2.5,Win32,59.88023952,,,,,,,,,,,,,,,,,,,,,,,461.081,462.113,a,1,0.3551,1,462.1131,462.6134,,,,,,105,FEM,WORD,DIS,150,sopa,,el,,0.3551,,462.6135,462.6137,0.044444444,-0.218518519,0,0,0,,0,188,188,104,1,vina,,,,
,,,,,,616f423e8893bea6dd1e7f52,676192165fb32c2e1fb7aee6,67d0cef0b4d4c1d595b2cb0e,2025-03-11_18h02.30.096,Tarea de decisión léxica,2024.2.5,Win32,59.88023952,,,,,,,,,,,,,,,,,,,,,,,462.6166,463.681,a,1,0.3885,1,463.6812,464.1817,,,,,,223,FEM,WORD,AGR,150,cera,,la,,0.3885,,464.1838,464.1862,0.044444444,-0.218518519,0,0,0,,0,189,189,222,1,cira,,,,
,,,,,,616f423e8893bea6dd1e7f52,676192165fb32c2e1fb7aee6,67d0cef0b4d4c1d595b2cb0e,2025-03-11_18h02.30.096,Tarea de decisión léxica,2024.2.5,Win32,59.88023952,,,,,,,,,,,,,,,,,,,,,,,464.1877,465.283,a,1,0.4278,1,465.2832,465.7833,,,,,,107,MAS,WORD,AGR,150,saco,,el,,0.4278,,465.7834,465.7837,0.044444444,-0.218518519,0,0,0,,0,190,190,106,1,raot,,,,
,,,,,,616f423e8893bea6dd1e7f52,676192165fb32c2e1fb7aee6,67d0cef0b4d4c1d595b2cb0e,2025-03-11_18h02.30.096,Tarea de decisión léxica,2024.2.5,Win32,59.88023952,,,,,,,,,,,,,,,,,,,,,,,465.7855,466.901,l,1,0.4394,1,466.9011,467.4015,,,,,,474,FEM,NOWORD,DIS,150,felia,,el,,0.4394,,467.4016,467.4018,0.044444444,-0.218518519,0,0,0,,0,191,191,473,1,feria,,,,
,,,,,,616f423e8893bea6dd1e7f52,676192165fb32c2e1fb7aee6,67d0cef0b4d4c1d595b2cb0e,2025-03-11_18h02.30.096,Tarea de decisión léxica,2024.2.5,Win32,59.88023952,,,,,,,,,,,,,,,,,,,,,,,467.4035,468.5359,l,1,0.455,1,468.5359,469.0366,,,,,,296,MAS,NOWORD,AGR,150,goler,,el,,0.455,,469.0367,469.0368,0.044444444,-0.218518519,0,0,0,,0,192,192,295,1,dolor,,,,
,,,,,,616f423e8893bea6dd1e7f52,676192165fb32c2e1fb7aee6,67d0cef0b4d4c1d595b2cb0e,2025-03-11_18h02.30.096,Tarea de decisión léxica,2024.2.5,Win32,59.88023952,,,,,,,,,,,,,,,,,,,,,,,469.0386,470.1044,a,1,0.385,1,470.1045,470.6048,,,,,,433,MAS,WORD,DIS,150,disco,,la,,0.385,,470.6049,470.6053,0.044444444,-0.218518519,0,0,0,,0,193,193,432,1,durco,,,,
,,,,,,616f423e8893bea6dd1e7f52,676192165fb32c2e1fb7aee6,67d0cef0b4d4c1d595b2cb0e,2025-03-11_18h02.30.096,Tarea de decisión léxica,2024.2.5,Win32,59.88023952,,,,,,,,,,,,,,,,,,,,,,,470.6071,471.7392,l,1,0.4604,1,471.7394,472.2398,,,,,,242,MAS,NOWORD,DIS,150,mirdo,,la,,0.4604,,472.2421,472.2444,0.044444444,-0.218518519,0,0,0,,0,194,194,241,1,mundo,,,,
,,,,,,616f423e8893bea6dd1e7f52,676192165fb32c2e1fb7aee6,67d0cef0b4d4c1d595b2cb0e,2025-03-11_18h02.30.096,Tarea de decisión léxica,2024.2.5,Win32,59.88023952,,,,,,,,,,,,,,,,,,,,,,,472.2458,473.4076,l,1,0.4845,1,473.4077,473.9081,,,,,,320,MAS,NOWORD,AGR,150,tuero,,el,,0.4845,,473.9083,473.9084,0.044444444,-0.218518519,0,0,0,,0,195,195,319,1,suelo,,,,
,,,,,,616f423e8893bea6dd1e7f52,676192165fb32c2e1fb7aee6,67d0cef0b4d4c1d595b2cb0e,2025-03-11_18h02.30.096,Tarea de decisión léxica,2024.2.5,Win32,59.88023952,,,,,,,,,,,,,,,,,,,,,,,473.9105,475.0426,l,1,0.4545,1,475.0428,475.5431,,,,,,260,MAS,NOWORD,AGR,150,jaumo,,el,,0.4545,,475.5431,475.5432,0.044444444,-0.218518519,0,0,0,,0,196,196,259,1,juego,,,,
,,,,,,616f423e8893bea6dd1e7f52,676192165fb32c2e1fb7aee6,67d0cef0b4d4c1d595b2cb0e,2025-03-11_18h02.30.096,Tarea de decisión léxica,2024.2.5,Win32,59.88023952,,,,,,,,,,,,,,,,,,,,,,,475.545,476.544,l,0,0.3185,0,476.5453,477.0445,,,,,,121,MAS,WORD,DIS,150,hoyo,,la,,0.3185,,477.0446,477.0449,0.044444444,-0.218518519,0,0,0,,0,197,197,120,1,bomo,,,,
,,,,,,616f423e8893bea6dd1e7f52,676192165fb32c2e1fb7aee6,67d0cef0b4d4c1d595b2cb0e,2025-03-11_18h02.30.096,Tarea de decisión léxica,2024.2.5,Win32,59.88023952,,,,,,,,,,,,,,,,,,,,,,,477.0466,478.2457,l,1,0.5182,1,478.2471,478.7462,,,,,,202,FEM,NOWORD,DIS,150,cusa,,el,,0.5182,,478.7463,478.7466,0.044444444,-0.218518519,0,0,0,,0,198,198,201,1,cuna,,,,
,,,,,,616f423e8893bea6dd1e7f52,676192165fb32c2e1fb7aee6,67d0cef0b4d4c1d595b2cb0e,2025-03-11_18h02.30.096,Tarea de decisión léxica,2024.2.5,Win32,59.88023952,,,,,,,,,,,,,,,,,,,,,,,478.7486,479.714,a,1,0.2882,1,479.7141,480.2144,,,,,,403,FEM,WORD,AGR,150,prima,,la,,0.2882,,480.2162,480.2182,0.044444444,-0.218518519,0,0,0,,0,199,199,402,1,grisa,,,,
,,,,,,616f423e8893bea6dd1e7f52,676192165fb32c2e1fb7aee6,67d0cef0b4d4c1d595b2cb0e,2025-03-11_18h02.30.096,Tarea de decisión léxica,2024.2.5,Win32,59.88023952,,,,,,,,,,,,,,,,,,,,,,,480.2201,481.2828,l,1,0.395,1,481.283,481.7826,,,,,,38,MAS,NOWORD,DIS,150,gaco,,la,,0.395,,481.7827,481.7829,0.044444444,-0.218518519,0,0,0,,0,200,200,37,1,rato,,,,
,,,,,,616f423e8893bea6dd1e7f52,676192165fb32c2e1fb7aee6,67d0cef0b4d4c1d595b2cb0e,2025-03-11_18h02.30.096,Tarea de decisión léxica,2024.2.5,Win32,59.88023952,,,,,,,,,,,,,,,,,,,,,,,481.7849,482.7836,l,1,0.3178,1,482.7838,483.2843,,,,,,190,MAS,NOWORD,DIS,150,muvo,,la,,0.3178,,483.2843,483.2845,0.044444444,-0.218518519,0,0,0,,0,201,201,189,1,puño,,,,
,,,,,,616f423e8893bea6dd1e7f52,676192165fb32c2e1fb7aee6,67d0cef0b4d4c1d595b2cb0e,2025-03-11_18h02.30.096,Tarea de decisión léxica,2024.2.5,Win32,59.88023952,,,,,,,,,,,,,,,,,,,,,,,483.2863,484.2349,a,1,0.2768,1,484.235,484.7355,,,,,,283,MAS,WORD,AGR,150,sueño,,el,,0.2768,,484.7356,484.7358,0.044444444,-0.218518519,0,0,0,,0,202,202,282,1,tuevo,,,,
,,,,,,616f423e8893bea6dd1e7f52,676192165fb32c2e1fb7aee6,67d0cef0b4d4c1d595b2cb0e,2025-03-11_18h02.30.096,Tarea de decisión léxica,2024.2.5,Win32,59.88023952,,,,,,,,,,,,,,,,,,,,,,,484.7374,485.7199,a,1,0.3055,1,485.7201,486.2204,,,,,,277,MAS,WORD,DIS,150,fuego,,la,,0.3055,,486.2227,486.225,0.044444444,-0.218518519,0,0,0,,0,203,203,276,1,vuemo,,,,
,,,,,,616f423e8893bea6dd1e7f52,676192165fb32c2e1fb7aee6,67d0cef0b4d4c1d595b2cb0e,2025-03-11_18h02.30.096,Tarea de decisión léxica,2024.2.5,Win32,59.88023952,,,,,,,,,,,,,,,,,,,,,,,486.2264,487.2044,l,1,0.3015,1,487.2047,487.7051,,,,,,168,FEM,NOWORD,AGR,150,zifa,,la,,0.3015,,487.7051,487.7053,0.044444444,-0.218518519,0,0,0,,0,204,204,167,1,jefa,,,,
,,,,,,616f423e8893bea6dd1e7f52,676192165fb32c2e1fb7aee6,67d0cef0b4d4c1d595b2cb0e,2025-03-11_18h02.30.096,Tarea de decisión léxica,2024.2.5,Win32,59.88023952,,,,,,,,,,,,,,,,,,,,,,,487.7068,488.823,l,1,0.44,1,488.8232,489.3236,,,,,,88,MAS,NOWORD,AGR,150,damo,,el,,0.44,,489.3237,489.3239,0.044444444,-0.218518519,0,0,0,,0,205,205,87,1,vaso,,,,
,,,,,,616f423e8893bea6dd1e7f52,676192165fb32c2e1fb7aee6,67d0cef0b4d4c1d595b2cb0e,2025-03-11_18h02.30.096,Tarea de decisión léxica,2024.2.5,Win32,59.88023952,,,,,,,,,,,,,,,,,,,,,,,489.3255,490.3245,a,1,0.3187,1,490.3246,490.825,,,,,,71,FEM,WORD,AGR,150,isla,,la,,0.3187,,490.8251,490.8253,0.044444444,-0.218518519,0,0,0,,0,206,206,70,1,urla,,,,
,,,,,,616f423e8893bea6dd1e7f52,676192165fb32c2e1fb7aee6,67d0cef0b4d4c1d595b2cb0e,2025-03-11_18h02.30.096,Tarea de decisión léxica,2024.2.5,Win32,59.88023952,,,,,,,,,,,,,,,,,,,,,,,490.827,491.9929,l,1,0.4875,1,491.9931,492.4934,,,,,,418,FEM,NOWORD,DIS,150,banja,,el,,0.4875,,492.4935,492.4936,0.044444444,-0.218518519,0,0,0,,0,207,207,417,1,barba,,,,
,,,,,,616f423e8893bea6dd1e7f52,676192165fb32c2e1fb7aee6,67d0cef0b4d4c1d595b2cb0e,2025-03-11_18h02.30.096,Tarea de decisión léxica,2024.2.5,Win32,59.88023952,,,,,,,,,,,,,,,,,,,,,,,492.4954,493.4608,a,1,0.2849,1,493.4609,493.9612,,,,,,345,FEM,WORD,DIS,150,arena,,el,,0.2849,,493.9636,493.9664,0.044444444,-0.218518519,0,0,0,,0,208,208,344,1,anera,,,,
,,,,,,616f423e8893bea6dd1e7f52,676192165fb32c2e1fb7aee6,67d0cef0b4d4c1d595b2cb0e,2025-03-11_18h02.30.096,Tarea de decisión léxica,2024.2.5,Win32,59.88023952,,,,,,,,,,,,,,,,,,,,,,,493.9678,495.0292,l,1,0.3844,1,495.0293,495.5297,,,,,,304,MAS,NOWORD,AGR,150,lanco,,el,,0.3844,,495.5298,495.53,0.044444444,-0.218518519,0,0,0,,0,209,209,303,1,barco,,,,
,,,,,,616f423e8893bea6dd1e7f52,676192165fb32c2e1fb7aee6,67d0cef0b4d4c1d595b2cb0e,2025-03-11_18h02.30.096,Tarea de decisión léxica,2024.2.5,Win32,59.88023952,,,,,,,,,,,,,,,,,,,,,,,495.5316,496.4971,a,1,0.284,1,496.4971,496.9979,,,,,,45,FEM,WORD,DIS,150,mesa,,el,,0.284,,496.9979,496.9981,0.044444444,-0.218518519,0,0,0,,0,210,210,44,1,pema,,,,
,,,,,,616f423e8893bea6dd1e7f52,676192165fb32c2e1fb7aee6,67d0cef0b4d4c1d595b2cb0e,2025-03-11_18h02.30.096,Tarea de decisión léxica,2024.2.5,Win32,59.88023952,,,,,,,,,,,,,,,,,,,,,,,496.9998,498.0156,l,1,0.3345,1,498.0158,498.5161,,,,,,308,MAS,NOWORD,AGR,150,holol,,el,,0.3345,,498.5161,498.5164,0.044444444,-0.218518519,0,0,0,,0,211,211,307,1,hotel,,,,
,,,,,,616f423e8893bea6dd1e7f52,676192165fb32c2e1fb7aee6,67d0cef0b4d4c1d595b2cb0e,2025-03-11_18h02.30.096,Tarea de decisión léxica,2024.2.5,Win32,59.88023952,,,,,,,,,,,,,,,,,,,,,,,498.518,499.5837,a,0,0.3858,0,499.585,500.0843,,,,,,162,MAS,NOWORD,DIS,150,bopo,,la,,0.3858,,500.0844,500.0846,0.044444444,-0.218518519,0,0,0,,0,212,212,161,1,coro,,,,
,,,,,,616f423e8893bea6dd1e7f52,676192165fb32c2e1fb7aee6,67d0cef0b4d4c1d595b2cb0e,2025-03-11_18h02.30.096,Tarea de decisión léxica,2024.2.5,Win32,59.88023952,,,,,,,,,,,,,,,,,,,,,,,500.0863,501.1519,l,1,0.3891,1,501.1531,501.6523,,,,,,210,MAS,NOWORD,DIS,150,dero,,la,,0.3891,,501.6544,501.6568,0.044444444,-0.218518519,0,0,0,,0,213,213,209,1,velo,,,,
,,,,,,616f423e8893bea6dd1e7f52,676192165fb32c2e1fb7aee6,67d0cef0b4d4c1d595b2cb0e,2025-03-11_18h02.30.096,Tarea de decisión léxica,2024.2.5,Win32,59.88023952,,,,,,,,,,,,,,,,,,,,,,,501.6583,502.6702,a,1,0.3348,1,502.6703,503.1707,,,,,,201,FEM,WORD,DIS,150,cuna,,el,,0.3348,,503.1708,503.171,0.044444444,-0.218518519,0,0,0,,0,214,214,200,1,cusa,,,,
,,,,,,616f423e8893bea6dd1e7f52,676192165fb32c2e1fb7aee6,67d0cef0b4d4c1d595b2cb0e,2025-03-11_18h02.30.096,Tarea de decisión léxica,2024.2.5,Win32,59.88023952,,,,,,,,,,,,,,,,,,,,,,,503.1726,504.2716,a,1,0.418,1,504.2718,504.7722,,,,,,179,MAS,WORD,AGR,150,toro,,el,,0.418,,504.7723,504.7726,0.044444444,-0.218518519,0,0,0,,0,215,215,178,1,sono,,,,
,,,,,,616f423e8893bea6dd1e7f52,676192165fb32c2e1fb7aee6,67d0cef0b4d4c1d595b2cb0e,2025-03-11_18h02.30.096,Tarea de decisión léxica,2024.2.5,Win32,59.88023952,,,,,,,,,,,,,,,,,,,,,,,504.7743,505.8233,a,0,0.3728,0,505.8246,506.3238,,,,,,226,MAS,NOWORD,DIS,150,boco,,la,,0.3728,,506.3239,506.324,0.044444444,-0.218518519,0,0,0,,0,216,216,225,1,lodo,,,,
,,,,,,616f423e8893bea6dd1e7f52,676192165fb32c2e1fb7aee6,67d0cef0b4d4c1d595b2cb0e,2025-03-11_18h02.30.096,Tarea de decisión léxica,2024.2.5,Win32,59.88023952,,,,,,,,,,,,,,,,,,,,,,,506.326,507.4083,l,1,0.4053,1,507.4096,507.9087,,,,,,314,MAS,NOWORD,DIS,150,govio,,la,,0.4053,,507.9088,507.9091,0.044444444,-0.218518519,0,0,0,,0,217,217,313,1,novio,,,,
,,,,,,616f423e8893bea6dd1e7f52,676192165fb32c2e1fb7aee6,67d0cef0b4d4c1d595b2cb0e,2025-03-11_18h02.30.096,Tarea de decisión léxica,2024.2.5,Win32,59.88023952,,,,,,,,,,,,,,,,,,,,,,,507.9111,508.9931,l,1,0.4016,1,508.9932,509.4936,,,,,,236,FEM,NOWORD,AGR,150,tria,,la,,0.4016,,509.4956,509.4978,0.044444444,-0.218518519,0,0,0,,0,218,218,235,1,grúa,,,,
,,,,,,616f423e8893bea6dd1e7f52,676192165fb32c2e1fb7aee6,67d0cef0b4d4c1d595b2cb0e,2025-03-11_18h02.30.096,Tarea de decisión léxica,2024.2.5,Win32,59.88023952,,,,,,,,,,,,,,,,,,,,,,,509.4995,510.5948,l,1,0.4277,1,510.595,511.0951,,,,,,178,MAS,NOWORD,DIS,150,bito,,la,,0.4277,,511.0952,511.0956,0.044444444,-0.218518519,0,0,0,,0,219,219,177,1,reto,,,,
,,,,,,616f423e8893bea6dd1e7f52,676192165fb32c2e1fb7aee6,67d0cef0b4d4c1d595b2cb0e,2025-03-11_18h02.30.096,Tarea de decisión léxica,2024.2.5,Win32,59.88023952,,,,,,,,,,,,,,,,,,,,,,,511.0978,512.1296,a,1,0.3549,1,512.1298,512.63,,,,,,139,MAS,WORD,AGR,150,mago,,el,,0.3549,,512.6301,512.6303,0.044444444,-0.218518519,0,0,0,,0,220,220,138,1,nila,,,,
,,,,,,616f423e8893bea6dd1e7f52,676192165fb32c2e1fb7aee6,67d0cef0b4d4c1d595b2cb0e,2025-03-11_18h02.30.096,Tarea de decisión léxica,2024.2.5,Win32,59.88023952,,,,,,,,,,,,,,,,,,,,,,,512.632,514.1649,l,1,0.8518,1,514.165,514.6653,,,,,,302,FEM,NOWORD,DIS,150,ranga,,el,,0.8518,,514.6655,514.6657,0.044444444,-0.218518519,0,0,0,,0,221,221,301,1,banda,,,,
,,,,,,616f423e8893bea6dd1e7f52,676192165fb32c2e1fb7aee6,67d0cef0b4d4c1d595b2cb0e,2025-03-11_18h02.30.096,Tarea de decisión léxica,2024.2.5,Win32,59.88023952,,,,,,,,,,,,,,,,,,,,,,,514.6673,515.85,l,1,0.5053,1,515.8502,516.3505,,,,,,116,FEM,NOWORD,AGR,150,haca,,la,,0.5053,,516.3506,516.3508,0.044444444,-0.218518519,0,0,0,,0,222,222,115,1,pata,,,,
,,,,,,616f423e8893bea6dd1e7f52,676192165fb32c2e1fb7aee6,67d0cef0b4d4c1d595b2cb0e,2025-03-11_18h02.30.096,Tarea de decisión léxica,2024.2.5,Win32,59.88023952,,,,,,,,,,,,,,,,,,,,,,,516.3524,517.3849,a,1,0.3558,1,517.385,517.8853,,,,,,133,FEM,WORD,DIS,150,vaca,,el,,0.3558,,517.8873,517.89,0.044444444,-0.218518519,0,0,0,,0,223,223,132,1,vesa,,,,
,,,,,,616f423e8893bea6dd1e7f52,676192165fb32c2e1fb7aee6,67d0cef0b4d4c1d595b2cb0e,2025-03-11_18h02.30.096,Tarea de decisión léxica,2024.2.5,Win32,59.88023952,,,,,,,,,,,,,,,,,,,,,,,517.8915,518.9863,a,1,0.4219,1,518.9865,519.487,,,,,,299,FEM,WORD,AGR,150,bolsa,,la,,0.4219,,519.4871,519.4872,0.044444444,-0.218518519,0,0,0,,0,224,224,298,1,bosga,,,,
,,,,,,616f423e8893bea6dd1e7f52,676192165fb32c2e1fb7aee6,67d0cef0b4d4c1d595b2cb0e,2025-03-11_18h02.30.096,Tarea de decisión léxica,2024.2.5,Win32,59.88023952,,,,,,,,,,,,,,,,,,,,,,,519.489,520.4712,l,1,0.3075,1,520.4713,520.9715,,,,,,458,MAS,NOWORD,DIS,150,glaco,,la,,0.3075,,520.9716,520.9717,0.044444444,-0.218518519,0,0,0,,0,225,225,457,1,plato,,,,
,,,,,,616f423e8893bea6dd1e7f52,676192165fb32c2e1fb7aee6,67d0cef0b4d4c1d595b2cb0e,2025-03-11_18h02.30.096,Tarea de decisión léxica,2024.2.5,Win32,59.88023952,,,,,,,,,,,,,,,,,,,,,,,520.973,521.9561,a,1,0.3103,1,521.9562,522.4566,,,,,,279,FEM,WORD,AGR,150,prisa,,la,,0.3103,,522.4566,522.4568,0.044444444,-0.218518519,0,0,0,,0,226,226,278,1,grina,,,,
,,,,,,616f423e8893bea6dd1e7f52,676192165fb32c2e1fb7aee6,67d0cef0b4d4c1d595b2cb0e,2025-03-11_18h02.30.096,Tarea de decisión léxica,2024.2.5,Win32,59.88023952,,,,,,,,,,,,,,,,,,,,,,,522.4585,523.6578,a,1,0.5206,1,523.658,524.1584,,,,,,49,FEM,WORD,DIS,150,edad,,el,,0.5206,,524.1607,524.1635,0.044444444,-0.218518519,0,0,0,,0,227,227,48,1,ecat,,,,
,,,,,,616f423e8893bea6dd1e7f52,676192165fb32c2e1fb7aee6,67d0cef0b4d4c1d595b2cb0e,2025-03-11_18h02.30.096,Tarea de decisión léxica,2024.2.5,Win32,59.88023952,,,,,,,,,,,,,,,,,,,,,,,524.1649,525.3094,a,1,0.4755,1,525.3095,525.81,,,,,,3,FEM,WORD,AGR,150,vida,,la,,0.4755,,525.8102,525.8105,0.044444444,-0.218518519,0,0,0,,0,228,228,2,1,dica,,,,
,,,,,,616f423e8893bea6dd1e7f52,676192165fb32c2e1fb7aee6,67d0cef0b4d4c1d595b2cb0e,2025-03-11_18h02.30.096,Tarea de decisión léxica,2024.2.5,Win32,59.88023952,,,,,,,,,,,,,,,,,,,,,,,525.8122,526.9276,l,1,0.4393,1,526.9278,527.4282,,,,,,270,MAS,NOWORD,DIS,150,mello,,la,,0.4393,,527.4282,527.4285,0.044444444,-0.218518519,0,0,0,,0,229,229,269,1,perro,,,,
,,,,,,616f423e8893bea6dd1e7f52,676192165fb32c2e1fb7aee6,67d0cef0b4d4c1d595b2cb0e,2025-03-11_18h02.30.096,Tarea de decisión léxica,2024.2.5,Win32,59.88023952,,,,,,,,,,,,,,,,,,,,,,,527.4302,528.5126,a,1,0.4014,1,528.5127,529.0131,,,,,,5,FEM,WORD,DIS,150,cosa,,el,,0.4014,,529.0133,529.0134,0.044444444,-0.218518519,0,0,0,,0,230,230,4,1,poga,,,,
,,,,,,616f423e8893bea6dd1e7f52,676192165fb32c2e1fb7aee6,67d0cef0b4d4c1d595b2cb0e,2025-03-11_18h02.30.096,Tarea de decisión léxica,2024.2.5,Win32,59.88023952,,,,,,,,,,,,,,,,,,,,,,,529.0152,530.1977,a,1,0.5015,1,530.1978,530.6981,,,,,,463,FEM,WORD,AGR,150,cabra,,la,,0.5015,,530.6982,530.6985,0.044444444,-0.218518519,0,0,0,,0,231,231,462,1,matla,,,,
,,,,,,616f423e8893bea6dd1e7f52,676192165fb32c2e1fb7aee6,67d0cef0b4d4c1d595b2cb0e,2025-03-11_18h02.30.096,Tarea de decisión léxica,2024.2.5,Win32,59.88023952,,,,,,,,,,,,,,,,,,,,,,,530.7001,531.7825,l,1,0.407,1,531.7827,532.283,,,,,,194,FEM,NOWORD,DIS,150,foda,,el,,0.407,,532.2851,532.2874,0.044444444,-0.218518519,0,0,0,,0,232,232,193,1,loca,,,,
,,,,,,616f423e8893bea6dd1e7f52,676192165fb32c2e1fb7aee6,67d0cef0b4d4c1d595b2cb0e,2025-03-11_18h02.30.096,Tarea de decisión léxica,2024.2.5,Win32,59.88023952,,,,,,,,,,,,,,,,,,,,,,,532.2891,533.4008,l,1,0.4351,1,533.4009,533.9012,,,,,,256,MAS,NOWORD,AGR,150,mauco,,el,,0.4351,,533.9013,533.9015,0.044444444,-0.218518519,0,0,0,,0,233,233,255,1,miedo,,,,
,,,,,,616f423e8893bea6dd1e7f52,676192165fb32c2e1fb7aee6,67d0cef0b4d4c1d595b2cb0e,2025-03-11_18h02.30.096,Tarea de decisión léxica,2024.2.5,Win32,59.88023952,,,,,,,,,,,,,,,,,,,,,,,533.9031,535.0188,a,1,0.4441,1,535.0189,535.5196,,,,,,221,FEM,WORD,DIS,150,mula,,el,,0.4441,,535.5196,535.5199,0.044444444,-0.218518519,0,0,0,,0,234,234,220,1,puca,,,,
,,,,,,616f423e8893bea6dd1e7f52,676192165fb32c2e1fb7aee6,67d0cef0b4d4c1d595b2cb0e,2025-03-11_18h02.30.096,Tarea de decisión léxica,2024.2.5,Win32,59.88023952,,,,,,,,,,,,,,,,,,,,,,,535.5217,536.5373,a,1,0.3381,1,536.5375,537.0378,,,,,,173,FEM,WORD,DIS,150,rosa,,el,,0.3381,,537.0379,537.0381,0.044444444,-0.218518519,0,0,0,,0,235,235,172,1,boma,,,,
,,,,,,616f423e8893bea6dd1e7f52,676192165fb32c2e1fb7aee6,67d0cef0b4d4c1d595b2cb0e,2025-03-11_18h02.30.096,Tarea de decisión léxica,2024.2.5,Win32,59.88023952,,,,,,,,,,,,,,,,,,,,,,,537.0398,538.239,a,1,0.5182,1,538.2391,538.7396,,,,,,265,FEM,WORD,DIS,150,mitad,,el,,0.5182,,538.7396,538.7398,0.044444444,-0.218518519,0,0,0,,0,236,236,264,1,pitat,,,,
,,,,,,616f423e8893bea6dd1e7f52,676192165fb32c2e1fb7aee6,67d0cef0b4d4c1d595b2cb0e,2025-03-11_18h02.30.096,Tarea de decisión léxica,2024.2.5,Win32,59.88023952,,,,,,,,,,,,,,,,,,,,,,,538.7415,539.8405,a,1,0.4187,1,539.8407,540.341,,,,,,161,MAS,WORD,DIS,150,coro,,la,,0.4187,,540.3428,540.3449,0.044444444,-0.218518519,0,0,0,,0,237,237,160,1,bopo,,,,
,,,,,,616f423e8893bea6dd1e7f52,676192165fb32c2e1fb7aee6,67d0cef0b4d4c1d595b2cb0e,2025-03-11_18h02.30.096,Tarea de decisión léxica,2024.2.5,Win32,59.88023952,,,,,,,,,,,,,,,,,,,,,,,540.3468,541.3754,l,1,0.3512,1,541.3756,541.8759,,,,,,128,MAS,NOWORD,AGR,150,itio,,el,,0.3512,,541.876,541.8762,0.044444444,-0.218518519,0,0,0,,0,238,238,127,1,pico,,,,
,,,,,,616f423e8893bea6dd1e7f52,676192165fb32c2e1fb7aee6,67d0cef0b4d4c1d595b2cb0e,2025-03-11_18h02.30.096,Tarea de decisión léxica,2024.2.5,Win32,59.88023952,,,,,,,,,,,,,,,,,,,,,,,541.878,542.8936,a,1,0.3416,1,542.8938,543.3942,,,,,,437,FEM,WORD,DIS,150,plaza,,el,,0.3416,,543.3942,543.3944,0.044444444,-0.218518519,0,0,0,,0,239,239,436,1,glava,,,,
,,,,,,616f423e8893bea6dd1e7f52,676192165fb32c2e1fb7aee6,67d0cef0b4d4c1d595b2cb0e,2025-03-11_18h02.30.096,Tarea de decisión léxica,2024.2.5,Win32,59.88023952,,,,,,,,,,,,,,,,,,,,,,,543.3964,544.3949,a,1,0.3272,1,544.395,544.8955,,,,,,79,FEM,WORD,AGR,150,piel,,la,,0.3272,,544.8956,544.8958,0.044444444,-0.218518519,0,0,0,,0,240,240,78,1,ciel,,,,
,,,,,,616f423e8893bea6dd1e7f52,676192165fb32c2e1fb7aee6,67d0cef0b4d4c1d595b2cb0e,2025-03-11_18h02.30.096,Tarea de decisión léxica,2024.2.5,Win32,59.88023952,,,,,,,,,,,,,,,,,,,,,,,544.8976,546.2802,l,1,0.7019,1,546.2803,546.7808,,,,,,144,MAS,NOWORD,AGR,150,pezo,,el,,0.7019,,546.7809,546.7811,0.044444444,-0.218518519,0,0,0,,0,241,241,143,1,pavo,,,,
,,,,,,616f423e8893bea6dd1e7f52,676192165fb32c2e1fb7aee6,67d0cef0b4d4c1d595b2cb0e,2025-03-11_18h02.30.096,Tarea de decisión léxica,2024.2.5,Win32,59.88023952,,,,,,,,,,,,,,,,,,,,,,,546.7828,547.9654,a,1,0.5083,1,547.9655,548.4656,,,,,,125,MAS,WORD,DIS,150,lujo,,la,,0.5083,,548.4669,548.4683,0.044444444,-0.218518519,0,0,0,,0,242,242,124,1,vudo,,,,
,,,,,,616f423e8893bea6dd1e7f52,676192165fb32c2e1fb7aee6,67d0cef0b4d4c1d595b2cb0e,2025-03-11_18h02.30.096,Tarea de decisión léxica,2024.2.5,Win32,59.88023952,,,,,,,,,,,,,,,,,,,,,,,548.4703,549.5504,l,1,0.4014,1,549.5506,550.0507,,,,,,390,MAS,NOWORD,DIS,150,cenco,,la,,0.4014,,550.0507,550.051,0.044444444,-0.218518519,0,0,0,,0,243,243,389,1,cerdo,,,,
,,,,,,616f423e8893bea6dd1e7f52,676192165fb32c2e1fb7aee6,67d0cef0b4d4c1d595b2cb0e,2025-03-11_18h02.30.096,Tarea de decisión léxica,2024.2.5,Win32,59.88023952,,,,,,,,,,,,,,,,,,,,,,,550.0525,551.1686,l,1,0.4351,1,551.1687,551.6692,,,,,,380,MAS,NOWORD,AGR,150,tunso,,el,,0.4351,,551.6692,551.6694,0.044444444,-0.218518519,0,0,0,,0,244,244,379,1,turno,,,,
,,,,,,616f423e8893bea6dd1e7f52,676192165fb32c2e1fb7aee6,67d0cef0b4d4c1d595b2cb0e,2025-03-11_18h02.30.096,Tarea de decisión léxica,2024.2.5,Win32,59.88023952,,,,,,,,,,,,,,,,,,,,,,,551.6712,552.8034,l,1,0.46,1,552.8035,553.304,,,,,,112,MAS,NOWORD,AGR,150,siro,,el,,0.46,,553.304,553.3042,0.044444444,-0.218518519,0,0,0,,0,245,245,111,1,muro,,,,
,,,,,,616f423e8893bea6dd1e7f52,676192165fb32c2e1fb7aee6,67d0cef0b4d4c1d595b2cb0e,2025-03-11_18h02.30.096,Tarea de decisión léxica,2024.2.5,Win32,59.88023952,,,,,,,,,,,,,,,,,,,,,,,553.3057,554.4051,l,1,0.4253,1,554.4052,554.9057,,,,,,248,FEM,NOWORD,AGR,150,trida,,la,,0.4253,,554.9057,554.9059,0.044444444,-0.218518519,0,0,0,,0,246,246,247,1,chica,,,,
,,,,,,616f423e8893bea6dd1e7f52,676192165fb32c2e1fb7aee6,67d0cef0b4d4c1d595b2cb0e,2025-03-11_18h02.30.096,Tarea de decisión léxica,2024.2.5,Win32,59.88023952,,,,,,,,,,,,,,,,,,,,,,,554.9076,556.2903,l,1,0.7051,1,556.2904,556.7909,,,,,,352,MAS,NOWORD,AGR,150,duepo,,el,,0.7051,,556.793,556.7957,0.044444444,-0.218518519,0,0,0,,0,247,247,351,1,vuelo,,,,
,,,,,,616f423e8893bea6dd1e7f52,676192165fb32c2e1fb7aee6,67d0cef0b4d4c1d595b2cb0e,2025-03-11_18h02.30.096,Tarea de decisión léxica,2024.2.5,Win32,59.88023952,,,,,,,,,,,,,,,,,,,,,,,556.797,557.8918,l,1,0.4197,1,557.892,558.3923,,,,,,250,FEM,NOWORD,DIS,150,plane,,el,,0.4197,,558.3925,558.3926,0.044444444,-0.218518519,0,0,0,,0,248,248,249,1,clase,,,,
,,,,,,616f423e8893bea6dd1e7f52,676192165fb32c2e1fb7aee6,67d0cef0b4d4c1d595b2cb0e,2025-03-11_18h02.30.096,Tarea de decisión léxica,2024.2.5,Win32,59.88023952,,,,,,,,,,,,,,,,,,,,,,,558.3943,559.5102,l,1,0.4415,1,559.5103,560.0106,,,,,,384,FEM,NOWORD,AGR,150,brame,,la,,0.4415,,560.0107,560.011,0.044444444,-0.218518519,0,0,0,,0,249,249,383,1,frase,,,,
,,,,,,616f423e8893bea6dd1e7f52,676192165fb32c2e1fb7aee6,67d0cef0b4d4c1d595b2cb0e,2025-03-11_18h02.30.096,Tarea de decisión léxica,2024.2.5,Win32,59.88023952,,,,,,,,,,,,,,,,,,,,,,,560.0127,561.0947,l,1,0.4016,1,561.0947,561.5952,,,,,,214,FEM,NOWORD,DIS,150,bana,,el,,0.4016,,561.5952,561.5953,0.044444444,-0.218518519,0,0,0,,0,250,250,213,1,rama,,,,
,,,,,,616f423e8893bea6dd1e7f52,676192165fb32c2e1fb7aee6,67d0cef0b4d4c1d595b2cb0e,2025-03-11_18h02.30.096,Tarea de decisión léxica,2024.2.5,Win32,59.88023952,,,,,,,,,,,,,,,,,,,,,,,561.596,562.6462,l,1,0.3887,1,562.6463,563.1467,,,,,,322,MAS,NOWORD,DIS,150,rarco,,la,,0.3887,,563.1474,563.1482,0.044444444,-0.218518519,0,0,0,,0,251,251,321,1,banco,,,,
,,,,,,616f423e8893bea6dd1e7f52,676192165fb32c2e1fb7aee6,67d0cef0b4d4c1d595b2cb0e,2025-03-11_18h02.30.096,Tarea de decisión léxica,2024.2.5,Win32,59.88023952,,,,,,,,,,,,,,,,,,,,,,,563.15,564.4312,l,1,0.6005,1,564.4313,564.9318,,,,,,274,FEM,NOWORD,DIS,150,frosa,,el,,0.6005,,564.9318,564.9319,0.044444444,-0.218518519,0,0,0,,0,252,252,273,1,broma,,,,
,,,,,,616f423e8893bea6dd1e7f52,676192165fb32c2e1fb7aee6,67d0cef0b4d4c1d595b2cb0e,2025-03-11_18h02.30.096,Tarea de decisión léxica,2024.2.5,Win32,59.88023952,,,,,,,,,,,,,,,,,,,,,,,564.9327,566.1161,a,1,0.5013,1,566.1163,566.6168,,,,,,245,FEM,WORD,DIS,150,madre,,el,,0.5013,,566.6168,566.6169,0.044444444,-0.218518519,0,0,0,,0,253,253,244,1,pafle,,,,
,,,,,,616f423e8893bea6dd1e7f52,676192165fb32c2e1fb7aee6,67d0cef0b4d4c1d595b2cb0e,2025-03-11_18h02.30.096,Tarea de decisión léxica,2024.2.5,Win32,59.88023952,,,,,,,,,,,,,,,,,,,,,,,566.6178,567.7847,a,1,0.5009,1,567.7847,568.2855,,,,,,217,MAS,WORD,DIS,150,luto,,la,,0.5009,,568.2856,568.2858,0.044444444,-0.218518519,0,0,0,,0,254,254,216,1,budo,,,,
,,,,,,616f423e8893bea6dd1e7f52,676192165fb32c2e1fb7aee6,67d0cef0b4d4c1d595b2cb0e,2025-03-11_18h02.30.096,Tarea de decisión léxica,2024.2.5,Win32,59.88023952,,,,,,,,,,,,,,,,,,,,,,,568.2874,569.2865,l,1,0.3249,1,569.2866,569.7867,,,,,,140,MAS,NOWORD,AGR,150,nila,,el,,0.3249,,569.7868,569.7869,0.044444444,-0.218518519,0,0,0,,0,255,255,139,1,mago,,,,
,,,,,,616f423e8893bea6dd1e7f52,676192165fb32c2e1fb7aee6,67d0cef0b4d4c1d595b2cb0e,2025-03-11_18h02.30.096,Tarea de decisión léxica,2024.2.5,Win32,59.88023952,,,,,,,,,,,,,,,,,,,,,,,569.788,570.7881,a,1,0.3286,1,570.7883,571.2887,,,,,,215,FEM,WORD,AGR,150,raíz,,la,,0.3286,,571.2905,571.2934,0.044444444,-0.218518519,0,0,0,,0,256,256,214,1,raua,,,,
,,,,,,616f423e8893bea6dd1e7f52,676192165fb32c2e1fb7aee6,67d0cef0b4d4c1d595b2cb0e,2025-03-11_18h02.30.096,Tarea de decisión léxica,2024.2.5,Win32,59.88023952,,,,,,,,,,,,,,,,,,,,,,,571.2946,572.3397,a,1,0.3711,1,572.3399,572.8401,,,,,,407,FEM,WORD,AGR,150,cueva,,la,,0.3711,,572.8402,572.8404,0.044444444,-0.218518519,0,0,0,,0,257,257,406,1,cauba,,,,
,,,,,,616f423e8893bea6dd1e7f52,676192165fb32c2e1fb7aee6,67d0cef0b4d4c1d595b2cb0e,2025-03-11_18h02.30.096,Tarea de decisión léxica,2024.2.5,Win32,59.88023952,,,,,,,,,,,,,,,,,,,,,,,572.8421,573.9411,l,1,0.4196,1,573.9413,574.4417,,,,,,174,FEM,NOWORD,DIS,150,boma,,el,,0.4196,,574.4418,574.4419,0.044444444,-0.218518519,0,0,0,,0,258,258,173,1,rosa,,,,
,,,,,,616f423e8893bea6dd1e7f52,676192165fb32c2e1fb7aee6,67d0cef0b4d4c1d595b2cb0e,2025-03-11_18h02.30.096,Tarea de decisión léxica,2024.2.5,Win32,59.88023952,,,,,,,,,,,,,,,,,,,,,,,574.4434,575.4927,a,1,0.3705,1,575.4928,575.9932,,,,,,13,FEM,WORD,DIS,150,hora,,el,,0.3705,,575.9932,575.9935,0.044444444,-0.218518519,0,0,0,,0,259,259,12,1,nola,,,,
,,,,,,616f423e8893bea6dd1e7f52,676192165fb32c2e1fb7aee6,67d0cef0b4d4c1d595b2cb0e,2025-03-11_18h02.30.096,Tarea de decisión léxica,2024.2.5,Win32,59.88023952,,,,,,,,,,,,,,,,,,,,,,,575.9956,577.3781,a,1,0.7053,1,577.3782,577.8785,,,,,,427,FEM,WORD,AGR,150,oreja,,la,,0.7053,,577.8786,577.8787,0.044444444,-0.218518519,0,0,0,,0,260,260,426,1,oseva,,,,
,,,,,,616f423e8893bea6dd1e7f52,676192165fb32c2e1fb7aee6,67d0cef0b4d4c1d595b2cb0e,2025-03-11_18h02.30.096,Tarea de decisión léxica,2024.2.5,Win32,59.88023952,,,,,,,,,,,,,,,,,,,,,,,577.8808,578.7961,a,1,0.2365,1,578.7962,579.2966,,,,,,225,MAS,WORD,DIS,150,lodo,,la,,0.2365,,579.2989,579.3016,0.044444444,-0.218518519,0,0,0,,0,261,261,224,1,boco,,,,
,,,,,,616f423e8893bea6dd1e7f52,676192165fb32c2e1fb7aee6,67d0cef0b4d4c1d595b2cb0e,2025-03-11_18h02.30.096,Tarea de decisión léxica,2024.2.5,Win32,59.88023952,,,,,,,,,,,,,,,,,,,,,,,579.3032,580.3976,a,1,0.4176,1,580.3976,580.8982,,,,,,275,MAS,WORD,AGR,150,punto,,el,,0.4176,,580.8983,580.8985,0.044444444,-0.218518519,0,0,0,,0,262,262,274,1,musto,,,,
,,,,,,616f423e8893bea6dd1e7f52,676192165fb32c2e1fb7aee6,67d0cef0b4d4c1d595b2cb0e,2025-03-11_18h02.30.096,Tarea de decisión léxica,2024.2.5,Win32,59.88023952,,,,,,,,,,,,,,,,,,,,,,,580.9002,582.0156,l,1,0.4357,1,582.0158,582.5162,,,,,,462,FEM,NOWORD,DIS,150,pagra,,el,,0.4357,,582.5163,582.5164,0.044444444,-0.218518519,0,0,0,,0,263,263,461,1,tabla,,,,
