counterbalancing_condition,consent_prescreening.block_1/declare_consent,consent_prescreening.block_1/age_years,consent_prescreening.block_1/gender,consent_prescreening.block_1/language_disorder,consent_prescreening.block_1/first_language,PROLIFIC_PID,STUDY_ID,SESSION_ID,date,expName,psychopyVersion,OS,frameRate,check_prescreening_answers.started,check_prescreening_answers.stopped,Instructions.started,Instructions.stopped,instr_done_keyboard.keys,instr_done_keyboard.rt,instr_done_keyboard.duration,instr_done_touch.x,instr_done_touch.y,instr_done_touch.leftButton,instr_done_touch.midButton,instr_done_touch.rightButton,instruction_pages.thisRepN,instruction_pages.thisTrialN,instruction_pages.thisN,instruction_pages.thisIndex,instruction_pages.ran,pageN,phase,instruct_text,has_image,instruct_image,presentTrial.started,presentTrial.stopped,response.keys,response.corr,response.rt,response.duration,rt,corr,feedback.started,feedback.stopped,practice_trials.thisRepN,practice_trials.thisTrialN,practice_trials.thisN,practice_trials.thisIndex,practice_trials.ran,TrialID,Gender,StimulusType,Condition,PrimeDuration,Prime,len,Flanker,corrAns,Break.started,Break.stopped,break_done_touch.x,break_done_touch.y,break_done_touch.leftButton,break_done_touch.midButton,break_done_touch.rightButton,break_done_keyboard.keys,experiment_trials.thisRepN,experiment_trials.thisTrialN,experiment_trials.thisN,experiment_trials.thisIndex,experiment_trials.ran,PairedWith,break_done_keyboard.rt,break_done_keyboard.duration,End.started,End.stopped
1,"[""over_18"",""comfortable"",""read_info"",""consent_given""]",41,F,"[""none""]","[""spanish""]",617305abc8cde4cf0e08255b,676192165fb32c2e1fb7aee6,67d1940ae9e4d94aa5b5466c,2025-03-12_15h17.19.360,Tarea de decisión léxica,2024.2.5,Win32,142.8571429,,,,,,,,,,,,,,,,,,,,,,,,,,,,,,,,,,,,,,,,,,,,,,,,,,,,,,,,,,,,,,,,
,,,,,,617305abc8cde4cf0e08255b,676192165fb32c2e1fb7aee6,67d1940ae9e4d94aa5b5466c,2025-03-12_15h17.19.360,Tarea de decisión léxica,2024.2.5,Win32,142.8571429,47.5916,47.5918,,,,,,,,,,,,,,,,,,,,,,,,,,,,,,,,,,,,,,,,,,,,,,,,,,,,,,,,,,,,,,
,,,,,,617305abc8cde4cf0e08255b,676192165fb32c2e1fb7aee6,67d1940ae9e4d94aa5b5466c,2025-03-12_15h17.19.360,Tarea de decisión léxica,2024.2.5,Win32,142.8571429,,,47.6252,70.1578,space,22.4091,,-0.080778559,-0.418734853,0,0,0,0,0,0,0,1,1,instructions,"INSTRUCCIONES
Va a realizar una prueba de decisión léxica. Desde el comienzo de la prueba mire siempre al centro de la pantalla. Se presentará una serie de cadenas de letras, una a la vez, en la pantalla. Su tarea consiste en determinar si cada cadena de letras constituye una palabra real en español o una no-palabra (una secuencia de letras que no constituye una palabra real). 

Pulse la tecla ESPACIO para continuar.",0,keyboardresponseWN.png,,,,,,,,,,,,,,,,,,,,,,,,,,,,,,,,,,,,,,,,,,
,,,,,,617305abc8cde4cf0e08255b,676192165fb32c2e1fb7aee6,67d1940ae9e4d94aa5b5466c,2025-03-12_15h17.19.360,Tarea de decisión léxica,2024.2.5,Win32,142.8571429,,,70.1616,87.4802,space,17.2818,,-0.123600914,-0.298053558,0,0,0,0,1,1,1,1,2,instructions,"El procedimiento es el siguiente: Aparecerán dos barras verticales posicionadas en el centro de la pantalla, separadas por un pequeño espacio.Por favor, enfoque su atención en el espacio entre las barras. Esto preparará sus ojos para la siguiente cadena de letras, que aparecerá entre las dos barras durante un instante.

Pulse la tecla ESPACIO para continuar.",0,keyboardresponseWN.png,,,,,,,,,,,,,,,,,,,,,,,,,,,,,,,,,,,,,,,,,,
,,,,,,617305abc8cde4cf0e08255b,676192165fb32c2e1fb7aee6,67d1940ae9e4d94aa5b5466c,2025-03-12_15h17.19.360,Tarea de decisión léxica,2024.2.5,Win32,142.8571429,,,87.4847,102.0728,space,14.5278,,-0.492457391,-0.251338229,0,0,0,0,2,2,2,1,3,instructions,"En el teclado de su dispositivo, pulse la tecla ""A"" si la cadena de letras es una palabra real en español (por ejemplo: ""mano"") y la tecla ""L"" si la cadena de letras es una no-palabra (por ejemplo: ""minu"").
Pulse la tecla ESPACIO para continuar.",1,keyboardresponseWN.png,,,,,,,,,,,,,,,,,,,,,,,,,,,,,,,,,,,,,,,,,,
,,,,,,617305abc8cde4cf0e08255b,676192165fb32c2e1fb7aee6,67d1940ae9e4d94aa5b5466c,2025-03-12_15h17.19.360,Tarea de decisión léxica,2024.2.5,Win32,142.8571429,,,102.0762,114.7994,space,12.7074,,-0.492457391,-0.251338229,0,0,0,0,3,3,3,1,4,instructions,"Es muy importante que responda con la mayor rapidez y precisión posibles. Si no responde dentro de 2 segundos, aparecerá el mensaje ""Muy lento"" y el experimento pasará a la siguiente palabra. Inmediatamente después de su respuesta se indicará si fue correcta o no. Los primeros 15 intentos serán de práctica y habrá dos descansos durante la prueba.

Pulse la tecla ESPACIO  para iniciar la parte de práctica.",0,keyboardresponseWN.png,,,,,,,,,,,,,,,,,,,,,,,,,,,,,,,,,,,,,,,,,,
,,,,,,617305abc8cde4cf0e08255b,676192165fb32c2e1fb7aee6,67d1940ae9e4d94aa5b5466c,2025-03-12_15h17.19.360,Tarea de decisión léxica,2024.2.5,Win32,142.8571429,,,,,,,,,,,,,,,,,,,,,,,114.8231,116.7838,a,1,1.3,,1.3,1,116.7844,117.283,0,0,0,7,1,1008,MAS,WORD,DIS,150,frío,4,la,l,,,,,,,,,,,,,,,,,,
,,,,,,617305abc8cde4cf0e08255b,676192165fb32c2e1fb7aee6,67d1940ae9e4d94aa5b5466c,2025-03-12_15h17.19.360,Tarea de decisión léxica,2024.2.5,Win32,142.8571429,,,,,,,,,,,,,,,,,,,,,,,117.2854,119.9329,,0,,,1.3,-1,119.9351,120.4324,0,1,1,4,1,1005,MAS,NOWORD,DIS,150,nobad,5,la,a,,,,,,,,,,,,,,,,,,
,,,,,,617305abc8cde4cf0e08255b,676192165fb32c2e1fb7aee6,67d1940ae9e4d94aa5b5466c,2025-03-12_15h17.19.360,Tarea de decisión léxica,2024.2.5,Win32,142.8571429,,,,,,,,,,,,,,,,,,,,,,,120.4355,121.8478,a,1,0.7602,,0.7602,1,121.8491,122.3471,0,2,2,8,1,1009,FEM,WORD,AGR,150,viejo,5,la,l,,,,,,,,,,,,,,,,,,
,,,,,,617305abc8cde4cf0e08255b,676192165fb32c2e1fb7aee6,67d1940ae9e4d94aa5b5466c,2025-03-12_15h17.19.360,Tarea de decisión léxica,2024.2.5,Win32,142.8571429,,,,,,,,,,,,,,,,,,,,,,,122.3492,123.3851,l,1,0.3832,,0.3832,1,123.3852,123.8802,0,3,3,2,1,1003,FEM,NOWORD,DIS,150,muvor,5,el,a,,,,,,,,,,,,,,,,,,
,,,,,,617305abc8cde4cf0e08255b,676192165fb32c2e1fb7aee6,67d1940ae9e4d94aa5b5466c,2025-03-12_15h17.19.360,Tarea de decisión léxica,2024.2.5,Win32,142.8571429,,,,,,,,,,,,,,,,,,,,,,,123.8817,124.9835,a,1,0.4486,,0.4486,1,124.9836,125.4828,0,4,4,9,1,1010,MAS,WORD,DIS,150,video,5,la,l,,,,,,,,,,,,,,,,,,
,,,,,,617305abc8cde4cf0e08255b,676192165fb32c2e1fb7aee6,67d1940ae9e4d94aa5b5466c,2025-03-12_15h17.19.360,Tarea de decisión léxica,2024.2.5,Win32,142.8571429,,,,,,,,,,,,,,,,,,,,,,,125.4846,126.7455,l,0,0.6064,,0.6064,0,126.7473,127.245,0,5,5,5,1,1006,FEM,WORD,AGR,150,cara,4,la,l,,,,,,,,,,,,,,,,,,
,,,,,,617305abc8cde4cf0e08255b,676192165fb32c2e1fb7aee6,67d1940ae9e4d94aa5b5466c,2025-03-12_15h17.19.360,Tarea de decisión léxica,2024.2.5,Win32,142.8571429,,,,,,,,,,,,,,,,,,,,,,,127.2468,128.1537,a,1,0.2506,,0.2506,1,128.1547,128.6532,0,6,6,6,1,1007,MAS,WORD,DIS,150,masa,4,la,l,,,,,,,,,,,,,,,,,,
,,,,,,617305abc8cde4cf0e08255b,676192165fb32c2e1fb7aee6,67d1940ae9e4d94aa5b5466c,2025-03-12_15h17.19.360,Tarea de decisión léxica,2024.2.5,Win32,142.8571429,,,,,,,,,,,,,,,,,,,,,,,128.6551,129.7563,l,1,0.4448,,0.4448,1,129.7565,130.2558,0,7,7,0,1,1001,FEM,NOWORD,AGR,150,croz,4,la,a,,,,,,,,,,,,,,,,,,
,,,,,,617305abc8cde4cf0e08255b,676192165fb32c2e1fb7aee6,67d1940ae9e4d94aa5b5466c,2025-03-12_15h17.19.360,Tarea de decisión léxica,2024.2.5,Win32,142.8571429,,,,,,,,,,,,,,,,,,,,,,,130.2573,131.4243,l,1,0.514,,0.514,1,131.4243,131.9206,0,8,8,3,1,1004,FEM,NOWORD,AGR,150,bireo,5,la,a,,,,,,,,,,,,,,,,,,
,,,,,,617305abc8cde4cf0e08255b,676192165fb32c2e1fb7aee6,67d1940ae9e4d94aa5b5466c,2025-03-12_15h17.19.360,Tarea de decisión léxica,2024.2.5,Win32,142.8571429,,,,,,,,,,,,,,,,,,,,,,,131.922,133.0309,l,1,0.4552,,0.4552,1,133.0311,133.5303,0,9,9,1,1,1002,FEM,NOWORD,DIS,150,mabo,4,el,a,,,,,,,,,,,,,,,,,,
,,,,,,617305abc8cde4cf0e08255b,676192165fb32c2e1fb7aee6,67d1940ae9e4d94aa5b5466c,2025-03-12_15h17.19.360,Tarea de decisión léxica,2024.2.5,Win32,142.8571429,,,138.9527,145.5282,space,6.5639,,-0.492457391,-0.251338229,0,0,0,,,,,,,,,,,145.5824,146.6281,a,0,0.3894,,0.3894,0,146.6292,147.1276,,,,,,40,MAS,NOWORD,DIS,150,redo,,la,,147.1281,147.1336,-0.492457391,-0.251338229,0,0,0,,0,0,0,39,1,voto,,,,
,,,,,,617305abc8cde4cf0e08255b,676192165fb32c2e1fb7aee6,67d1940ae9e4d94aa5b5466c,2025-03-12_15h17.19.360,Tarea de decisión léxica,2024.2.5,Win32,142.8571429,,,,,,,,,,,,,,,,,,,,,,,147.1346,148.2931,l,1,0.502,,0.502,1,148.2941,148.7925,,,,,,242,MAS,NOWORD,AGR,150,mirdo,,el,,148.7927,148.7928,-0.492457391,-0.251338229,0,0,0,,0,1,1,241,1,mundo,,,,
,,,,,,617305abc8cde4cf0e08255b,676192165fb32c2e1fb7aee6,67d1940ae9e4d94aa5b5466c,2025-03-12_15h17.19.360,Tarea de decisión léxica,2024.2.5,Win32,142.8571429,,,,,,,,,,,,,,,,,,,,,,,148.7947,149.8331,a,1,0.3823,,0.3823,1,149.8332,150.3325,,,,,,127,MAS,WORD,DIS,150,pico,,la,,150.3342,150.3351,-0.492457391,-0.251338229,0,0,0,,0,2,2,126,1,itio,,,,
,,,,,,617305abc8cde4cf0e08255b,676192165fb32c2e1fb7aee6,67d1940ae9e4d94aa5b5466c,2025-03-12_15h17.19.360,Tarea de decisión léxica,2024.2.5,Win32,142.8571429,,,,,,,,,,,,,,,,,,,,,,,150.3364,151.6472,l,1,0.6528,,0.6528,1,151.6473,152.3397,,,,,,120,MAS,NOWORD,DIS,150,hooy,,la,,152.3397,152.3398,-0.492457391,-0.251338229,0,0,0,,0,3,3,119,1,pozo,,,,
,,,,,,617305abc8cde4cf0e08255b,676192165fb32c2e1fb7aee6,67d1940ae9e4d94aa5b5466c,2025-03-12_15h17.19.360,Tarea de decisión léxica,2024.2.5,Win32,142.8571429,,,,,,,,,,,,,,,,,,,,,,,152.3419,153.7182,l,1,0.7149,,0.7149,1,153.7183,154.2176,,,,,,250,FEM,NOWORD,AGR,150,plane,,la,,154.2178,154.218,-0.492457391,-0.251338229,0,0,0,,0,4,4,249,1,clase,,,,
,,,,,,617305abc8cde4cf0e08255b,676192165fb32c2e1fb7aee6,67d1940ae9e4d94aa5b5466c,2025-03-12_15h17.19.360,Tarea de decisión léxica,2024.2.5,Win32,142.8571429,,,,,,,,,,,,,,,,,,,,,,,154.2194,155.2167,a,1,0.3439,,0.3439,1,155.2168,155.7161,,,,,,199,MAS,WORD,AGR,150,lazo,,el,,155.7162,155.7164,-0.492457391,-0.251338229,0,0,0,,0,5,5,198,1,fano,,,,
,,,,,,617305abc8cde4cf0e08255b,676192165fb32c2e1fb7aee6,67d1940ae9e4d94aa5b5466c,2025-03-12_15h17.19.360,Tarea de decisión léxica,2024.2.5,Win32,142.8571429,,,,,,,,,,,,,,,,,,,,,,,155.7175,156.8331,l,1,0.4593,,0.4593,1,156.8332,157.3327,,,,,,244,MAS,NOWORD,DIS,150,asamo,,la,,157.3329,157.3332,-0.492457391,-0.251338229,0,0,0,,0,6,6,243,1,amigo,,,,
,,,,,,617305abc8cde4cf0e08255b,676192165fb32c2e1fb7aee6,67d1940ae9e4d94aa5b5466c,2025-03-12_15h17.19.360,Tarea de decisión léxica,2024.2.5,Win32,142.8571429,,,,,,,,,,,,,,,,,,,,,,,157.3344,158.5052,l,1,0.5145,,0.5145,1,158.5054,159.0046,,,,,,428,FEM,NOWORD,DIS,150,oseva,,el,,159.006,159.007,-0.492457391,-0.251338229,0,0,0,,0,7,7,427,1,oreja,,,,
,,,,,,617305abc8cde4cf0e08255b,676192165fb32c2e1fb7aee6,67d1940ae9e4d94aa5b5466c,2025-03-12_15h17.19.360,Tarea de decisión léxica,2024.2.5,Win32,142.8571429,,,,,,,,,,,,,,,,,,,,,,,159.0081,160.0242,a,1,0.3542,,0.3542,1,160.0244,160.5238,,,,,,159,MAS,WORD,AGR,150,giro,,el,,160.5239,160.5241,-0.492457391,-0.251338229,0,0,0,,0,8,8,158,1,bilo,,,,
,,,,,,617305abc8cde4cf0e08255b,676192165fb32c2e1fb7aee6,67d1940ae9e4d94aa5b5466c,2025-03-12_15h17.19.360,Tarea de decisión léxica,2024.2.5,Win32,142.8571429,,,,,,,,,,,,,,,,,,,,,,,160.5258,161.6546,a,1,0.4739,,0.4739,1,161.6548,162.1541,,,,,,231,FEM,WORD,AGR,150,bota,,la,,162.1542,162.1545,-0.492457391,-0.251338229,0,0,0,,0,9,9,230,1,heta,,,,
,,,,,,617305abc8cde4cf0e08255b,676192165fb32c2e1fb7aee6,67d1940ae9e4d94aa5b5466c,2025-03-12_15h17.19.360,Tarea de decisión léxica,2024.2.5,Win32,142.8571429,,,,,,,,,,,,,,,,,,,,,,,162.1558,163.2016,l,1,0.3907,,0.3907,1,163.2018,163.7012,,,,,,10,MAS,NOWORD,AGR,150,sibo,,el,,163.7013,163.7016,-0.492457391,-0.251338229,0,0,0,,0,10,10,9,1,tipo,,,,
,,,,,,617305abc8cde4cf0e08255b,676192165fb32c2e1fb7aee6,67d1940ae9e4d94aa5b5466c,2025-03-12_15h17.19.360,Tarea de decisión léxica,2024.2.5,Win32,142.8571429,,,,,,,,,,,,,,,,,,,,,,,163.7031,164.6448,a,1,0.2857,,0.2857,1,164.645,165.1441,,,,,,331,MAS,WORD,DIS,150,éxito,,la,,165.1457,165.1466,-0.492457391,-0.251338229,0,0,0,,0,11,11,330,1,erato,,,,
,,,,,,617305abc8cde4cf0e08255b,676192165fb32c2e1fb7aee6,67d1940ae9e4d94aa5b5466c,2025-03-12_15h17.19.360,Tarea de decisión léxica,2024.2.5,Win32,142.8571429,,,,,,,,,,,,,,,,,,,,,,,165.1475,166.1295,l,1,0.3205,,0.3205,1,166.1296,166.6288,,,,,,238,MAS,NOWORD,AGR,150,huco,,el,,166.6288,166.629,-0.492457391,-0.251338229,0,0,0,,0,12,12,237,1,nudo,,,,
,,,,,,617305abc8cde4cf0e08255b,676192165fb32c2e1fb7aee6,67d1940ae9e4d94aa5b5466c,2025-03-12_15h17.19.360,Tarea de decisión léxica,2024.2.5,Win32,142.8571429,,,,,,,,,,,,,,,,,,,,,,,166.6303,167.5792,l,1,0.2928,,0.2928,1,167.5794,168.0787,,,,,,212,FEM,NOWORD,DIS,150,joad,,el,,168.0788,168.079,-0.492457391,-0.251338229,0,0,0,,0,13,13,211,1,joya,,,,
,,,,,,617305abc8cde4cf0e08255b,676192165fb32c2e1fb7aee6,67d1940ae9e4d94aa5b5466c,2025-03-12_15h17.19.360,Tarea de decisión léxica,2024.2.5,Win32,142.8571429,,,,,,,,,,,,,,,,,,,,,,,168.0801,169.0501,a,1,0.3165,,0.3165,1,169.0502,169.5499,,,,,,107,MAS,WORD,AGR,150,saco,,el,,169.5501,169.5503,-0.492457391,-0.251338229,0,0,0,,0,14,14,106,1,raot,,,,
,,,,,,617305abc8cde4cf0e08255b,676192165fb32c2e1fb7aee6,67d1940ae9e4d94aa5b5466c,2025-03-12_15h17.19.360,Tarea de decisión léxica,2024.2.5,Win32,142.8571429,,,,,,,,,,,,,,,,,,,,,,,169.5515,170.5554,l,0,0.3477,,0.3477,0,170.5563,171.0548,,,,,,39,MAS,WORD,AGR,150,voto,,el,,171.0549,171.0551,-0.492457391,-0.251338229,0,0,0,,0,15,15,38,1,redo,,,,
,,,,,,617305abc8cde4cf0e08255b,676192165fb32c2e1fb7aee6,67d1940ae9e4d94aa5b5466c,2025-03-12_15h17.19.360,Tarea de decisión léxica,2024.2.5,Win32,142.8571429,,,,,,,,,,,,,,,,,,,,,,,171.0561,172.477,l,1,0.7631,,0.7631,1,172.4779,172.9764,,,,,,320,MAS,NOWORD,DIS,150,tuero,,la,,172.9781,172.9788,-0.492457391,-0.251338229,0,0,0,,0,16,16,319,1,suelo,,,,
,,,,,,617305abc8cde4cf0e08255b,676192165fb32c2e1fb7aee6,67d1940ae9e4d94aa5b5466c,2025-03-12_15h17.19.360,Tarea de decisión léxica,2024.2.5,Win32,142.8571429,,,,,,,,,,,,,,,,,,,,,,,172.9796,173.9963,a,0,0.3571,,0.3571,0,173.9972,174.4958,,,,,,16,FEM,NOWORD,DIS,150,odea,,el,,174.4959,174.4961,-0.492457391,-0.251338229,0,0,0,,0,17,17,15,1,idea,,,,
,,,,,,617305abc8cde4cf0e08255b,676192165fb32c2e1fb7aee6,67d1940ae9e4d94aa5b5466c,2025-03-12_15h17.19.360,Tarea de decisión léxica,2024.2.5,Win32,142.8571429,,,,,,,,,,,,,,,,,,,,,,,174.4971,175.5086,a,1,0.3543,,0.3543,1,175.5096,176.0081,,,,,,261,MAS,WORD,DIS,150,sitio,,la,,176.0082,176.0084,-0.492457391,-0.251338229,0,0,0,,0,18,18,260,1,titio,,,,
,,,,,,617305abc8cde4cf0e08255b,676192165fb32c2e1fb7aee6,67d1940ae9e4d94aa5b5466c,2025-03-12_15h17.19.360,Tarea de decisión léxica,2024.2.5,Win32,142.8571429,,,,,,,,,,,,,,,,,,,,,,,176.0094,176.9378,a,1,0.271,,0.271,1,176.9381,177.4302,,,,,,69,FEM,WORD,DIS,150,zona,,el,,177.4303,177.4305,-0.492457391,-0.251338229,0,0,0,,0,19,19,68,1,ñola,,,,
,,,,,,617305abc8cde4cf0e08255b,676192165fb32c2e1fb7aee6,67d1940ae9e4d94aa5b5466c,2025-03-12_15h17.19.360,Tarea de decisión léxica,2024.2.5,Win32,142.8571429,,,,,,,,,,,,,,,,,,,,,,,177.4315,178.4569,a,1,0.3714,,0.3714,1,178.457,178.9994,,,,,,289,FEM,WORD,DIS,150,bomba,,el,,178.9995,178.9997,-0.492457391,-0.251338229,0,0,0,,0,20,20,288,1,bumpa,,,,
,,,,,,617305abc8cde4cf0e08255b,676192165fb32c2e1fb7aee6,67d1940ae9e4d94aa5b5466c,2025-03-12_15h17.19.360,Tarea de decisión léxica,2024.2.5,Win32,142.8571429,,,,,,,,,,,,,,,,,,,,,,,179.0013,179.9717,a,1,0.3122,,0.3122,1,179.9718,180.4687,,,,,,83,FEM,WORD,DIS,150,bala,,el,,180.4706,180.4714,-0.492457391,-0.251338229,0,0,0,,0,21,21,82,1,taga,,,,
,,,,,,617305abc8cde4cf0e08255b,676192165fb32c2e1fb7aee6,67d1940ae9e4d94aa5b5466c,2025-03-12_15h17.19.360,Tarea de decisión léxica,2024.2.5,Win32,142.8571429,,,,,,,,,,,,,,,,,,,,,,,180.4721,181.5094,l,1,0.3753,,0.3753,1,181.5095,182.0091,,,,,,196,FEM,NOWORD,DIS,150,sira,,el,,182.0092,182.0094,-0.492457391,-0.251338229,0,0,0,,0,22,22,195,1,tela,,,,
,,,,,,617305abc8cde4cf0e08255b,676192165fb32c2e1fb7aee6,67d1940ae9e4d94aa5b5466c,2025-03-12_15h17.19.360,Tarea de decisión léxica,2024.2.5,Win32,142.8571429,,,,,,,,,,,,,,,,,,,,,,,182.0108,182.994,a,1,0.3268,,0.3268,1,182.9942,183.4934,,,,,,147,FEM,WORD,DIS,150,hoja,,el,,183.4935,183.4937,-0.492457391,-0.251338229,0,0,0,,0,23,23,146,1,pama,,,,
,,,,,,617305abc8cde4cf0e08255b,676192165fb32c2e1fb7aee6,67d1940ae9e4d94aa5b5466c,2025-03-12_15h17.19.360,Tarea de decisión léxica,2024.2.5,Win32,142.8571429,,,,,,,,,,,,,,,,,,,,,,,183.4951,184.4885,a,1,0.3401,,0.3401,1,184.4885,184.985,,,,,,49,FEM,WORD,AGR,150,edad,,la,,184.9851,184.9853,-0.492457391,-0.251338229,0,0,0,,0,24,24,48,1,ecat,,,,
,,,,,,617305abc8cde4cf0e08255b,676192165fb32c2e1fb7aee6,67d1940ae9e4d94aa5b5466c,2025-03-12_15h17.19.360,Tarea de decisión léxica,2024.2.5,Win32,142.8571429,,,,,,,,,,,,,,,,,,,,,,,184.9869,186.0187,l,1,0.3777,,0.3777,1,186.0188,186.5182,,,,,,290,FEM,NOWORD,AGR,150,bumpa,,la,,186.5183,186.5184,-0.492457391,-0.251338229,0,0,0,,0,25,25,289,1,bomba,,,,
,,,,,,617305abc8cde4cf0e08255b,676192165fb32c2e1fb7aee6,67d1940ae9e4d94aa5b5466c,2025-03-12_15h17.19.360,Tarea de decisión léxica,2024.2.5,Win32,142.8571429,,,,,,,,,,,,,,,,,,,,,,,186.5201,187.5797,l,1,0.4039,,0.4039,1,187.5798,188.0791,,,,,,190,MAS,NOWORD,AGR,150,muvo,,el,,188.0811,188.0819,-0.492457391,-0.251338229,0,0,0,,0,26,26,189,1,puño,,,,
,,,,,,617305abc8cde4cf0e08255b,676192165fb32c2e1fb7aee6,67d1940ae9e4d94aa5b5466c,2025-03-12_15h17.19.360,Tarea de decisión léxica,2024.2.5,Win32,142.8571429,,,,,,,,,,,,,,,,,,,,,,,188.0826,189.099,a,1,0.3559,,0.3559,1,189.0991,189.5984,,,,,,1,FEM,WORD,DIS,150,casa,,el,,189.5984,189.5985,-0.492457391,-0.251338229,0,0,0,,0,27,27,0,1,mada,,,,
,,,,,,617305abc8cde4cf0e08255b,676192165fb32c2e1fb7aee6,67d1940ae9e4d94aa5b5466c,2025-03-12_15h17.19.360,Tarea de decisión léxica,2024.2.5,Win32,142.8571429,,,,,,,,,,,,,,,,,,,,,,,189.5999,190.6113,l,1,0.3575,,0.3575,1,190.6114,191.1107,,,,,,438,FEM,NOWORD,AGR,150,glava,,la,,191.1108,191.111,-0.492457391,-0.251338229,0,0,0,,0,28,28,437,1,plaza,,,,
,,,,,,617305abc8cde4cf0e08255b,676192165fb32c2e1fb7aee6,67d1940ae9e4d94aa5b5466c,2025-03-12_15h17.19.360,Tarea de decisión léxica,2024.2.5,Win32,142.8571429,,,,,,,,,,,,,,,,,,,,,,,191.1127,192.0336,a,1,0.268,,0.268,1,192.0338,192.5329,,,,,,265,FEM,WORD,AGR,150,mitad,,la,,192.533,192.5331,-0.492457391,-0.251338229,0,0,0,,0,29,29,264,1,pitat,,,,
,,,,,,617305abc8cde4cf0e08255b,676192165fb32c2e1fb7aee6,67d1940ae9e4d94aa5b5466c,2025-03-12_15h17.19.360,Tarea de decisión léxica,2024.2.5,Win32,142.8571429,,,,,,,,,,,,,,,,,,,,,,,192.5343,193.4141,a,1,0.224,,0.224,1,193.4142,193.9136,,,,,,347,FEM,WORD,AGR,150,pieza,,la,,193.9136,193.9137,-0.492457391,-0.251338229,0,0,0,,0,30,30,346,1,mueza,,,,
,,,,,,617305abc8cde4cf0e08255b,676192165fb32c2e1fb7aee6,67d1940ae9e4d94aa5b5466c,2025-03-12_15h17.19.360,Tarea de decisión léxica,2024.2.5,Win32,142.8571429,,,,,,,,,,,,,,,,,,,,,,,193.9151,194.8849,l,1,0.3162,,0.3162,1,194.8849,195.3841,,,,,,442,FEM,NOWORD,AGR,150,telza,,la,,195.3862,195.387,-0.492457391,-0.251338229,0,0,0,,0,31,31,441,1,selva,,,,
,,,,,,617305abc8cde4cf0e08255b,676192165fb32c2e1fb7aee6,67d1940ae9e4d94aa5b5466c,2025-03-12_15h17.19.360,Tarea de decisión léxica,2024.2.5,Win32,142.8571429,,,,,,,,,,,,,,,,,,,,,,,195.3877,196.3,a,1,0.2539,,0.2539,1,196.3001,196.7994,,,,,,279,FEM,WORD,DIS,150,prisa,,el,,196.7995,196.7998,-0.492457391,-0.251338229,0,0,0,,0,32,32,278,1,grina,,,,
,,,,,,617305abc8cde4cf0e08255b,676192165fb32c2e1fb7aee6,67d1940ae9e4d94aa5b5466c,2025-03-12_15h17.19.360,Tarea de decisión léxica,2024.2.5,Win32,142.8571429,,,,,,,,,,,,,,,,,,,,,,,196.8012,197.8054,a,1,0.3472,,0.3472,1,197.8056,198.3049,,,,,,469,MAS,WORD,AGR,150,patio,,el,,198.305,198.3051,-0.492457391,-0.251338229,0,0,0,,0,33,33,468,1,matia,,,,
,,,,,,617305abc8cde4cf0e08255b,676192165fb32c2e1fb7aee6,67d1940ae9e4d94aa5b5466c,2025-03-12_15h17.19.360,Tarea de decisión léxica,2024.2.5,Win32,142.8571429,,,,,,,,,,,,,,,,,,,,,,,198.3064,199.3764,l,1,0.417,,0.417,1,199.3765,199.8728,,,,,,132,FEM,NOWORD,DIS,150,fada,,el,,199.8728,199.873,-0.492457391,-0.251338229,0,0,0,,0,34,34,131,1,mina,,,,
,,,,,,617305abc8cde4cf0e08255b,676192165fb32c2e1fb7aee6,67d1940ae9e4d94aa5b5466c,2025-03-12_15h17.19.360,Tarea de decisión léxica,2024.2.5,Win32,142.8571429,,,,,,,,,,,,,,,,,,,,,,,199.8745,200.8441,a,0,0.3153,,0.3153,0,200.8449,201.3435,,,,,,202,FEM,NOWORD,AGR,150,cusa,,la,,201.3455,201.3463,-0.492457391,-0.251338229,0,0,0,,0,35,35,201,1,cuna,,,,
,,,,,,617305abc8cde4cf0e08255b,676192165fb32c2e1fb7aee6,67d1940ae9e4d94aa5b5466c,2025-03-12_15h17.19.360,Tarea de decisión léxica,2024.2.5,Win32,142.8571429,,,,,,,,,,,,,,,,,,,,,,,201.347,202.484,l,1,0.479,,0.479,1,202.4848,202.9806,,,,,,472,FEM,NOWORD,DIS,150,prana,,el,,202.9807,202.9808,-0.492457391,-0.251338229,0,0,0,,0,36,36,471,1,grasa,,,,
,,,,,,617305abc8cde4cf0e08255b,676192165fb32c2e1fb7aee6,67d1940ae9e4d94aa5b5466c,2025-03-12_15h17.19.360,Tarea de decisión léxica,2024.2.5,Win32,142.8571429,,,,,,,,,,,,,,,,,,,,,,,202.982,204.0284,a,1,0.3931,,0.3931,1,204.0285,204.5277,,,,,,205,FEM,WORD,DIS,150,rana,,el,,204.5278,204.528,-0.492457391,-0.251338229,0,0,0,,0,37,37,204,1,bara,,,,
,,,,,,617305abc8cde4cf0e08255b,676192165fb32c2e1fb7aee6,67d1940ae9e4d94aa5b5466c,2025-03-12_15h17.19.360,Tarea de decisión léxica,2024.2.5,Win32,142.8571429,,,,,,,,,,,,,,,,,,,,,,,204.5295,205.5892,a,1,0.4052,,0.4052,1,205.5893,206.0887,,,,,,79,FEM,WORD,DIS,150,piel,,el,,206.0887,206.0889,-0.492457391,-0.251338229,0,0,0,,0,38,38,78,1,ciel,,,,
,,,,,,617305abc8cde4cf0e08255b,676192165fb32c2e1fb7aee6,67d1940ae9e4d94aa5b5466c,2025-03-12_15h17.19.360,Tarea de decisión léxica,2024.2.5,Win32,142.8571429,,,,,,,,,,,,,,,,,,,,,,,206.0902,207.1016,a,1,0.3576,,0.3576,1,207.1018,207.601,,,,,,87,MAS,WORD,DIS,150,vaso,,la,,207.601,207.6012,-0.492457391,-0.251338229,0,0,0,,0,39,39,86,1,damo,,,,
,,,,,,617305abc8cde4cf0e08255b,676192165fb32c2e1fb7aee6,67d1940ae9e4d94aa5b5466c,2025-03-12_15h17.19.360,Tarea de decisión léxica,2024.2.5,Win32,142.8571429,,,,,,,,,,,,,,,,,,,,,,,207.6026,208.5931,l,1,0.3357,,0.3357,1,208.5933,209.0925,,,,,,194,FEM,NOWORD,AGR,150,foda,,la,,209.0946,209.0955,-0.492457391,-0.251338229,0,0,0,,0,40,40,193,1,loca,,,,
,,,,,,617305abc8cde4cf0e08255b,676192165fb32c2e1fb7aee6,67d1940ae9e4d94aa5b5466c,2025-03-12_15h17.19.360,Tarea de decisión léxica,2024.2.5,Win32,142.8571429,,,,,,,,,,,,,,,,,,,,,,,209.0963,210.0292,a,0,0.2712,,0.2712,0,210.0303,210.5286,,,,,,186,MAS,NOWORD,AGR,150,raol,,el,,210.5287,210.5289,-0.492457391,-0.251338229,0,0,0,,0,41,41,185,1,baúl,,,,
,,,,,,617305abc8cde4cf0e08255b,676192165fb32c2e1fb7aee6,67d1940ae9e4d94aa5b5466c,2025-03-12_15h17.19.360,Tarea de decisión léxica,2024.2.5,Win32,142.8571429,,,,,,,,,,,,,,,,,,,,,,,210.5306,211.5277,l,1,0.3414,,0.3414,1,211.5286,212.0271,,,,,,110,MAS,NOWORD,AGR,150,suno,,el,,212.0273,212.0275,-0.492457391,-0.251338229,0,0,0,,0,42,42,109,1,rayo,,,,
,,,,,,617305abc8cde4cf0e08255b,676192165fb32c2e1fb7aee6,67d1940ae9e4d94aa5b5466c,2025-03-12_15h17.19.360,Tarea de decisión léxica,2024.2.5,Win32,142.8571429,,,,,,,,,,,,,,,,,,,,,,,212.0288,213.0886,l,1,0.4049,,0.4049,1,213.0888,213.588,,,,,,30,MAS,NOWORD,AGR,150,pono,,el,,213.5881,213.5882,-0.492457391,-0.251338229,0,0,0,,0,43,43,29,1,modo,,,,
,,,,,,617305abc8cde4cf0e08255b,676192165fb32c2e1fb7aee6,67d1940ae9e4d94aa5b5466c,2025-03-12_15h17.19.360,Tarea de decisión léxica,2024.2.5,Win32,142.8571429,,,,,,,,,,,,,,,,,,,,,,,213.5898,214.5346,l,1,0.2919,,0.2919,1,214.5347,215.0312,,,,,,256,MAS,NOWORD,DIS,150,mauco,,la,,215.0313,215.0314,-0.492457391,-0.251338229,0,0,0,,0,44,44,255,1,miedo,,,,
,,,,,,617305abc8cde4cf0e08255b,676192165fb32c2e1fb7aee6,67d1940ae9e4d94aa5b5466c,2025-03-12_15h17.19.360,Tarea de decisión léxica,2024.2.5,Win32,142.8571429,,,,,,,,,,,,,,,,,,,,,,,215.0329,216.0677,l,1,0.3817,,0.3817,1,216.0678,216.5642,,,,,,50,FEM,NOWORD,AGR,150,ecat,,la,,216.5656,216.5663,-0.492457391,-0.251338229,0,0,0,,0,45,45,49,1,edad,,,,
,,,,,,617305abc8cde4cf0e08255b,676192165fb32c2e1fb7aee6,67d1940ae9e4d94aa5b5466c,2025-03-12_15h17.19.360,Tarea de decisión léxica,2024.2.5,Win32,142.8571429,,,,,,,,,,,,,,,,,,,,,,,216.567,217.5216,a,1,0.2928,,0.2928,1,217.5217,218.0211,,,,,,343,FEM,WORD,AGR,150,plata,,la,,218.0211,218.0214,-0.492457391,-0.251338229,0,0,0,,0,46,46,342,1,trada,,,,
,,,,,,617305abc8cde4cf0e08255b,676192165fb32c2e1fb7aee6,67d1940ae9e4d94aa5b5466c,2025-03-12_15h17.19.360,Tarea de decisión léxica,2024.2.5,Win32,142.8571429,,,,,,,,,,,,,,,,,,,,,,,218.023,218.9923,a,1,0.3164,,0.3164,1,218.9923,219.4917,,,,,,43,FEM,WORD,AGR,150,pena,,la,,219.4918,219.492,-0.492457391,-0.251338229,0,0,0,,0,47,47,42,1,meda,,,,
,,,,,,617305abc8cde4cf0e08255b,676192165fb32c2e1fb7aee6,67d1940ae9e4d94aa5b5466c,2025-03-12_15h17.19.360,Tarea de decisión léxica,2024.2.5,Win32,142.8571429,,,,,,,,,,,,,,,,,,,,,,,219.4936,220.4906,a,1,0.3398,,0.3398,1,220.4908,220.9901,,,,,,101,MAS,WORD,DIS,150,tono,,la,,220.9902,220.9903,-0.492457391,-0.251338229,0,0,0,,0,48,48,100,1,gito,,,,
,,,,,,617305abc8cde4cf0e08255b,676192165fb32c2e1fb7aee6,67d1940ae9e4d94aa5b5466c,2025-03-12_15h17.19.360,Tarea de decisión léxica,2024.2.5,Win32,142.8571429,,,,,,,,,,,,,,,,,,,,,,,220.992,221.999,a,1,0.3539,,0.3539,1,221.9991,222.4956,,,,,,235,FEM,WORD,AGR,150,grúa,,la,,222.4957,222.4959,-0.492457391,-0.251338229,0,0,0,,0,49,49,234,1,tria,,,,
,,,,,,617305abc8cde4cf0e08255b,676192165fb32c2e1fb7aee6,67d1940ae9e4d94aa5b5466c,2025-03-12_15h17.19.360,Tarea de decisión léxica,2024.2.5,Win32,142.8571429,,,,,,,,,,,,,,,,,,,,,,,222.4972,223.4324,a,1,0.2824,,0.2824,1,223.4325,223.9316,,,,,,63,FEM,WORD,DIS,150,luna,,el,,223.933,223.9339,-0.492457391,-0.251338229,0,0,0,,0,50,50,62,1,funa,,,,
,,,,,,617305abc8cde4cf0e08255b,676192165fb32c2e1fb7aee6,67d1940ae9e4d94aa5b5466c,2025-03-12_15h17.19.360,Tarea de decisión léxica,2024.2.5,Win32,142.8571429,,,,,,,,,,,,,,,,,,,,,,,223.9348,224.9585,l,1,0.3636,,0.3636,1,224.9587,225.4579,,,,,,136,MAS,NOWORD,DIS,150,geso,,la,,225.458,225.4581,-0.492457391,-0.251338229,0,0,0,,0,51,51,135,1,tubo,,,,
,,,,,,617305abc8cde4cf0e08255b,676192165fb32c2e1fb7aee6,67d1940ae9e4d94aa5b5466c,2025-03-12_15h17.19.360,Tarea de decisión léxica,2024.2.5,Win32,142.8571429,,,,,,,,,,,,,,,,,,,,,,,225.4596,226.6859,a,1,0.5698,,0.5698,1,226.686,227.1854,,,,,,383,FEM,WORD,AGR,150,frase,,la,,227.1855,227.1856,-0.492457391,-0.251338229,0,0,0,,0,52,52,382,1,brame,,,,
,,,,,,617305abc8cde4cf0e08255b,676192165fb32c2e1fb7aee6,67d1940ae9e4d94aa5b5466c,2025-03-12_15h17.19.360,Tarea de decisión léxica,2024.2.5,Win32,142.8571429,,,,,,,,,,,,,,,,,,,,,,,227.187,228.1913,l,1,0.3493,,0.3493,1,228.1914,228.6908,,,,,,328,MAS,NOWORD,DIS,150,lendo,,la,,228.6909,228.691,-0.492457391,-0.251338229,0,0,0,,0,53,53,327,1,fondo,,,,
,,,,,,617305abc8cde4cf0e08255b,676192165fb32c2e1fb7aee6,67d1940ae9e4d94aa5b5466c,2025-03-12_15h17.19.360,Tarea de decisión léxica,2024.2.5,Win32,142.8571429,,,,,,,,,,,,,,,,,,,,,,,228.6927,229.769,l,1,0.4238,,0.4238,1,229.7691,230.2655,,,,,,356,FEM,NOWORD,DIS,150,bepla,,el,,230.2656,230.2658,-0.492457391,-0.251338229,0,0,0,,0,54,54,355,1,regla,,,,
,,,,,,617305abc8cde4cf0e08255b,676192165fb32c2e1fb7aee6,67d1940ae9e4d94aa5b5466c,2025-03-12_15h17.19.360,Tarea de decisión léxica,2024.2.5,Win32,142.8571429,,,,,,,,,,,,,,,,,,,,,,,230.2674,231.2716,a,1,0.3516,,0.3516,1,231.2717,231.7709,,,,,,245,FEM,WORD,DIS,150,madre,,el,,231.7725,231.7734,-0.492457391,-0.251338229,0,0,0,,0,55,55,244,1,pafle,,,,
,,,,,,617305abc8cde4cf0e08255b,676192165fb32c2e1fb7aee6,67d1940ae9e4d94aa5b5466c,2025-03-12_15h17.19.360,Tarea de decisión léxica,2024.2.5,Win32,142.8571429,,,,,,,,,,,,,,,,,,,,,,,231.7741,232.6729,a,1,0.2362,,0.2362,1,232.673,233.1723,,,,,,287,FEM,WORD,AGR,150,lista,,la,,233.1724,233.1725,-0.492457391,-0.251338229,0,0,0,,0,56,56,286,1,fosta,,,,
,,,,,,617305abc8cde4cf0e08255b,676192165fb32c2e1fb7aee6,67d1940ae9e4d94aa5b5466c,2025-03-12_15h17.19.360,Tarea de decisión léxica,2024.2.5,Win32,142.8571429,,,,,,,,,,,,,,,,,,,,,,,233.1745,234.0812,a,1,0.2505,,0.2505,1,234.0813,234.5806,,,,,,251,MAS,WORD,DIS,150,señor,,la,,234.5807,234.5809,-0.492457391,-0.251338229,0,0,0,,0,57,57,250,1,refor,,,,
,,,,,,617305abc8cde4cf0e08255b,676192165fb32c2e1fb7aee6,67d1940ae9e4d94aa5b5466c,2025-03-12_15h17.19.360,Tarea de decisión léxica,2024.2.5,Win32,142.8571429,,,,,,,,,,,,,,,,,,,,,,,234.5822,235.5104,a,1,0.273,,0.273,1,235.5105,236.0097,,,,,,165,FEM,WORD,AGR,150,vela,,la,,236.0098,236.01,-0.492457391,-0.251338229,0,0,0,,0,58,58,164,1,dera,,,,
,,,,,,617305abc8cde4cf0e08255b,676192165fb32c2e1fb7aee6,67d1940ae9e4d94aa5b5466c,2025-03-12_15h17.19.360,Tarea de decisión léxica,2024.2.5,Win32,142.8571429,,,,,,,,,,,,,,,,,,,,,,,236.0113,236.9324,a,1,0.2646,,0.2646,1,236.9325,237.4319,,,,,,99,MAS,WORD,AGR,150,lobo,,el,,237.4334,237.4343,-0.492457391,-0.251338229,0,0,0,,0,59,59,98,1,soro,,,,
,,,,,,617305abc8cde4cf0e08255b,676192165fb32c2e1fb7aee6,67d1940ae9e4d94aa5b5466c,2025-03-12_15h17.19.360,Tarea de decisión léxica,2024.2.5,Win32,142.8571429,,,,,,,,,,,,,,,,,,,,,,,237.435,238.5489,l,0,0.4517,,0.4517,0,238.5499,239.0483,,,,,,389,MAS,WORD,DIS,150,cerdo,,la,,239.0484,239.0485,-0.492457391,-0.251338229,0,0,0,,0,60,60,388,1,cenco,,,,
,,,,,,617305abc8cde4cf0e08255b,676192165fb32c2e1fb7aee6,67d1940ae9e4d94aa5b5466c,2025-03-12_15h17.19.360,Tarea de decisión léxica,2024.2.5,Win32,142.8571429,,,,,,,,,,,,,,,,,,,,,,,239.0499,240.1098,a,1,0.4039,,0.4039,1,240.1109,240.6093,,,,,,409,MAS,WORD,DIS,150,carro,,la,,240.6093,240.6094,-0.492457391,-0.251338229,0,0,0,,0,61,61,408,1,pafro,,,,
,,,,,,617305abc8cde4cf0e08255b,676192165fb32c2e1fb7aee6,67d1940ae9e4d94aa5b5466c,2025-03-12_15h17.19.360,Tarea de decisión léxica,2024.2.5,Win32,142.8571429,,,,,,,,,,,,,,,,,,,,,,,240.6107,241.6152,l,1,0.3502,,0.3502,1,241.6153,242.1146,,,,,,474,FEM,NOWORD,AGR,150,felia,,la,,242.1147,242.115,-0.492457391,-0.251338229,0,0,0,,0,62,62,473,1,feria,,,,
,,,,,,617305abc8cde4cf0e08255b,676192165fb32c2e1fb7aee6,67d1940ae9e4d94aa5b5466c,2025-03-12_15h17.19.360,Tarea de decisión léxica,2024.2.5,Win32,142.8571429,,,,,,,,,,,,,,,,,,,,,,,242.1168,243.183,a,1,0.4124,,0.4124,1,243.1832,243.6826,,,,,,243,MAS,WORD,AGR,150,amigo,,el,,243.6827,243.6828,-0.492457391,-0.251338229,0,0,0,,0,63,63,242,1,asamo,,,,
,,,,,,617305abc8cde4cf0e08255b,676192165fb32c2e1fb7aee6,67d1940ae9e4d94aa5b5466c,2025-03-12_15h17.19.360,Tarea de decisión léxica,2024.2.5,Win32,142.8571429,,,,,,,,,,,,,,,,,,,,,,,243.6846,244.6191,a,1,0.2802,,0.2802,1,244.6193,245.1185,,,,,,53,FEM,WORD,AGR,150,boda,,la,,245.1201,245.121,-0.492457391,-0.251338229,0,0,0,,0,64,64,52,1,rora,,,,
,,,,,,617305abc8cde4cf0e08255b,676192165fb32c2e1fb7aee6,67d1940ae9e4d94aa5b5466c,2025-03-12_15h17.19.360,Tarea de decisión léxica,2024.2.5,Win32,142.8571429,,,,,,,,,,,,,,,,,,,,,,,245.1218,246.076,a,1,0.2926,,0.2926,1,246.0761,246.5753,,,,,,441,FEM,WORD,DIS,150,selva,,el,,246.5755,246.5756,-0.492457391,-0.251338229,0,0,0,,0,65,65,440,1,telza,,,,
,,,,,,617305abc8cde4cf0e08255b,676192165fb32c2e1fb7aee6,67d1940ae9e4d94aa5b5466c,2025-03-12_15h17.19.360,Tarea de decisión léxica,2024.2.5,Win32,142.8571429,,,,,,,,,,,,,,,,,,,,,,,246.5769,247.5744,a,1,0.3411,,0.3411,1,247.5747,248.0738,,,,,,21,MAS,WORD,DIS,150,plan,,la,,248.074,248.0742,-0.492457391,-0.251338229,0,0,0,,0,66,66,20,1,blan,,,,
,,,,,,617305abc8cde4cf0e08255b,676192165fb32c2e1fb7aee6,67d1940ae9e4d94aa5b5466c,2025-03-12_15h17.19.360,Tarea de decisión léxica,2024.2.5,Win32,142.8571429,,,,,,,,,,,,,,,,,,,,,,,248.0757,249.1248,l,1,0.3961,,0.3961,1,249.1249,249.6209,,,,,,72,FEM,NOWORD,DIS,150,urla,,el,,249.6209,249.6211,-0.492457391,-0.251338229,0,0,0,,0,67,67,71,1,isla,,,,
,,,,,,617305abc8cde4cf0e08255b,676192165fb32c2e1fb7aee6,67d1940ae9e4d94aa5b5466c,2025-03-12_15h17.19.360,Tarea de decisión léxica,2024.2.5,Win32,142.8571429,,,,,,,,,,,,,,,,,,,,,,,249.6223,250.731,l,1,0.454,,0.454,1,250.731,251.2304,,,,,,456,MAS,NOWORD,DIS,150,riaso,,la,,251.2304,251.2307,-0.492457391,-0.251338229,0,0,0,,0,68,68,455,1,reino,,,,
,,,,,,617305abc8cde4cf0e08255b,676192165fb32c2e1fb7aee6,67d1940ae9e4d94aa5b5466c,2025-03-12_15h17.19.360,Tarea de decisión léxica,2024.2.5,Win32,142.8571429,,,,,,,,,,,,,,,,,,,,,,,251.232,252.1808,a,0,0.292,,0.292,0,252.1817,252.6803,,,,,,26,FEM,NOWORD,AGR,150,paza,,la,,252.6818,252.6828,-0.492457391,-0.251338229,0,0,0,,0,69,69,25,1,cama,,,,
,,,,,,617305abc8cde4cf0e08255b,676192165fb32c2e1fb7aee6,67d1940ae9e4d94aa5b5466c,2025-03-12_15h17.19.360,Tarea de decisión léxica,2024.2.5,Win32,142.8571429,,,,,,,,,,,,,,,,,,,,,,,252.6837,253.7281,a,1,0.3849,,0.3849,1,253.7291,254.2274,,,,,,355,FEM,WORD,AGR,150,regla,,la,,254.2275,254.2276,-0.492457391,-0.251338229,0,0,0,,0,70,70,354,1,bepla,,,,
,,,,,,617305abc8cde4cf0e08255b,676192165fb32c2e1fb7aee6,67d1940ae9e4d94aa5b5466c,2025-03-12_15h17.19.360,Tarea de decisión léxica,2024.2.5,Win32,142.8571429,,,,,,,,,,,,,,,,,,,,,,,254.2289,255.171,a,1,0.2853,,0.2853,1,255.1711,255.6704,,,,,,105,FEM,WORD,AGR,150,sopa,,la,,255.6705,255.6707,-0.492457391,-0.251338229,0,0,0,,0,71,71,104,1,vina,,,,
,,,,,,617305abc8cde4cf0e08255b,676192165fb32c2e1fb7aee6,67d1940ae9e4d94aa5b5466c,2025-03-12_15h17.19.360,Tarea de decisión léxica,2024.2.5,Win32,142.8571429,,,,,,,,,,,,,,,,,,,,,,,255.6719,256.5824,l,1,0.2573,,0.2573,1,256.5827,257.0787,,,,,,426,FEM,NOWORD,AGR,150,virca,,la,,257.0787,257.0788,-0.492457391,-0.251338229,0,0,0,,0,72,72,425,1,viuda,,,,
,,,,,,617305abc8cde4cf0e08255b,676192165fb32c2e1fb7aee6,67d1940ae9e4d94aa5b5466c,2025-03-12_15h17.19.360,Tarea de decisión léxica,2024.2.5,Win32,142.8571429,,,,,,,,,,,,,,,,,,,,,,,257.08,258.0459,a,1,0.3057,,0.3057,1,258.0461,258.5424,,,,,,233,FEM,WORD,DIS,150,lana,,el,,258.5424,258.5426,-0.492457391,-0.251338229,0,0,0,,0,73,73,232,1,fasa,,,,
,,,,,,617305abc8cde4cf0e08255b,676192165fb32c2e1fb7aee6,67d1940ae9e4d94aa5b5466c,2025-03-12_15h17.19.360,Tarea de decisión léxica,2024.2.5,Win32,142.8571429,,,,,,,,,,,,,,,,,,,,,,,258.5438,259.5277,a,1,0.3301,,0.3301,1,259.5278,260.027,,,,,,189,MAS,WORD,AGR,150,puño,,el,,260.0284,260.0294,-0.492457391,-0.251338229,0,0,0,,0,74,74,188,1,muvo,,,,
,,,,,,617305abc8cde4cf0e08255b,676192165fb32c2e1fb7aee6,67d1940ae9e4d94aa5b5466c,2025-03-12_15h17.19.360,Tarea de decisión léxica,2024.2.5,Win32,142.8571429,,,,,,,,,,,,,,,,,,,,,,,260.0303,260.9359,l,1,0.2465,,0.2465,1,260.936,261.4356,,,,,,478,MAS,NOWORD,AGR,150,hocon,,el,,261.4357,261.4358,-0.492457391,-0.251338229,0,0,0,,0,75,75,477,1,botón,,,,
,,,,,,617305abc8cde4cf0e08255b,676192165fb32c2e1fb7aee6,67d1940ae9e4d94aa5b5466c,2025-03-12_15h17.19.360,Tarea de decisión léxica,2024.2.5,Win32,142.8571429,,,,,,,,,,,,,,,,,,,,,,,261.437,262.4553,a,1,0.3654,,0.3654,1,262.4553,262.9546,,,,,,175,FEM,WORD,DIS,150,goma,,el,,262.9547,262.9548,-0.492457391,-0.251338229,0,0,0,,0,76,76,174,1,hosa,,,,
,,,,,,617305abc8cde4cf0e08255b,676192165fb32c2e1fb7aee6,67d1940ae9e4d94aa5b5466c,2025-03-12_15h17.19.360,Tarea de decisión léxica,2024.2.5,Win32,142.8571429,,,,,,,,,,,,,,,,,,,,,,,262.956,264.2868,l,1,0.6732,,0.6732,1,264.2869,264.7862,,,,,,378,MAS,NOWORD,AGR,150,gaulo,,el,,264.7862,264.7865,-0.492457391,-0.251338229,0,0,0,,0,77,77,377,1,hielo,,,,
,,,,,,617305abc8cde4cf0e08255b,676192165fb32c2e1fb7aee6,67d1940ae9e4d94aa5b5466c,2025-03-12_15h17.19.360,Tarea de decisión léxica,2024.2.5,Win32,142.8571429,,,,,,,,,,,,,,,,,,,,,,,264.7877,265.8407,l,1,0.3989,,0.3989,1,265.8408,266.3402,,,,,,6,FEM,NOWORD,AGR,150,poga,,la,,266.3403,266.3404,-0.492457391,-0.251338229,0,0,0,,0,78,78,5,1,cosa,,,,
,,,,,,617305abc8cde4cf0e08255b,676192165fb32c2e1fb7aee6,67d1940ae9e4d94aa5b5466c,2025-03-12_15h17.19.360,Tarea de decisión léxica,2024.2.5,Win32,142.8571429,,,,,,,,,,,,,,,,,,,,,,,266.3417,267.36,l,1,0.3612,,0.3612,1,267.3601,267.8594,,,,,,98,MAS,NOWORD,AGR,150,fopo,,el,,267.8609,267.8617,-0.492457391,-0.251338229,0,0,0,,0,79,79,97,1,mono,,,,
,,,,,,617305abc8cde4cf0e08255b,676192165fb32c2e1fb7aee6,67d1940ae9e4d94aa5b5466c,2025-03-12_15h17.19.360,Tarea de decisión léxica,2024.2.5,Win32,142.8571429,,,,,,,,,,,,,,,,,,,,,,,267.8627,268.9139,a,0,0.3929,,0.3929,0,268.9149,269.4134,,,,,,160,MAS,NOWORD,DIS,150,bilo,,la,,269.4135,269.4135,-0.492457391,-0.251338229,0,0,0,,0,80,80,159,1,giro,,,,
,,,,,,617305abc8cde4cf0e08255b,676192165fb32c2e1fb7aee6,67d1940ae9e4d94aa5b5466c,2025-03-12_15h17.19.360,Tarea de decisión léxica,2024.2.5,Win32,142.8571429,,,,,,,,,,,,,,,,,,,,,,,269.415,270.3641,a,1,0.2923,,0.2923,1,270.365,270.8634,,,,,,319,MAS,WORD,DIS,150,suelo,,la,,270.8635,270.8636,-0.492457391,-0.251338229,0,0,0,,0,81,81,318,1,tuero,,,,
,,,,,,617305abc8cde4cf0e08255b,676192165fb32c2e1fb7aee6,67d1940ae9e4d94aa5b5466c,2025-03-12_15h17.19.360,Tarea de decisión léxica,2024.2.5,Win32,142.8571429,,,,,,,,,,,,,,,,,,,,,,,270.8645,271.9317,a,1,0.4131,,0.4131,1,271.9319,272.4313,,,,,,363,FEM,WORD,DIS,150,deuda,,el,,272.4314,272.4315,-0.492457391,-0.251338229,0,0,0,,0,82,82,362,1,veida,,,,
,,,,,,617305abc8cde4cf0e08255b,676192165fb32c2e1fb7aee6,67d1940ae9e4d94aa5b5466c,2025-03-12_15h17.19.360,Tarea de decisión léxica,2024.2.5,Win32,142.8571429,,,,,,,,,,,,,,,,,,,,,,,272.4328,273.3986,a,1,0.3059,,0.3059,1,273.3987,273.8974,,,,,,427,FEM,WORD,DIS,150,oreja,,el,,273.8983,273.899,-0.492457391,-0.251338229,0,0,0,,0,83,83,426,1,oseva,,,,
,,,,,,617305abc8cde4cf0e08255b,676192165fb32c2e1fb7aee6,67d1940ae9e4d94aa5b5466c,2025-03-12_15h17.19.360,Tarea de decisión léxica,2024.2.5,Win32,142.8571429,,,,,,,,,,,,,,,,,,,,,,,273.8998,274.9287,a,1,0.3645,,0.3645,1,274.9288,275.4283,,,,,,395,FEM,WORD,AGR,150,caída,,la,,275.4283,275.4284,-0.492457391,-0.251338229,0,0,0,,0,84,84,394,1,paeda,,,,
,,,,,,617305abc8cde4cf0e08255b,676192165fb32c2e1fb7aee6,67d1940ae9e4d94aa5b5466c,2025-03-12_15h17.19.360,Tarea de decisión léxica,2024.2.5,Win32,142.8571429,,,,,,,,,,,,,,,,,,,,,,,275.4297,276.5937,l,1,0.5074,,0.5074,1,276.5937,277.0933,,,,,,146,MAS,NOWORD,AGR,150,nobo,,el,,277.0934,277.0935,-0.492457391,-0.251338229,0,0,0,,0,85,85,145,1,león,,,,
,,,,,,617305abc8cde4cf0e08255b,676192165fb32c2e1fb7aee6,67d1940ae9e4d94aa5b5466c,2025-03-12_15h17.19.360,Tarea de decisión léxica,2024.2.5,Win32,142.8571429,,,,,,,,,,,,,,,,,,,,,,,277.0951,278.1962,a,0,0.4476,,0.4476,0,278.1973,278.6958,,,,,,102,MAS,NOWORD,AGR,150,gito,,el,,278.6958,278.6959,-0.492457391,-0.251338229,0,0,0,,0,86,86,101,1,tono,,,,
,,,,,,617305abc8cde4cf0e08255b,676192165fb32c2e1fb7aee6,67d1940ae9e4d94aa5b5466c,2025-03-12_15h17.19.360,Tarea de decisión léxica,2024.2.5,Win32,142.8571429,,,,,,,,,,,,,,,,,,,,,,,278.6974,279.7088,a,1,0.3575,,0.3575,1,279.71,280.208,,,,,,11,MAS,WORD,DIS,150,lado,,la,,280.2082,280.2085,-0.492457391,-0.251338229,0,0,0,,0,87,87,10,1,bapo,,,,
,,,,,,617305abc8cde4cf0e08255b,676192165fb32c2e1fb7aee6,67d1940ae9e4d94aa5b5466c,2025-03-12_15h17.19.360,Tarea de decisión léxica,2024.2.5,Win32,142.8571429,,,,,,,,,,,,,,,,,,,,,,,280.2099,281.2002,a,1,0.337,,0.337,1,281.2003,281.6995,,,,,,253,MAS,WORD,AGR,150,chico,,el,,281.7007,281.7017,-0.492457391,-0.251338229,0,0,0,,0,88,88,252,1,trido,,,,
,,,,,,617305abc8cde4cf0e08255b,676192165fb32c2e1fb7aee6,67d1940ae9e4d94aa5b5466c,2025-03-12_15h17.19.360,Tarea de decisión léxica,2024.2.5,Win32,142.8571429,,,,,,,,,,,,,,,,,,,,,,,281.7024,282.8928,a,1,0.5281,,0.5281,1,282.893,283.3924,,,,,,219,FEM,WORD,DIS,150,pipa,,el,,283.3925,283.3926,-0.492457391,-0.251338229,0,0,0,,0,89,89,218,1,miva,,,,
,,,,,,617305abc8cde4cf0e08255b,676192165fb32c2e1fb7aee6,67d1940ae9e4d94aa5b5466c,2025-03-12_15h17.19.360,Tarea de decisión léxica,2024.2.5,Win32,142.8571429,,,,,,,,,,,,,,,,,,,,,,,283.3941,284.419,l,1,0.3704,,0.3704,1,284.4191,284.9185,,,,,,230,MAS,NOWORD,AGR,150,ador,,el,,284.9186,284.9187,-0.492457391,-0.251338229,0,0,0,,0,90,90,229,1,amor,,,,
,,,,,,617305abc8cde4cf0e08255b,676192165fb32c2e1fb7aee6,67d1940ae9e4d94aa5b5466c,2025-03-12_15h17.19.360,Tarea de decisión léxica,2024.2.5,Win32,142.8571429,,,,,,,,,,,,,,,,,,,,,,,284.9202,286.0594,l,1,0.4864,,0.4864,1,286.0595,286.556,,,,,,2,FEM,NOWORD,AGR,150,mada,,la,,286.556,286.5562,-0.492457391,-0.251338229,0,0,0,,0,91,91,1,1,casa,,,,
,,,,,,617305abc8cde4cf0e08255b,676192165fb32c2e1fb7aee6,67d1940ae9e4d94aa5b5466c,2025-03-12_15h17.19.360,Tarea de decisión léxica,2024.2.5,Win32,142.8571429,,,,,,,,,,,,,,,,,,,,,,,286.5576,287.6033,a,1,0.3894,,0.3894,1,287.6035,288.1028,,,,,,197,MAS,WORD,DIS,150,bate,,la,,288.1028,288.1029,-0.492457391,-0.251338229,0,0,0,,0,92,92,196,1,dade,,,,
,,,,,,617305abc8cde4cf0e08255b,676192165fb32c2e1fb7aee6,67d1940ae9e4d94aa5b5466c,2025-03-12_15h17.19.360,Tarea de decisión léxica,2024.2.5,Win32,142.8571429,,,,,,,,,,,,,,,,,,,,,,,288.1042,289.1712,l,0,0.4125,,0.4125,0,289.1722,289.6706,,,,,,67,FEM,WORD,AGR,150,nena,,la,,289.6719,289.673,-0.492457391,-0.251338229,0,0,0,,0,93,93,66,1,gesa,,,,
,,,,,,617305abc8cde4cf0e08255b,676192165fb32c2e1fb7aee6,67d1940ae9e4d94aa5b5466c,2025-03-12_15h17.19.360,Tarea de decisión léxica,2024.2.5,Win32,142.8571429,,,,,,,,,,,,,,,,,,,,,,,289.6737,290.8778,l,1,0.5413,,0.5413,1,290.8785,291.3773,,,,,,96,FEM,NOWORD,DIS,151,neda,,el,,291.3774,291.3774,-0.492457391,-0.251338229,0,0,0,,0,94,94,95,1,moda,,,,
,,,,,,617305abc8cde4cf0e08255b,676192165fb32c2e1fb7aee6,67d1940ae9e4d94aa5b5466c,2025-03-12_15h17.19.360,Tarea de decisión léxica,2024.2.5,Win32,142.8571429,,,,,,,,,,,,,,,,,,,,,,,291.3786,292.5018,l,1,0.4701,,0.4701,1,292.5019,293.0006,,,,,,124,FEM,NOWORD,DIS,150,maba,,el,,293.0006,293.0008,-0.492457391,-0.251338229,0,0,0,,0,95,95,123,1,flor,,,,
,,,,,,617305abc8cde4cf0e08255b,676192165fb32c2e1fb7aee6,67d1940ae9e4d94aa5b5466c,2025-03-12_15h17.19.360,Tarea de decisión léxica,2024.2.5,Win32,142.8571429,,,,,,,,,,,,,,,,,,,,,,,293.0018,294.0204,a,1,0.3633,,0.3633,1,294.0204,294.5199,,,,,,303,MAS,WORD,AGR,150,barco,,el,,294.52,294.5201,-0.492457391,-0.251338229,0,0,0,,0,96,96,302,1,lanco,,,,
,,,,,,617305abc8cde4cf0e08255b,676192165fb32c2e1fb7aee6,67d1940ae9e4d94aa5b5466c,2025-03-12_15h17.19.360,Tarea de decisión léxica,2024.2.5,Win32,142.8571429,,,,,,,,,,,,,,,,,,,,,,,294.5217,295.4868,a,1,0.3122,,0.3122,1,295.4869,295.9837,,,,,,415,FEM,WORD,AGR,150,jaula,,la,,295.9838,295.984,-0.492457391,-0.251338229,0,0,0,,0,97,97,414,1,juira,,,,
,,,,,,617305abc8cde4cf0e08255b,676192165fb32c2e1fb7aee6,67d1940ae9e4d94aa5b5466c,2025-03-12_15h17.19.360,Tarea de decisión léxica,2024.2.5,Win32,142.8571429,,,,,,,,,,,,,,,,,,,,,,,295.9854,296.9134,a,1,0.2707,,0.2707,1,296.9135,297.4129,,,,,,267,MAS,WORD,AGR,150,libro,,el,,297.4142,297.4157,-0.492457391,-0.251338229,0,0,0,,0,98,98,266,1,figro,,,,
,,,,,,617305abc8cde4cf0e08255b,676192165fb32c2e1fb7aee6,67d1940ae9e4d94aa5b5466c,2025-03-12_15h17.19.360,Tarea de decisión léxica,2024.2.5,Win32,142.8571429,,,,,,,,,,,,,,,,,,,,,,,297.4165,298.4556,l,0,0.3815,,0.3815,0,298.4564,298.9529,,,,,,417,FEM,WORD,DIS,150,barba,,el,,298.9529,298.9531,-0.492457391,-0.251338229,0,0,0,,0,99,99,416,1,banja,,,,
,,,,,,617305abc8cde4cf0e08255b,676192165fb32c2e1fb7aee6,67d1940ae9e4d94aa5b5466c,2025-03-12_15h17.19.360,Tarea de decisión léxica,2024.2.5,Win32,142.8571429,,,,,,,,,,,,,,,,,,,,,,,298.9543,300.0352,l,1,0.4241,,0.4241,1,300.0363,300.5347,,,,,,410,MAS,NOWORD,AGR,150,pafro,,el,,300.5348,300.5349,-0.492457391,-0.251338229,0,0,0,,0,100,100,409,1,carro,,,,
,,,,,,617305abc8cde4cf0e08255b,676192165fb32c2e1fb7aee6,67d1940ae9e4d94aa5b5466c,2025-03-12_15h17.19.360,Tarea de decisión léxica,2024.2.5,Win32,142.8571429,,,,,,,,,,,,,,,,,,,,,,,300.5363,301.5823,a,1,0.3901,,0.3901,1,301.5823,302.0818,,,,,,333,FEM,WORD,AGR,150,tarea,,la,,302.0818,302.082,-0.492457391,-0.251338229,0,0,0,,0,101,101,332,1,dalea,,,,
,,,,,,617305abc8cde4cf0e08255b,676192165fb32c2e1fb7aee6,67d1940ae9e4d94aa5b5466c,2025-03-12_15h17.19.360,Tarea de decisión léxica,2024.2.5,Win32,142.8571429,,,,,,,,,,,,,,,,,,,,,,,302.0834,303.1159,l,1,0.3796,,0.3796,1,303.116,303.6148,,,,,,150,MAS,NOWORD,AGR,150,pafo,,el,,303.6149,303.615,-0.492457391,-0.251338229,0,0,0,,0,102,102,149,1,cabo,,,,
,,,,,,617305abc8cde4cf0e08255b,676192165fb32c2e1fb7aee6,67d1940ae9e4d94aa5b5466c,2025-03-12_15h17.19.360,Tarea de decisión léxica,2024.2.5,Win32,142.8571429,,,,,,,,,,,,,,,,,,,,,,,303.6163,304.6209,a,1,0.3472,,0.3472,1,304.6209,305.1203,,,,,,373,FEM,WORD,AGR,150,pizza,,la,,305.1216,305.1225,-0.492457391,-0.251338229,0,0,0,,0,103,103,372,1,pogza,,,,
,,,,,,617305abc8cde4cf0e08255b,676192165fb32c2e1fb7aee6,67d1940ae9e4d94aa5b5466c,2025-03-12_15h17.19.360,Tarea de decisión léxica,2024.2.5,Win32,142.8571429,,,,,,,,,,,,,,,,,,,,,,,305.1233,306.1471,a,1,0.3615,,0.3615,1,306.1472,306.6465,,,,,,163,FEM,WORD,DIS,150,fama,,el,,306.6466,306.6467,-0.492457391,-0.251338229,0,0,0,,0,104,104,162,1,laga,,,,
,,,,,,617305abc8cde4cf0e08255b,676192165fb32c2e1fb7aee6,67d1940ae9e4d94aa5b5466c,2025-03-12_15h17.19.360,Tarea de decisión léxica,2024.2.5,Win32,142.8571429,,,,,,,,,,,,,,,,,,,,,,,306.6479,307.6177,a,1,0.3128,,0.3128,1,307.6178,308.1174,,,,,,281,MAS,WORD,AGR,150,cielo,,el,,308.1174,308.1176,-0.492457391,-0.251338229,0,0,0,,0,105,105,280,1,cauro,,,,
,,,,,,617305abc8cde4cf0e08255b,676192165fb32c2e1fb7aee6,67d1940ae9e4d94aa5b5466c,2025-03-12_15h17.19.360,Tarea de decisión léxica,2024.2.5,Win32,142.8571429,,,,,,,,,,,,,,,,,,,,,,,308.1188,309.0191,a,1,0.243,,0.243,1,309.0192,309.5186,,,,,,33,FEM,WORD,AGR,150,boca,,la,,309.5187,309.5188,-0.492457391,-0.251338229,0,0,0,,0,106,106,32,1,loda,,,,
,,,,,,617305abc8cde4cf0e08255b,676192165fb32c2e1fb7aee6,67d1940ae9e4d94aa5b5466c,2025-03-12_15h17.19.360,Tarea de decisión léxica,2024.2.5,Win32,142.8571429,,,,,,,,,,,,,,,,,,,,,,,309.5198,310.6565,l,1,0.4801,,0.4801,1,310.6565,311.1561,,,,,,18,FEM,NOWORD,AGR,150,paba,,la,,311.1579,311.1591,-0.492457391,-0.251338229,0,0,0,,0,107,107,17,1,mamá,,,,
,,,,,,617305abc8cde4cf0e08255b,676192165fb32c2e1fb7aee6,67d1940ae9e4d94aa5b5466c,2025-03-12_15h17.19.360,Tarea de decisión léxica,2024.2.5,Win32,142.8571429,,,,,,,,,,,,,,,,,,,,,,,311.1602,312.2173,a,1,0.3969,,0.3969,1,312.2174,312.7129,,,,,,137,MAS,WORD,AGR,150,nene,,el,,312.713,312.713,-0.492457391,-0.251338229,0,0,0,,0,108,108,136,1,pamo,,,,
,,,,,,617305abc8cde4cf0e08255b,676192165fb32c2e1fb7aee6,67d1940ae9e4d94aa5b5466c,2025-03-12_15h17.19.360,Tarea de decisión léxica,2024.2.5,Win32,142.8571429,,,,,,,,,,,,,,,,,,,,,,,312.7149,313.8337,l,1,0.4583,,0.4583,1,313.8339,314.3332,,,,,,462,FEM,NOWORD,AGR,150,pagra,,la,,314.3333,314.3335,-0.492457391,-0.251338229,0,0,0,,0,109,109,461,1,tabla,,,,
,,,,,,617305abc8cde4cf0e08255b,676192165fb32c2e1fb7aee6,67d1940ae9e4d94aa5b5466c,2025-03-12_15h17.19.360,Tarea de decisión léxica,2024.2.5,Win32,142.8571429,,,,,,,,,,,,,,,,,,,,,,,314.3346,315.7763,l,1,0.786,,0.786,1,315.7763,316.2757,,,,,,354,FEM,NOWORD,AGR,150,cezca,,la,,316.2757,316.2758,-0.492457391,-0.251338229,0,0,0,,0,110,110,353,1,celda,,,,
,,,,,,617305abc8cde4cf0e08255b,676192165fb32c2e1fb7aee6,67d1940ae9e4d94aa5b5466c,2025-03-12_15h17.19.360,Tarea de decisión léxica,2024.2.5,Win32,142.8571429,,,,,,,,,,,,,,,,,,,,,,,316.2768,317.3926,l,1,0.4591,,0.4591,1,317.3927,317.8922,,,,,,376,FEM,NOWORD,DIS,150,sasna,,el,,317.8922,317.8923,-0.492457391,-0.251338229,0,0,0,,0,111,111,375,1,salsa,,,,
,,,,,,617305abc8cde4cf0e08255b,676192165fb32c2e1fb7aee6,67d1940ae9e4d94aa5b5466c,2025-03-12_15h17.19.360,Tarea de decisión léxica,2024.2.5,Win32,142.8571429,,,,,,,,,,,,,,,,,,,,,,,317.8934,318.9813,a,1,0.4303,,0.4303,1,318.9813,319.4807,,,,,,337,MAS,WORD,AGR,150,huevo,,el,,319.4821,319.4828,-0.492457391,-0.251338229,0,0,0,,0,112,112,336,1,nuejo,,,,
,,,,,,617305abc8cde4cf0e08255b,676192165fb32c2e1fb7aee6,67d1940ae9e4d94aa5b5466c,2025-03-12_15h17.19.360,Tarea de decisión léxica,2024.2.5,Win32,142.8571429,,,,,,,,,,,,,,,,,,,,,,,319.4835,320.4868,a,1,0.3412,,0.3412,1,320.4868,320.9861,,,,,,435,MAS,WORD,AGR,150,ritmo,,el,,320.9861,320.9863,-0.492457391,-0.251338229,0,0,0,,0,113,113,434,1,ricno,,,,
,,,,,,617305abc8cde4cf0e08255b,676192165fb32c2e1fb7aee6,67d1940ae9e4d94aa5b5466c,2025-03-12_15h17.19.360,Tarea de decisión léxica,2024.2.5,Win32,142.8571429,,,,,,,,,,,,,,,,,,,,,,,320.9874,322.1864,l,1,0.5418,,0.5418,1,322.1865,322.6859,,,,,,460,MAS,NOWORD,DIS,150,fraco,,la,,322.686,322.6861,-0.492457391,-0.251338229,0,0,0,,0,114,114,459,1,grado,,,,
,,,,,,617305abc8cde4cf0e08255b,676192165fb32c2e1fb7aee6,67d1940ae9e4d94aa5b5466c,2025-03-12_15h17.19.360,Tarea de decisión léxica,2024.2.5,Win32,142.8571429,,,,,,,,,,,,,,,,,,,,,,,322.6873,323.782,l,1,0.4411,,0.4411,1,323.782,324.2814,,,,,,302,FEM,NOWORD,AGR,150,ranga,,la,,324.2815,324.2816,-0.492457391,-0.251338229,0,0,0,,0,115,115,301,1,banda,,,,
,,,,,,617305abc8cde4cf0e08255b,676192165fb32c2e1fb7aee6,67d1940ae9e4d94aa5b5466c,2025-03-12_15h17.19.360,Tarea de decisión léxica,2024.2.5,Win32,142.8571429,,,,,,,,,,,,,,,,,,,,,,,324.2829,325.3083,l,1,0.3695,,0.3695,1,325.3084,325.8078,,,,,,362,FEM,NOWORD,AGR,150,solle,,la,,325.8079,325.8079,-0.492457391,-0.251338229,0,0,0,,0,116,116,361,1,torre,,,,
,,,,,,617305abc8cde4cf0e08255b,676192165fb32c2e1fb7aee6,67d1940ae9e4d94aa5b5466c,2025-03-12_15h17.19.360,Tarea de decisión léxica,2024.2.5,Win32,142.8571429,,,,,,,,,,,,,,,,,,,,,,,325.8093,326.8068,l,1,0.3433,,0.3433,1,326.8068,327.3062,,,,,,370,MAS,NOWORD,AGR,150,rioco,,el,,327.3074,327.3082,-0.492457391,-0.251338229,0,0,0,,0,117,117,369,1,ruido,,,,
,,,,,,617305abc8cde4cf0e08255b,676192165fb32c2e1fb7aee6,67d1940ae9e4d94aa5b5466c,2025-03-12_15h17.19.360,Tarea de decisión léxica,2024.2.5,Win32,142.8571429,,,,,,,,,,,,,,,,,,,,,,,327.3089,328.2942,a,1,0.3261,,0.3261,1,328.2943,328.7908,,,,,,15,FEM,WORD,DIS,150,idea,,el,,328.7909,328.791,-0.492457391,-0.251338229,0,0,0,,0,118,118,14,1,odea,,,,
,,,,,,617305abc8cde4cf0e08255b,676192165fb32c2e1fb7aee6,67d1940ae9e4d94aa5b5466c,2025-03-12_15h17.19.360,Tarea de decisión léxica,2024.2.5,Win32,142.8571429,,,,,,,,,,,,,,,,,,,,,,,328.7923,329.8107,a,1,0.3624,,0.3624,1,329.8108,330.31,,,,,,377,MAS,WORD,AGR,150,hielo,,el,,330.3102,330.3102,-0.492457391,-0.251338229,0,0,0,,0,119,119,376,1,gaulo,,,,
,,,,,,617305abc8cde4cf0e08255b,676192165fb32c2e1fb7aee6,67d1940ae9e4d94aa5b5466c,2025-03-12_15h17.19.360,Tarea de decisión léxica,2024.2.5,Win32,142.8571429,,,,,,,,,,,,,,,,,,,,,,,330.3116,331.3022,a,1,0.3334,,0.3334,1,331.3023,331.8015,,,,,,401,MAS,WORD,AGR,150,polvo,,el,,331.8017,331.8017,-0.492457391,-0.251338229,0,0,0,,0,120,120,400,1,pirvo,,,,
,,,,,,617305abc8cde4cf0e08255b,676192165fb32c2e1fb7aee6,67d1940ae9e4d94aa5b5466c,2025-03-12_15h17.19.360,Tarea de decisión léxica,2024.2.5,Win32,142.8571429,,,,,,,,,,,,,,,,,,,,,,,331.803,332.8422,a,1,0.3821,,0.3821,1,332.8423,333.3417,,,,,,185,MAS,WORD,AGR,150,baúl,,el,,333.3417,333.3418,-0.492457391,-0.251338229,0,0,0,,0,121,121,184,1,raol,,,,
,,,,,,617305abc8cde4cf0e08255b,676192165fb32c2e1fb7aee6,67d1940ae9e4d94aa5b5466c,2025-03-12_15h17.19.360,Tarea de decisión léxica,2024.2.5,Win32,142.8571429,,,,,,,,,,,,,,,,,,,,,,,333.3429,334.2991,l,1,0.2989,,0.2989,1,334.2992,334.7987,,,,,,314,MAS,NOWORD,AGR,150,govio,,el,,334.7999,334.8008,-0.492457391,-0.251338229,0,0,0,,0,122,122,313,1,novio,,,,
,,,,,,617305abc8cde4cf0e08255b,676192165fb32c2e1fb7aee6,67d1940ae9e4d94aa5b5466c,2025-03-12_15h17.19.360,Tarea de decisión léxica,2024.2.5,Win32,142.8571429,,,,,,,,,,,,,,,,,,,,,,,334.8015,335.9087,a,1,0.4391,,0.4391,1,335.9088,336.4052,,,,,,325,FEM,WORD,DIS,150,magia,,el,,336.4053,336.4055,-0.492457391,-0.251338229,0,0,0,,0,123,123,324,1,mabia,,,,
,,,,,,617305abc8cde4cf0e08255b,676192165fb32c2e1fb7aee6,67d1940ae9e4d94aa5b5466c,2025-03-12_15h17.19.360,Tarea de decisión léxica,2024.2.5,Win32,142.8571429,,,,,,,,,,,,,,,,,,,,,,,336.407,337.4071,l,1,0.3416,,0.3416,1,337.4072,337.9065,,,,,,270,MAS,NOWORD,AGR,150,mello,,el,,337.9066,337.9067,-0.492457391,-0.251338229,0,0,0,,0,124,124,269,1,perro,,,,
,,,,,,617305abc8cde4cf0e08255b,676192165fb32c2e1fb7aee6,67d1940ae9e4d94aa5b5466c,2025-03-12_15h17.19.360,Tarea de decisión léxica,2024.2.5,Win32,142.8571429,,,,,,,,,,,,,,,,,,,,,,,337.9077,338.8778,a,1,0.3156,,0.3156,1,338.878,339.3775,,,,,,471,FEM,WORD,AGR,150,grasa,,la,,339.3775,339.3777,-0.492457391,-0.251338229,0,0,0,,0,125,125,470,1,prana,,,,
,,,,,,617305abc8cde4cf0e08255b,676192165fb32c2e1fb7aee6,67d1940ae9e4d94aa5b5466c,2025-03-12_15h17.19.360,Tarea de decisión léxica,2024.2.5,Win32,142.8571429,,,,,,,,,,,,,,,,,,,,,,,339.379,340.3624,l,1,0.3268,,0.3268,1,340.3625,340.8619,,,,,,384,FEM,NOWORD,DIS,150,brame,,el,,340.862,340.8622,-0.492457391,-0.251338229,0,0,0,,0,126,126,383,1,frase,,,,
,,,,,,617305abc8cde4cf0e08255b,676192165fb32c2e1fb7aee6,67d1940ae9e4d94aa5b5466c,2025-03-12_15h17.19.360,Tarea de decisión léxica,2024.2.5,Win32,142.8571429,,,,,,,,,,,,,,,,,,,,,,,340.8635,341.854,a,1,0.3336,,0.3336,1,341.854,342.3535,,,,,,227,MAS,WORD,DIS,150,faro,,la,,342.3548,342.3556,-0.492457391,-0.251338229,0,0,0,,0,127,127,226,1,laro,,,,
,,,,,,617305abc8cde4cf0e08255b,676192165fb32c2e1fb7aee6,67d1940ae9e4d94aa5b5466c,2025-03-12_15h17.19.360,Tarea de decisión léxica,2024.2.5,Win32,142.8571429,,,,,,,,,,,,,,,,,,,,,,,342.3564,343.3733,l,1,0.3546,,0.3546,1,343.3734,343.8728,,,,,,28,MAS,NOWORD,DIS,150,ravo,,la,,343.8729,343.873,-0.492457391,-0.251338229,0,0,0,,0,128,128,27,1,baño,,,,
,,,,,,617305abc8cde4cf0e08255b,676192165fb32c2e1fb7aee6,67d1940ae9e4d94aa5b5466c,2025-03-12_15h17.19.360,Tarea de decisión léxica,2024.2.5,Win32,142.8571429,,,,,,,,,,,,,,,,,,,,,,,343.8741,344.8304,a,1,0.2995,,0.2995,1,344.8305,345.3298,,,,,,257,FEM,WORD,AGR,150,amiga,,la,,345.3299,345.33,-0.492457391,-0.251338229,0,0,0,,0,129,129,256,1,asama,,,,
,,,,,,617305abc8cde4cf0e08255b,676192165fb32c2e1fb7aee6,67d1940ae9e4d94aa5b5466c,2025-03-12_15h17.19.360,Tarea de decisión léxica,2024.2.5,Win32,142.8571429,,,,,,,,,,,,,,,,,,,,,,,345.3313,346.3079,l,1,0.3203,,0.3203,1,346.308,346.8099,,,,,,14,FEM,NOWORD,AGR,150,nola,,la,,346.8099,346.8101,-0.492457391,-0.251338229,0,0,0,,0,130,130,13,1,hora,,,,
,,,,,,617305abc8cde4cf0e08255b,676192165fb32c2e1fb7aee6,67d1940ae9e4d94aa5b5466c,2025-03-12_15h17.19.360,Tarea de decisión léxica,2024.2.5,Win32,142.8571429,,,,,,,,,,,,,,,,,,,,,,,346.8113,347.8688,a,1,0.3954,,0.3954,1,347.8689,348.3683,,,,,,425,FEM,WORD,AGR,150,viuda,,la,,348.3698,348.3706,-0.492457391,-0.251338229,0,0,0,,0,131,131,424,1,virca,,,,
,,,,,,617305abc8cde4cf0e08255b,676192165fb32c2e1fb7aee6,67d1940ae9e4d94aa5b5466c,2025-03-12_15h17.19.360,Tarea de decisión léxica,2024.2.5,Win32,142.8571429,,,,,,,,,,,,,,,,,,,,,,,348.3715,349.3604,a,1,0.3263,,0.3263,1,349.3606,349.8598,,,,,,345,FEM,WORD,DIS,150,arena,,el,,349.8599,349.86,-0.492457391,-0.251338229,0,0,0,,0,132,132,344,1,anera,,,,
,,,,,,617305abc8cde4cf0e08255b,676192165fb32c2e1fb7aee6,67d1940ae9e4d94aa5b5466c,2025-03-12_15h17.19.360,Tarea de decisión léxica,2024.2.5,Win32,142.8571429,,,,,,,,,,,,,,,,,,,,,,,349.8611,350.8936,a,1,0.3798,,0.3798,1,350.8937,351.3929,,,,,,433,MAS,WORD,DIS,150,disco,,la,,351.3929,351.393,-0.492457391,-0.251338229,0,0,0,,0,133,133,432,1,durco,,,,
,,,,,,617305abc8cde4cf0e08255b,676192165fb32c2e1fb7aee6,67d1940ae9e4d94aa5b5466c,2025-03-12_15h17.19.360,Tarea de decisión léxica,2024.2.5,Win32,142.8571429,,,,,,,,,,,,,,,,,,,,,,,351.3943,352.3295,a,0,0.279,,0.279,0,352.3307,352.8289,,,,,,430,FEM,NOWORD,AGR,150,tenta,,la,,352.829,352.8292,-0.492457391,-0.251338229,0,0,0,,0,134,134,429,1,tarta,,,,
,,,,,,617305abc8cde4cf0e08255b,676192165fb32c2e1fb7aee6,67d1940ae9e4d94aa5b5466c,2025-03-12_15h17.19.360,Tarea de decisión léxica,2024.2.5,Win32,142.8571429,,,,,,,,,,,,,,,,,,,,,,,352.8308,353.8351,l,1,0.3509,,0.3509,1,353.8359,354.3343,,,,,,48,MAS,NOWORD,DIS,150,chub,,la,,354.3344,354.3345,-0.492457391,-0.251338229,0,0,0,,0,135,135,47,1,club,,,,
,,,,,,617305abc8cde4cf0e08255b,676192165fb32c2e1fb7aee6,67d1940ae9e4d94aa5b5466c,2025-03-12_15h17.19.360,Tarea de decisión léxica,2024.2.5,Win32,142.8571429,,,,,,,,,,,,,,,,,,,,,,,354.336,355.2986,a,0,0.3089,,0.3089,0,355.2995,355.7981,,,,,,138,MAS,NOWORD,AGR,150,pamo,,el,,355.7998,355.8006,-0.492457391,-0.251338229,0,0,0,,0,136,136,137,1,nene,,,,
,,,,,,617305abc8cde4cf0e08255b,676192165fb32c2e1fb7aee6,67d1940ae9e4d94aa5b5466c,2025-03-12_15h17.19.360,Tarea de decisión léxica,2024.2.5,Win32,142.8571429,,,,,,,,,,,,,,,,,,,,,,,355.8013,356.9775,l,1,0.5143,,0.5143,1,356.9784,357.4771,,,,,,54,FEM,NOWORD,AGR,150,rora,,la,,357.4771,357.4773,-0.492457391,-0.251338229,0,0,0,,0,137,137,53,1,boda,,,,
,,,,,,617305abc8cde4cf0e08255b,676192165fb32c2e1fb7aee6,67d1940ae9e4d94aa5b5466c,2025-03-12_15h17.19.360,Tarea de decisión léxica,2024.2.5,Win32,142.8571429,,,,,,,,,,,,,,,,,,,,,,,357.4788,358.6147,a,1,0.4799,,0.4799,1,358.6148,359.1143,,,,,,157,MAS,WORD,DIS,150,nido,,la,,359.1143,359.1145,-0.492457391,-0.251338229,0,0,0,,0,138,138,156,1,hico,,,,
,,,,,,617305abc8cde4cf0e08255b,676192165fb32c2e1fb7aee6,67d1940ae9e4d94aa5b5466c,2025-03-12_15h17.19.360,Tarea de decisión léxica,2024.2.5,Win32,142.8571429,,,,,,,,,,,,,,,,,,,,,,,359.1159,360.1757,a,1,0.4033,,0.4033,1,360.1758,360.6751,,,,,,239,MAS,WORD,AGR,150,mozo,,el,,360.6752,360.6754,-0.492457391,-0.251338229,0,0,0,,0,139,139,238,1,poño,,,,
,,,,,,617305abc8cde4cf0e08255b,676192165fb32c2e1fb7aee6,67d1940ae9e4d94aa5b5466c,2025-03-12_15h17.19.360,Tarea de decisión léxica,2024.2.5,Win32,142.8571429,,,,,,,,,,,,,,,,,,,,,,,360.677,361.6811,l,1,0.3475,,0.3475,1,361.6812,362.1805,,,,,,246,FEM,NOWORD,AGR,150,pafle,,la,,362.1805,362.1807,-0.492457391,-0.251338229,0,0,0,,0,140,140,245,1,madre,,,,
,,,,,,617305abc8cde4cf0e08255b,676192165fb32c2e1fb7aee6,67d1940ae9e4d94aa5b5466c,2025-03-12_15h17.19.360,Tarea de decisión léxica,2024.2.5,Win32,142.8571429,,,,,,,,,,,,,,,,,,,,,,,362.1822,363.1726,l,1,0.3277,,0.3277,1,363.1727,363.6721,,,,,,52,FEM,NOWORD,DIS,150,mava,,el,,363.6739,363.6747,-0.492457391,-0.251338229,0,0,0,,0,141,141,51,1,caja,,,,
,,,,,,617305abc8cde4cf0e08255b,676192165fb32c2e1fb7aee6,67d1940ae9e4d94aa5b5466c,2025-03-12_15h17.19.360,Tarea de decisión léxica,2024.2.5,Win32,142.8571429,,,,,,,,,,,,,,,,,,,,,,,363.6755,364.6599,l,1,0.3262,,0.3262,1,364.6599,365.1567,,,,,,166,FEM,NOWORD,AGR,150,dera,,la,,365.1568,365.1569,-0.492457391,-0.251338229,0,0,0,,0,142,142,165,1,vela,,,,
,,,,,,617305abc8cde4cf0e08255b,676192165fb32c2e1fb7aee6,67d1940ae9e4d94aa5b5466c,2025-03-12_15h17.19.360,Tarea de decisión léxica,2024.2.5,Win32,142.8571429,,,,,,,,,,,,,,,,,,,,,,,365.1584,366.1376,a,1,0.326,,0.326,1,366.1377,366.6345,,,,,,443,MAS,WORD,DIS,150,salón,,la,,366.6345,366.6347,-0.492457391,-0.251338229,0,0,0,,0,143,143,442,1,taron,,,,
,,,,,,617305abc8cde4cf0e08255b,676192165fb32c2e1fb7aee6,67d1940ae9e4d94aa5b5466c,2025-03-12_15h17.19.360,Tarea de decisión léxica,2024.2.5,Win32,142.8571429,,,,,,,,,,,,,,,,,,,,,,,366.636,367.5849,a,1,0.2946,,0.2946,1,367.5849,368.0843,,,,,,421,MAS,WORD,AGR,150,primo,,el,,368.0844,368.0845,-0.492457391,-0.251338229,0,0,0,,0,144,144,420,1,griso,,,,
,,,,,,617305abc8cde4cf0e08255b,676192165fb32c2e1fb7aee6,67d1940ae9e4d94aa5b5466c,2025-03-12_15h17.19.360,Tarea de decisión léxica,2024.2.5,Win32,142.8571429,,,,,,,,,,,,,,,,,,,,,,,368.0857,369.0209,a,1,0.2779,,0.2779,1,369.021,369.5203,,,,,,247,FEM,WORD,AGR,150,chica,,la,,369.5203,369.5205,-0.492457391,-0.251338229,0,0,0,,0,145,145,246,1,trida,,,,
,,,,,,617305abc8cde4cf0e08255b,676192165fb32c2e1fb7aee6,67d1940ae9e4d94aa5b5466c,2025-03-12_15h17.19.360,Tarea de decisión léxica,2024.2.5,Win32,142.8571429,,,,,,,,,,,,,,,,,,,,,,,369.5221,370.554,a,0,0.3762,,0.3762,0,370.555,371.0535,,,,,,214,FEM,NOWORD,AGR,150,bana,,la,,371.0553,371.0561,-0.492457391,-0.251338229,0,0,0,,0,146,146,213,1,rama,,,,
,,,,,,617305abc8cde4cf0e08255b,676192165fb32c2e1fb7aee6,67d1940ae9e4d94aa5b5466c,2025-03-12_15h17.19.360,Tarea de decisión léxica,2024.2.5,Win32,142.8571429,,,,,,,,,,,,,,,,,,,,,,,371.0568,372.173,l,1,0.4575,,0.4575,1,372.1738,372.6699,,,,,,262,MAS,NOWORD,AGR,150,titio,,el,,372.67,372.6702,-0.492457391,-0.251338229,0,0,0,,0,147,147,261,1,sitio,,,,
,,,,,,617305abc8cde4cf0e08255b,676192165fb32c2e1fb7aee6,67d1940ae9e4d94aa5b5466c,2025-03-12_15h17.19.360,Tarea de decisión léxica,2024.2.5,Win32,142.8571429,,,,,,,,,,,,,,,,,,,,,,,372.6715,373.6442,a,1,0.3169,,0.3169,1,373.6443,374.1408,,,,,,45,FEM,WORD,DIS,150,mesa,,el,,374.1408,374.1411,-0.492457391,-0.251338229,0,0,0,,0,148,148,44,1,pema,,,,
,,,,,,617305abc8cde4cf0e08255b,676192165fb32c2e1fb7aee6,67d1940ae9e4d94aa5b5466c,2025-03-12_15h17.19.360,Tarea de decisión léxica,2024.2.5,Win32,142.8571429,,,,,,,,,,,,,,,,,,,,,,,374.142,375.112,l,1,0.3142,,0.3142,1,375.1122,375.6115,,,,,,32,FEM,NOWORD,DIS,150,bova,,el,,375.6116,375.6117,-0.492457391,-0.251338229,0,0,0,,0,149,149,31,1,ropa,,,,
,,,,,,617305abc8cde4cf0e08255b,676192165fb32c2e1fb7aee6,67d1940ae9e4d94aa5b5466c,2025-03-12_15h17.19.360,Tarea de decisión léxica,2024.2.5,Win32,142.8571429,,,,,,,,,,,,,,,,,,,,,,,375.6127,376.7631,a,1,0.4961,,0.4961,1,376.7632,377.2627,,,,,,133,FEM,WORD,DIS,150,vaca,,el,,377.2628,377.263,-0.492457391,-0.251338229,0,0,0,,0,150,150,132,1,vesa,,,,
,,,,,,617305abc8cde4cf0e08255b,676192165fb32c2e1fb7aee6,67d1940ae9e4d94aa5b5466c,2025-03-12_15h17.19.360,Tarea de decisión léxica,2024.2.5,Win32,142.8571429,,,,,,,,,,,,,,,,,,,,,,,377.2639,378.227,l,1,0.3078,,0.3078,1,378.2272,378.7265,,,,,,308,MAS,NOWORD,DIS,150,holol,,la,,378.7277,378.7284,-0.492457391,-0.251338229,0,0,0,,0,151,151,307,1,hotel,,,,
,,,,,,617305abc8cde4cf0e08255b,676192165fb32c2e1fb7aee6,67d1940ae9e4d94aa5b5466c,2025-03-12_15h17.19.360,Tarea de decisión léxica,2024.2.5,Win32,142.8571429,,,,,,,,,,,,,,,,,,,,,,,378.7298,379.7532,l,1,0.3611,,0.3611,1,379.7533,380.2527,,,,,,394,FEM,NOWORD,AGR,150,ashea,,la,,380.2528,380.253,-0.492457391,-0.251338229,0,0,0,,0,152,152,393,1,aldea,,,,
,,,,,,617305abc8cde4cf0e08255b,676192165fb32c2e1fb7aee6,67d1940ae9e4d94aa5b5466c,2025-03-12_15h17.19.360,Tarea de decisión léxica,2024.2.5,Win32,142.8571429,,,,,,,,,,,,,,,,,,,,,,,380.2543,381.2169,l,0,0.3059,,0.3059,0,381.2178,381.7166,,,,,,121,MAS,WORD,DIS,150,hoyo,,la,,381.7166,381.7168,-0.492457391,-0.251338229,0,0,0,,0,153,153,120,1,bomo,,,,
,,,,,,617305abc8cde4cf0e08255b,676192165fb32c2e1fb7aee6,67d1940ae9e4d94aa5b5466c,2025-03-12_15h17.19.360,Tarea de decisión léxica,2024.2.5,Win32,142.8571429,,,,,,,,,,,,,,,,,,,,,,,381.7178,382.8195,l,1,0.4467,,0.4467,1,382.8203,383.319,,,,,,170,MAS,NOWORD,AGR,150,mibo,,el,,383.3191,383.3194,-0.492457391,-0.251338229,0,0,0,,0,154,154,169,1,cubo,,,,
,,,,,,617305abc8cde4cf0e08255b,676192165fb32c2e1fb7aee6,67d1940ae9e4d94aa5b5466c,2025-03-12_15h17.19.360,Tarea de decisión léxica,2024.2.5,Win32,142.8571429,,,,,,,,,,,,,,,,,,,,,,,383.3204,384.3668,a,1,0.3928,,0.3928,1,384.3668,384.866,,,,,,479,MAS,WORD,AGR,150,rumbo,,el,,384.8673,384.8683,-0.492457391,-0.251338229,0,0,0,,0,155,155,478,1,rimpo,,,,
,,,,,,617305abc8cde4cf0e08255b,676192165fb32c2e1fb7aee6,67d1940ae9e4d94aa5b5466c,2025-03-12_15h17.19.360,Tarea de decisión léxica,2024.2.5,Win32,142.8571429,,,,,,,,,,,,,,,,,,,,,,,384.8693,385.9344,a,1,0.4044,,0.4044,1,385.9345,386.4338,,,,,,109,MAS,WORD,DIS,150,rayo,,la,,386.434,386.4341,-0.492457391,-0.251338229,0,0,0,,0,156,156,108,1,suno,,,,
,,,,,,617305abc8cde4cf0e08255b,676192165fb32c2e1fb7aee6,67d1940ae9e4d94aa5b5466c,2025-03-12_15h17.19.360,Tarea de decisión léxica,2024.2.5,Win32,142.8571429,,,,,,,,,,,,,,,,,,,,,,,386.4354,387.3565,l,0,0.2668,,0.2668,0,387.3573,387.856,,,,,,179,MAS,WORD,DIS,150,toro,,la,,387.8561,387.8563,-0.492457391,-0.251338229,0,0,0,,0,157,157,178,1,sono,,,,
,,,,,,617305abc8cde4cf0e08255b,676192165fb32c2e1fb7aee6,67d1940ae9e4d94aa5b5466c,2025-03-12_15h17.19.360,Tarea de decisión léxica,2024.2.5,Win32,142.8571429,,,,,,,,,,,,,,,,,,,,,,,387.8574,388.8722,a,1,0.3546,,0.3546,1,388.8729,389.3707,,,,,,173,FEM,WORD,AGR,150,rosa,,la,,389.3708,389.3709,-0.492457391,-0.251338229,0,0,0,,0,158,158,172,1,boma,,,,
,,,,,,617305abc8cde4cf0e08255b,676192165fb32c2e1fb7aee6,67d1940ae9e4d94aa5b5466c,2025-03-12_15h17.19.360,Tarea de decisión léxica,2024.2.5,Win32,142.8571429,,,,,,,,,,,,,,,,,,,,,,,389.3718,390.3497,a,1,0.3198,,0.3198,1,390.3497,390.8484,,,,,,149,MAS,WORD,AGR,150,cabo,,el,,390.8485,390.8487,-0.492457391,-0.251338229,0,0,0,,0,159,159,148,1,pafo,,,,
,,,,,,617305abc8cde4cf0e08255b,676192165fb32c2e1fb7aee6,67d1940ae9e4d94aa5b5466c,2025-03-12_15h17.19.360,Tarea de decisión léxica,2024.2.5,Win32,142.8571429,,,,,,,,,,,,,,,,,,,,,,,390.8497,391.862,l,1,0.3542,,0.3542,1,391.8621,392.3609,,,,,,8,MAS,NOWORD,DIS,150,nivo,,la,,392.3621,396.9927,-0.492457391,-0.251338229,0,0,0,space,0,160,160,7,1,hijo,4.6113,,,
,,,,,,617305abc8cde4cf0e08255b,676192165fb32c2e1fb7aee6,67d1940ae9e4d94aa5b5466c,2025-03-12_15h17.19.360,Tarea de decisión léxica,2024.2.5,Win32,142.8571429,,,,,,,,,,,,,,,,,,,,,,,396.9938,398.276,a,0,0.626,,0.626,0,398.2774,398.7754,,,,,,206,FEM,NOWORD,AGR,150,bara,,la,,398.7755,398.7757,-0.492457391,-0.251338229,0,0,0,,0,161,161,205,1,rana,,,,
,,,,,,617305abc8cde4cf0e08255b,676192165fb32c2e1fb7aee6,67d1940ae9e4d94aa5b5466c,2025-03-12_15h17.19.360,Tarea de decisión léxica,2024.2.5,Win32,142.8571429,,,,,,,,,,,,,,,,,,,,,,,398.7768,399.7675,a,1,0.3341,,0.3341,1,399.7685,400.267,,,,,,393,FEM,WORD,DIS,150,aldea,,el,,400.267,400.2672,-0.492457391,-0.251338229,0,0,0,,0,162,162,392,1,ashea,,,,
,,,,,,617305abc8cde4cf0e08255b,676192165fb32c2e1fb7aee6,67d1940ae9e4d94aa5b5466c,2025-03-12_15h17.19.360,Tarea de decisión léxica,2024.2.5,Win32,142.8571429,,,,,,,,,,,,,,,,,,,,,,,400.2687,401.3561,l,1,0.4309,,0.4309,1,401.3563,401.8556,,,,,,260,MAS,NOWORD,DIS,150,jaumo,,la,,401.8558,401.8559,-0.492457391,-0.251338229,0,0,0,,0,163,163,259,1,juego,,,,
,,,,,,617305abc8cde4cf0e08255b,676192165fb32c2e1fb7aee6,67d1940ae9e4d94aa5b5466c,2025-03-12_15h17.19.360,Tarea de decisión léxica,2024.2.5,Win32,142.8571429,,,,,,,,,,,,,,,,,,,,,,,401.8573,402.8339,a,1,0.32,,0.32,1,402.8341,403.3333,,,,,,119,MAS,WORD,AGR,150,pozo,,el,,403.3335,403.3336,-0.492457391,-0.251338229,0,0,0,,0,164,164,118,1,hooy,,,,
,,,,,,617305abc8cde4cf0e08255b,676192165fb32c2e1fb7aee6,67d1940ae9e4d94aa5b5466c,2025-03-12_15h17.19.360,Tarea de decisión léxica,2024.2.5,Win32,142.8571429,,,,,,,,,,,,,,,,,,,,,,,403.3349,404.3765,l,1,0.3888,,0.3888,1,404.3766,404.8734,,,,,,408,FEM,NOWORD,DIS,150,cauba,,el,,404.875,404.8758,-0.492457391,-0.251338229,0,0,0,,0,165,165,407,1,cueva,,,,
,,,,,,617305abc8cde4cf0e08255b,676192165fb32c2e1fb7aee6,67d1940ae9e4d94aa5b5466c,2025-03-12_15h17.19.360,Tarea de decisión léxica,2024.2.5,Win32,142.8571429,,,,,,,,,,,,,,,,,,,,,,,404.8765,406.0528,l,1,0.5176,,0.5176,1,406.053,406.5523,,,,,,346,FEM,NOWORD,AGR,150,anera,,la,,406.5524,406.5526,-0.492457391,-0.251338229,0,0,0,,0,166,166,345,1,arena,,,,
,,,,,,617305abc8cde4cf0e08255b,676192165fb32c2e1fb7aee6,67d1940ae9e4d94aa5b5466c,2025-03-12_15h17.19.360,Tarea de decisión léxica,2024.2.5,Win32,142.8571429,,,,,,,,,,,,,,,,,,,,,,,406.5541,407.4959,a,1,0.2867,,0.2867,1,407.4961,407.9953,,,,,,351,MAS,WORD,AGR,150,vuelo,,el,,407.9954,407.9955,-0.492457391,-0.251338229,0,0,0,,0,167,167,350,1,duepo,,,,
,,,,,,617305abc8cde4cf0e08255b,676192165fb32c2e1fb7aee6,67d1940ae9e4d94aa5b5466c,2025-03-12_15h17.19.360,Tarea de decisión léxica,2024.2.5,Win32,142.8571429,,,,,,,,,,,,,,,,,,,,,,,407.9971,408.9944,a,1,0.341,,0.341,1,408.9945,409.4937,,,,,,313,MAS,WORD,AGR,150,novio,,el,,409.4938,409.4939,-0.492457391,-0.251338229,0,0,0,,0,168,168,312,1,govio,,,,
,,,,,,617305abc8cde4cf0e08255b,676192165fb32c2e1fb7aee6,67d1940ae9e4d94aa5b5466c,2025-03-12_15h17.19.360,Tarea de decisión léxica,2024.2.5,Win32,142.8571429,,,,,,,,,,,,,,,,,,,,,,,409.4952,410.4025,a,1,0.2529,,0.2529,1,410.4027,410.902,,,,,,327,MAS,WORD,DIS,150,fondo,,la,,410.9021,410.9022,-0.492457391,-0.251338229,0,0,0,,0,169,169,326,1,lendo,,,,
,,,,,,617305abc8cde4cf0e08255b,676192165fb32c2e1fb7aee6,67d1940ae9e4d94aa5b5466c,2025-03-12_15h17.19.360,Tarea de decisión léxica,2024.2.5,Win32,142.8571429,,,,,,,,,,,,,,,,,,,,,,,410.9036,411.8148,a,1,0.2513,,0.2513,1,411.8149,412.3136,,,,,,335,FEM,WORD,DIS,150,costa,,el,,412.3151,412.3158,-0.492457391,-0.251338229,0,0,0,,0,170,170,334,1,pesta,,,,
,,,,,,617305abc8cde4cf0e08255b,676192165fb32c2e1fb7aee6,67d1940ae9e4d94aa5b5466c,2025-03-12_15h17.19.360,Tarea de decisión léxica,2024.2.5,Win32,142.8571429,,,,,,,,,,,,,,,,,,,,,,,412.3164,413.2293,l,1,0.2573,,0.2573,1,413.2295,413.7256,,,,,,382,MAS,NOWORD,AGR,150,nusor,,el,,413.7257,413.7259,-0.492457391,-0.251338229,0,0,0,,0,171,171,381,1,humor,,,,
,,,,,,617305abc8cde4cf0e08255b,676192165fb32c2e1fb7aee6,67d1940ae9e4d94aa5b5466c,2025-03-12_15h17.19.360,Tarea de decisión léxica,2024.2.5,Win32,142.8571429,,,,,,,,,,,,,,,,,,,,,,,413.7274,414.7108,a,0,0.3301,,0.3301,0,414.7116,415.2102,,,,,,240,MAS,NOWORD,DIS,150,poño,,la,,415.2103,415.2105,-0.492457391,-0.251338229,0,0,0,,0,172,172,239,1,mozo,,,,
,,,,,,617305abc8cde4cf0e08255b,676192165fb32c2e1fb7aee6,67d1940ae9e4d94aa5b5466c,2025-03-12_15h17.19.360,Tarea de decisión léxica,2024.2.5,Win32,142.8571429,,,,,,,,,,,,,,,,,,,,,,,415.2121,416.3552,l,1,0.4901,,0.4901,1,416.3561,416.8545,,,,,,274,FEM,NOWORD,AGR,150,frosa,,la,,416.8545,416.8546,-0.492457391,-0.251338229,0,0,0,,0,173,173,273,1,broma,,,,
,,,,,,617305abc8cde4cf0e08255b,676192165fb32c2e1fb7aee6,67d1940ae9e4d94aa5b5466c,2025-03-12_15h17.19.360,Tarea de decisión léxica,2024.2.5,Win32,142.8571429,,,,,,,,,,,,,,,,,,,,,,,416.8563,417.8048,l,1,0.2925,,0.2925,1,417.8049,418.3043,,,,,,312,MAS,NOWORD,DIS,150,nosor,,la,,418.3044,418.3045,-0.492457391,-0.251338229,0,0,0,,0,174,174,311,1,honor,,,,
,,,,,,617305abc8cde4cf0e08255b,676192165fb32c2e1fb7aee6,67d1940ae9e4d94aa5b5466c,2025-03-12_15h17.19.360,Tarea de decisión léxica,2024.2.5,Win32,142.8571429,,,,,,,,,,,,,,,,,,,,,,,418.3062,419.2964,a,1,0.3347,,0.3347,1,419.2964,419.7958,,,,,,359,MAS,WORD,DIS,150,calor,,la,,419.7975,419.7984,-0.492457391,-0.251338229,0,0,0,,0,175,175,358,1,cacer,,,,
,,,,,,617305abc8cde4cf0e08255b,676192165fb32c2e1fb7aee6,67d1940ae9e4d94aa5b5466c,2025-03-12_15h17.19.360,Tarea de decisión léxica,2024.2.5,Win32,142.8571429,,,,,,,,,,,,,,,,,,,,,,,419.7991,420.8435,l,1,0.3849,,0.3849,1,420.8436,421.3431,,,,,,432,MAS,NOWORD,DIS,150,tetor,,la,,421.3431,421.3433,-0.492457391,-0.251338229,0,0,0,,0,176,176,431,1,motor,,,,
,,,,,,617305abc8cde4cf0e08255b,676192165fb32c2e1fb7aee6,67d1940ae9e4d94aa5b5466c,2025-03-12_15h17.19.360,Tarea de decisión léxica,2024.2.5,Win32,142.8571429,,,,,,,,,,,,,,,,,,,,,,,421.3447,422.3488,a,1,0.3474,,0.3474,1,422.349,422.8483,,,,,,73,MAS,WORD,DIS,150,odio,,la,,422.8484,422.8486,-0.492457391,-0.251338229,0,0,0,,0,177,177,72,1,omio,,,,
,,,,,,617305abc8cde4cf0e08255b,676192165fb32c2e1fb7aee6,67d1940ae9e4d94aa5b5466c,2025-03-12_15h17.19.360,Tarea de decisión léxica,2024.2.5,Win32,142.8571429,,,,,,,,,,,,,,,,,,,,,,,422.8498,423.9194,a,1,0.417,,0.417,1,423.9195,424.4161,,,,,,379,MAS,WORD,DIS,150,turno,,la,,424.4162,424.4163,-0.492457391,-0.251338229,0,0,0,,0,178,178,378,1,tunso,,,,
,,,,,,617305abc8cde4cf0e08255b,676192165fb32c2e1fb7aee6,67d1940ae9e4d94aa5b5466c,2025-03-12_15h17.19.360,Tarea de decisión léxica,2024.2.5,Win32,142.8571429,,,,,,,,,,,,,,,,,,,,,,,424.4177,425.4081,a,1,0.3355,,0.3355,1,425.4083,425.9078,,,,,,195,FEM,WORD,AGR,150,tela,,la,,425.9092,425.91,-0.492457391,-0.251338229,0,0,0,,0,179,179,194,1,sira,,,,
,,,,,,617305abc8cde4cf0e08255b,676192165fb32c2e1fb7aee6,67d1940ae9e4d94aa5b5466c,2025-03-12_15h17.19.360,Tarea de decisión léxica,2024.2.5,Win32,142.8571429,,,,,,,,,,,,,,,,,,,,,,,425.9108,426.8859,l,1,0.3123,,0.3123,1,426.886,427.3853,,,,,,236,FEM,NOWORD,DIS,150,tria,,el,,427.3855,427.3855,-0.492457391,-0.251338229,0,0,0,,0,180,180,235,1,grúa,,,,
,,,,,,617305abc8cde4cf0e08255b,676192165fb32c2e1fb7aee6,67d1940ae9e4d94aa5b5466c,2025-03-12_15h17.19.360,Tarea de decisión léxica,2024.2.5,Win32,142.8571429,,,,,,,,,,,,,,,,,,,,,,,427.3868,428.3916,l,1,0.3515,,0.3515,1,428.3917,428.8908,,,,,,42,FEM,NOWORD,AGR,150,haje,,la,,428.891,428.8911,-0.492457391,-0.251338229,0,0,0,,0,181,181,41,1,nave,,,,
,,,,,,617305abc8cde4cf0e08255b,676192165fb32c2e1fb7aee6,67d1940ae9e4d94aa5b5466c,2025-03-12_15h17.19.360,Tarea de decisión léxica,2024.2.5,Win32,142.8571429,,,,,,,,,,,,,,,,,,,,,,,428.8925,429.8344,l,1,0.2879,,0.2879,1,429.8345,430.3338,,,,,,444,MAS,NOWORD,DIS,150,taron,,la,,430.3338,430.334,-0.492457391,-0.251338229,0,0,0,,0,182,182,443,1,salón,,,,
,,,,,,617305abc8cde4cf0e08255b,676192165fb32c2e1fb7aee6,67d1940ae9e4d94aa5b5466c,2025-03-12_15h17.19.360,Tarea de decisión léxica,2024.2.5,Win32,142.8571429,,,,,,,,,,,,,,,,,,,,,,,430.3352,431.2912,a,1,0.2993,,0.2993,1,431.2913,431.7907,,,,,,223,FEM,WORD,DIS,150,cera,,el,,431.7908,431.7909,-0.492457391,-0.251338229,0,0,0,,0,183,183,222,1,cira,,,,
,,,,,,617305abc8cde4cf0e08255b,676192165fb32c2e1fb7aee6,67d1940ae9e4d94aa5b5466c,2025-03-12_15h17.19.360,Tarea de decisión léxica,2024.2.5,Win32,142.8571429,,,,,,,,,,,,,,,,,,,,,,,431.7923,432.8035,a,1,0.3558,,0.3558,1,432.8035,433.303,,,,,,301,FEM,WORD,AGR,150,banda,,la,,433.3042,433.3052,-0.492457391,-0.251338229,0,0,0,,0,184,184,300,1,ranga,,,,
,,,,,,617305abc8cde4cf0e08255b,676192165fb32c2e1fb7aee6,67d1940ae9e4d94aa5b5466c,2025-03-12_15h17.19.360,Tarea de decisión léxica,2024.2.5,Win32,142.8571429,,,,,,,,,,,,,,,,,,,,,,,433.3059,434.3436,l,1,0.3781,,0.3781,1,434.3438,434.8431,,,,,,448,MAS,NOWORD,DIS,150,buaso,,la,,434.8432,434.8434,-0.492457391,-0.251338229,0,0,0,,0,185,185,447,1,bolso,,,,
,,,,,,617305abc8cde4cf0e08255b,676192165fb32c2e1fb7aee6,67d1940ae9e4d94aa5b5466c,2025-03-12_15h17.19.360,Tarea de decisión léxica,2024.2.5,Win32,142.8571429,,,,,,,,,,,,,,,,,,,,,,,434.8449,435.8006,a,1,0.3026,,0.3026,1,435.8007,436.2999,,,,,,65,MAS,WORD,AGR,150,dios,,el,,436.3,436.3002,-0.492457391,-0.251338229,0,0,0,,0,186,186,64,1,nios,,,,
,,,,,,617305abc8cde4cf0e08255b,676192165fb32c2e1fb7aee6,67d1940ae9e4d94aa5b5466c,2025-03-12_15h17.19.360,Tarea de decisión léxica,2024.2.5,Win32,142.8571429,,,,,,,,,,,,,,,,,,,,,,,436.3018,437.2018,a,1,0.2437,,0.2437,1,437.2019,437.7013,,,,,,229,MAS,WORD,AGR,150,amor,,el,,437.7013,437.7015,-0.492457391,-0.251338229,0,0,0,,0,187,187,228,1,ador,,,,
,,,,,,617305abc8cde4cf0e08255b,676192165fb32c2e1fb7aee6,67d1940ae9e4d94aa5b5466c,2025-03-12_15h17.19.360,Tarea de decisión léxica,2024.2.5,Win32,142.8571429,,,,,,,,,,,,,,,,,,,,,,,437.7027,438.6795,l,1,0.3225,,0.3225,1,438.6796,439.179,,,,,,310,FEM,NOWORD,AGR,150,tirra,,la,,439.1791,439.1792,-0.492457391,-0.251338229,0,0,0,,0,188,188,309,1,silla,,,,
,,,,,,617305abc8cde4cf0e08255b,676192165fb32c2e1fb7aee6,67d1940ae9e4d94aa5b5466c,2025-03-12_15h17.19.360,Tarea de decisión léxica,2024.2.5,Win32,142.8571429,,,,,,,,,,,,,,,,,,,,,,,439.1801,440.1294,a,1,0.2945,,0.2945,1,440.1296,440.629,,,,,,275,MAS,WORD,AGR,150,punto,,el,,440.6302,440.631,-0.492457391,-0.251338229,0,0,0,,0,189,189,274,1,musto,,,,
,,,,,,617305abc8cde4cf0e08255b,676192165fb32c2e1fb7aee6,67d1940ae9e4d94aa5b5466c,2025-03-12_15h17.19.360,Tarea de decisión léxica,2024.2.5,Win32,142.8571429,,,,,,,,,,,,,,,,,,,,,,,440.6318,441.6279,a,0,0.3339,,0.3339,0,441.629,442.1274,,,,,,20,MAS,NOWORD,DIS,150,himo,,la,,442.1275,442.1276,-0.492457391,-0.251338229,0,0,0,,0,190,190,19,1,niño,,,,
,,,,,,617305abc8cde4cf0e08255b,676192165fb32c2e1fb7aee6,67d1940ae9e4d94aa5b5466c,2025-03-12_15h17.19.360,Tarea de decisión léxica,2024.2.5,Win32,142.8571429,,,,,,,,,,,,,,,,,,,,,,,442.1289,443.2126,a,1,0.4302,,0.4302,1,443.2134,443.7091,,,,,,13,FEM,WORD,AGR,150,hora,,la,,443.7091,443.7093,-0.492457391,-0.251338229,0,0,0,,0,191,191,12,1,nola,,,,
,,,,,,617305abc8cde4cf0e08255b,676192165fb32c2e1fb7aee6,67d1940ae9e4d94aa5b5466c,2025-03-12_15h17.19.360,Tarea de decisión léxica,2024.2.5,Win32,142.8571429,,,,,,,,,,,,,,,,,,,,,,,443.7105,444.9232,l,1,0.5578,,0.5578,1,444.9233,445.4225,,,,,,330,MAS,NOWORD,AGR,150,nueno,,el,,445.4226,445.4227,-0.492457391,-0.251338229,0,0,0,,0,192,192,329,1,hueso,,,,
,,,,,,617305abc8cde4cf0e08255b,676192165fb32c2e1fb7aee6,67d1940ae9e4d94aa5b5466c,2025-03-12_15h17.19.360,Tarea de decisión léxica,2024.2.5,Win32,142.8571429,,,,,,,,,,,,,,,,,,,,,,,445.4241,446.5604,l,1,0.4804,,0.4804,1,446.5605,447.0599,,,,,,104,FEM,NOWORD,DIS,150,rova,,el,,447.0599,447.06,-0.492457391,-0.251338229,0,0,0,,0,193,193,103,1,ruta,,,,
,,,,,,617305abc8cde4cf0e08255b,676192165fb32c2e1fb7aee6,67d1940ae9e4d94aa5b5466c,2025-03-12_15h17.19.360,Tarea de decisión léxica,2024.2.5,Win32,142.8571429,,,,,,,,,,,,,,,,,,,,,,,447.0612,448.1936,l,1,0.4793,,0.4793,1,448.1937,448.6901,,,,,,232,FEM,NOWORD,DIS,150,heta,,el,,448.6917,448.6923,-0.492457391,-0.251338229,0,0,0,,0,194,194,231,1,bota,,,,
,,,,,,617305abc8cde4cf0e08255b,676192165fb32c2e1fb7aee6,67d1940ae9e4d94aa5b5466c,2025-03-12_15h17.19.360,Tarea de decisión léxica,2024.2.5,Win32,142.8571429,,,,,,,,,,,,,,,,,,,,,,,448.6931,449.7239,a,1,0.3685,,0.3685,1,449.724,450.2233,,,,,,437,FEM,WORD,DIS,150,plaza,,el,,450.2233,450.2235,-0.492457391,-0.251338229,0,0,0,,0,195,195,436,1,glava,,,,
,,,,,,617305abc8cde4cf0e08255b,676192165fb32c2e1fb7aee6,67d1940ae9e4d94aa5b5466c,2025-03-12_15h17.19.360,Tarea de decisión léxica,2024.2.5,Win32,142.8571429,,,,,,,,,,,,,,,,,,,,,,,450.2247,451.2115,l,1,0.3338,,0.3338,1,451.2115,451.708,,,,,,396,FEM,NOWORD,DIS,150,paeda,,el,,451.708,451.7082,-0.492457391,-0.251338229,0,0,0,,0,196,196,395,1,caída,,,,
,,,,,,617305abc8cde4cf0e08255b,676192165fb32c2e1fb7aee6,67d1940ae9e4d94aa5b5466c,2025-03-12_15h17.19.360,Tarea de decisión léxica,2024.2.5,Win32,142.8571429,,,,,,,,,,,,,,,,,,,,,,,451.7094,452.6896,a,1,0.3272,,0.3272,1,452.6897,453.1856,,,,,,271,FEM,WORD,DIS,150,señal,,el,,453.1857,453.1859,-0.492457391,-0.251338229,0,0,0,,0,197,197,270,1,refal,,,,
,,,,,,617305abc8cde4cf0e08255b,676192165fb32c2e1fb7aee6,67d1940ae9e4d94aa5b5466c,2025-03-12_15h17.19.360,Tarea de decisión léxica,2024.2.5,Win32,142.8571429,,,,,,,,,,,,,,,,,,,,,,,453.1871,454.2123,a,1,0.3691,,0.3691,1,454.2125,454.7118,,,,,,27,MAS,WORD,AGR,150,baño,,el,,454.7119,454.7121,-0.492457391,-0.251338229,0,0,0,,0,198,198,26,1,ravo,,,,
,,,,,,617305abc8cde4cf0e08255b,676192165fb32c2e1fb7aee6,67d1940ae9e4d94aa5b5466c,2025-03-12_15h17.19.360,Tarea de decisión léxica,2024.2.5,Win32,142.8571429,,,,,,,,,,,,,,,,,,,,,,,454.7136,455.704,l,1,0.3339,,0.3339,1,455.7041,456.2035,,,,,,158,MAS,NOWORD,AGR,150,hico,,el,,456.2049,456.2057,-0.492457391,-0.251338229,0,0,0,,0,199,199,157,1,nido,,,,
,,,,,,617305abc8cde4cf0e08255b,676192165fb32c2e1fb7aee6,67d1940ae9e4d94aa5b5466c,2025-03-12_15h17.19.360,Tarea de decisión léxica,2024.2.5,Win32,142.8571429,,,,,,,,,,,,,,,,,,,,,,,456.2064,457.1955,l,1,0.3264,,0.3264,1,457.1957,457.695,,,,,,466,FEM,NOWORD,AGR,150,asuba,,la,,457.695,457.6952,-0.492457391,-0.251338229,0,0,0,,0,200,200,465,1,aguja,,,,
,,,,,,617305abc8cde4cf0e08255b,676192165fb32c2e1fb7aee6,67d1940ae9e4d94aa5b5466c,2025-03-12_15h17.19.360,Tarea de decisión léxica,2024.2.5,Win32,142.8571429,,,,,,,,,,,,,,,,,,,,,,,457.6964,458.9714,l,1,0.6201,,0.6201,1,458.9716,459.4709,,,,,,64,FEM,NOWORD,DIS,150,funa,,el,,459.471,459.4713,-0.492457391,-0.251338229,0,0,0,,0,201,201,63,1,luna,,,,
,,,,,,617305abc8cde4cf0e08255b,676192165fb32c2e1fb7aee6,67d1940ae9e4d94aa5b5466c,2025-03-12_15h17.19.360,Tarea de decisión léxica,2024.2.5,Win32,142.8571429,,,,,,,,,,,,,,,,,,,,,,,459.4729,460.6226,a,1,0.4932,,0.4932,1,460.6227,461.122,,,,,,193,FEM,WORD,DIS,150,loca,,el,,461.1221,461.1223,-0.492457391,-0.251338229,0,0,0,,0,202,202,192,1,foda,,,,
,,,,,,617305abc8cde4cf0e08255b,676192165fb32c2e1fb7aee6,67d1940ae9e4d94aa5b5466c,2025-03-12_15h17.19.360,Tarea de decisión léxica,2024.2.5,Win32,142.8571429,,,,,,,,,,,,,,,,,,,,,,,461.1239,462.1904,a,1,0.4117,,0.4117,1,462.1905,462.6899,,,,,,31,FEM,WORD,DIS,150,ropa,,el,,462.6908,462.6917,-0.492457391,-0.251338229,0,0,0,,0,203,203,30,1,bova,,,,
,,,,,,617305abc8cde4cf0e08255b,676192165fb32c2e1fb7aee6,67d1940ae9e4d94aa5b5466c,2025-03-12_15h17.19.360,Tarea de decisión léxica,2024.2.5,Win32,142.8571429,,,,,,,,,,,,,,,,,,,,,,,462.6925,463.7375,a,1,0.3831,,0.3831,1,463.7376,464.2371,,,,,,369,MAS,WORD,DIS,150,ruido,,la,,464.2371,464.2372,-0.492457391,-0.251338229,0,0,0,,0,204,204,368,1,rioco,,,,
,,,,,,617305abc8cde4cf0e08255b,676192165fb32c2e1fb7aee6,67d1940ae9e4d94aa5b5466c,2025-03-12_15h17.19.360,Tarea de decisión léxica,2024.2.5,Win32,142.8571429,,,,,,,,,,,,,,,,,,,,,,,464.2385,465.1944,a,1,0.3005,,0.3005,1,465.1945,465.6938,,,,,,407,FEM,WORD,AGR,150,cueva,,la,,465.6938,465.6939,-0.492457391,-0.251338229,0,0,0,,0,205,205,406,1,cauba,,,,
,,,,,,617305abc8cde4cf0e08255b,676192165fb32c2e1fb7aee6,67d1940ae9e4d94aa5b5466c,2025-03-12_15h17.19.360,Tarea de decisión léxica,2024.2.5,Win32,142.8571429,,,,,,,,,,,,,,,,,,,,,,,465.6949,466.6582,l,1,0.3061,,0.3061,1,466.6584,467.1576,,,,,,464,FEM,NOWORD,DIS,150,matla,,el,,467.1576,467.1578,-0.492457391,-0.251338229,0,0,0,,0,206,206,463,1,cabra,,,,
,,,,,,617305abc8cde4cf0e08255b,676192165fb32c2e1fb7aee6,67d1940ae9e4d94aa5b5466c,2025-03-12_15h17.19.360,Tarea de decisión léxica,2024.2.5,Win32,142.8571429,,,,,,,,,,,,,,,,,,,,,,,467.1595,468.0807,a,1,0.2682,,0.2682,1,468.0809,468.5799,,,,,,349,MAS,WORD,DIS,150,color,,la,,468.58,468.5802,-0.492457391,-0.251338229,0,0,0,,0,207,207,348,1,cosir,,,,
,,,,,,617305abc8cde4cf0e08255b,676192165fb32c2e1fb7aee6,67d1940ae9e4d94aa5b5466c,2025-03-12_15h17.19.360,Tarea de decisión léxica,2024.2.5,Win32,142.8571429,,,,,,,,,,,,,,,,,,,,,,,468.5815,469.5719,l,1,0.3346,,0.3346,1,469.5721,470.0716,,,,,,90,MAS,NOWORD,AGR,150,guso,,el,,470.073,470.0739,-0.492457391,-0.251338229,0,0,0,,0,208,208,89,1,humo,,,,
,,,,,,617305abc8cde4cf0e08255b,676192165fb32c2e1fb7aee6,67d1940ae9e4d94aa5b5466c,2025-03-12_15h17.19.360,Tarea de decisión léxica,2024.2.5,Win32,142.8571429,,,,,,,,,,,,,,,,,,,,,,,470.0746,471.1814,l,1,0.4472,,0.4472,1,471.1815,471.681,,,,,,296,MAS,NOWORD,DIS,150,goler,,la,,471.681,471.6813,-0.492457391,-0.251338229,0,0,0,,0,209,209,295,1,dolor,,,,
,,,,,,617305abc8cde4cf0e08255b,676192165fb32c2e1fb7aee6,67d1940ae9e4d94aa5b5466c,2025-03-12_15h17.19.360,Tarea de decisión léxica,2024.2.5,Win32,142.8571429,,,,,,,,,,,,,,,,,,,,,,,471.6829,472.6799,l,0,0.3431,,0.3431,0,472.6806,473.1794,,,,,,207,MAS,WORD,DIS,150,kilo,,la,,473.1795,473.1796,-0.492457391,-0.251338229,0,0,0,,0,210,210,206,1,kedo,,,,
,,,,,,617305abc8cde4cf0e08255b,676192165fb32c2e1fb7aee6,67d1940ae9e4d94aa5b5466c,2025-03-12_15h17.19.360,Tarea de decisión léxica,2024.2.5,Win32,142.8571429,,,,,,,,,,,,,,,,,,,,,,,473.1807,474.3865,l,1,0.5483,,0.5483,1,474.3875,474.8861,,,,,,38,MAS,NOWORD,AGR,150,gaco,,el,,474.8861,474.8862,-0.492457391,-0.251338229,0,0,0,,0,211,211,37,1,rato,,,,
,,,,,,617305abc8cde4cf0e08255b,676192165fb32c2e1fb7aee6,67d1940ae9e4d94aa5b5466c,2025-03-12_15h17.19.360,Tarea de decisión léxica,2024.2.5,Win32,142.8571429,,,,,,,,,,,,,,,,,,,,,,,474.8873,475.8435,a,1,0.3022,,0.3022,1,475.8436,476.3429,,,,,,95,FEM,WORD,AGR,151,moda,,la,,476.3429,476.3431,-0.492457391,-0.251338229,0,0,0,,0,212,212,94,1,neda,,,,
,,,,,,617305abc8cde4cf0e08255b,676192165fb32c2e1fb7aee6,67d1940ae9e4d94aa5b5466c,2025-03-12_15h17.19.360,Tarea de decisión léxica,2024.2.5,Win32,142.8571429,,,,,,,,,,,,,,,,,,,,,,,476.3441,477.2933,a,1,0.294,,0.294,1,477.2934,477.7928,,,,,,141,FEM,WORD,AGR,150,cruz,,la,,477.7941,477.7949,-0.492457391,-0.251338229,0,0,0,,0,213,213,140,1,sina,,,,
,,,,,,617305abc8cde4cf0e08255b,676192165fb32c2e1fb7aee6,67d1940ae9e4d94aa5b5466c,2025-03-12_15h17.19.360,Tarea de decisión léxica,2024.2.5,Win32,142.8571429,,,,,,,,,,,,,,,,,,,,,,,477.7957,478.7919,l,1,0.3352,,0.3352,1,478.792,479.2912,,,,,,128,MAS,NOWORD,DIS,150,itio,,la,,479.2913,479.2915,-0.492457391,-0.251338229,0,0,0,,0,214,214,127,1,pico,,,,
,,,,,,617305abc8cde4cf0e08255b,676192165fb32c2e1fb7aee6,67d1940ae9e4d94aa5b5466c,2025-03-12_15h17.19.360,Tarea de decisión léxica,2024.2.5,Win32,142.8571429,,,,,,,,,,,,,,,,,,,,,,,479.2925,480.2696,a,1,0.3191,,0.3191,1,480.2697,480.7689,,,,,,381,MAS,WORD,AGR,150,humor,,el,,480.769,480.7693,-0.492457391,-0.251338229,0,0,0,,0,215,215,380,1,nusor,,,,
,,,,,,617305abc8cde4cf0e08255b,676192165fb32c2e1fb7aee6,67d1940ae9e4d94aa5b5466c,2025-03-12_15h17.19.360,Tarea de decisión léxica,2024.2.5,Win32,142.8571429,,,,,,,,,,,,,,,,,,,,,,,480.7703,481.7748,a,1,0.3507,,0.3507,1,481.775,482.2743,,,,,,61,FEM,WORD,AGR,150,obra,,la,,482.2745,482.2746,-0.492457391,-0.251338229,0,0,0,,0,216,216,60,1,efla,,,,
,,,,,,617305abc8cde4cf0e08255b,676192165fb32c2e1fb7aee6,67d1940ae9e4d94aa5b5466c,2025-03-12_15h17.19.360,Tarea de decisión léxica,2024.2.5,Win32,142.8571429,,,,,,,,,,,,,,,,,,,,,,,482.2759,483.2387,a,1,0.3065,,0.3065,1,483.2388,483.7381,,,,,,449,FEM,WORD,AGR,150,pluma,,la,,483.7382,483.7383,-0.492457391,-0.251338229,0,0,0,,0,217,217,448,1,crusa,,,,
,,,,,,617305abc8cde4cf0e08255b,676192165fb32c2e1fb7aee6,67d1940ae9e4d94aa5b5466c,2025-03-12_15h17.19.360,Tarea de decisión léxica,2024.2.5,Win32,142.8571429,,,,,,,,,,,,,,,,,,,,,,,483.7394,484.6747,a,1,0.2809,,0.2809,1,484.6748,485.1745,,,,,,25,FEM,WORD,AGR,150,cama,,la,,485.1759,485.177,-0.492457391,-0.251338229,0,0,0,,0,218,218,24,1,paza,,,,
,,,,,,617305abc8cde4cf0e08255b,676192165fb32c2e1fb7aee6,67d1940ae9e4d94aa5b5466c,2025-03-12_15h17.19.360,Tarea de decisión léxica,2024.2.5,Win32,142.8571429,,,,,,,,,,,,,,,,,,,,,,,485.1781,486.1523,a,1,0.3131,,0.3131,1,486.1525,486.6519,,,,,,89,MAS,WORD,AGR,150,humo,,el,,486.652,486.6522,-0.492457391,-0.251338229,0,0,0,,0,219,219,88,1,guso,,,,
,,,,,,617305abc8cde4cf0e08255b,676192165fb32c2e1fb7aee6,67d1940ae9e4d94aa5b5466c,2025-03-12_15h17.19.360,Tarea de decisión léxica,2024.2.5,Win32,142.8571429,,,,,,,,,,,,,,,,,,,,,,,486.6534,487.6025,l,0,0.2918,,0.2918,0,487.6034,488.1018,,,,,,217,MAS,WORD,DIS,150,luto,,la,,488.102,488.1022,-0.492457391,-0.251338229,0,0,0,,0,220,220,216,1,budo,,,,
,,,,,,617305abc8cde4cf0e08255b,676192165fb32c2e1fb7aee6,67d1940ae9e4d94aa5b5466c,2025-03-12_15h17.19.360,Tarea de decisión léxica,2024.2.5,Win32,142.8571429,,,,,,,,,,,,,,,,,,,,,,,488.1034,489.2881,l,1,0.5274,,0.5274,1,489.2892,489.7877,,,,,,34,FEM,NOWORD,AGR,150,loda,,la,,489.7878,489.788,-0.492457391,-0.251338229,0,0,0,,0,221,221,33,1,boca,,,,
,,,,,,617305abc8cde4cf0e08255b,676192165fb32c2e1fb7aee6,67d1940ae9e4d94aa5b5466c,2025-03-12_15h17.19.360,Tarea de decisión léxica,2024.2.5,Win32,142.8571429,,,,,,,,,,,,,,,,,,,,,,,489.7891,490.946,l,1,0.5026,,0.5026,1,490.9462,491.4456,,,,,,114,FEM,NOWORD,AGR,150,tada,,la,,491.4458,491.446,-0.492457391,-0.251338229,0,0,0,,0,222,222,113,1,miel,,,,
,,,,,,617305abc8cde4cf0e08255b,676192165fb32c2e1fb7aee6,67d1940ae9e4d94aa5b5466c,2025-03-12_15h17.19.360,Tarea de decisión léxica,2024.2.5,Win32,142.8571429,,,,,,,,,,,,,,,,,,,,,,,491.447,492.5278,l,1,0.4241,,0.4241,1,492.528,493.0273,,,,,,338,MAS,NOWORD,AGR,150,nuejo,,el,,493.0287,493.0294,-0.492457391,-0.251338229,0,0,0,,0,223,223,337,1,huevo,,,,
,,,,,,617305abc8cde4cf0e08255b,676192165fb32c2e1fb7aee6,67d1940ae9e4d94aa5b5466c,2025-03-12_15h17.19.360,Tarea de decisión léxica,2024.2.5,Win32,142.8571429,,,,,,,,,,,,,,,,,,,,,,,493.0303,494.1028,a,1,0.4096,,0.4096,1,494.1029,494.6048,,,,,,71,FEM,WORD,AGR,150,isla,,la,,494.6048,494.605,-0.492457391,-0.251338229,0,0,0,,0,224,224,70,1,urla,,,,
,,,,,,617305abc8cde4cf0e08255b,676192165fb32c2e1fb7aee6,67d1940ae9e4d94aa5b5466c,2025-03-12_15h17.19.360,Tarea de decisión léxica,2024.2.5,Win32,142.8571429,,,,,,,,,,,,,,,,,,,,,,,494.6059,495.5842,a,1,0.32,,0.32,1,495.5844,496.0826,,,,,,263,FEM,WORD,DIS,150,vista,,el,,496.0827,496.0828,-0.492457391,-0.251338229,0,0,0,,0,225,225,262,1,dosta,,,,
,,,,,,617305abc8cde4cf0e08255b,676192165fb32c2e1fb7aee6,67d1940ae9e4d94aa5b5466c,2025-03-12_15h17.19.360,Tarea de decisión léxica,2024.2.5,Win32,142.8571429,,,,,,,,,,,,,,,,,,,,,,,496.0837,497.1368,a,1,0.395,,0.395,1,497.1369,497.6363,,,,,,353,FEM,WORD,DIS,150,celda,,el,,497.6364,497.6365,-0.492457391,-0.251338229,0,0,0,,0,226,226,352,1,cezca,,,,
,,,,,,617305abc8cde4cf0e08255b,676192165fb32c2e1fb7aee6,67d1940ae9e4d94aa5b5466c,2025-03-12_15h17.19.360,Tarea de decisión léxica,2024.2.5,Win32,142.8571429,,,,,,,,,,,,,,,,,,,,,,,497.6377,498.6565,a,1,0.3612,,0.3612,1,498.6567,499.1552,,,,,,111,MAS,WORD,AGR,150,muro,,el,,499.1563,499.157,-0.492457391,-0.251338229,0,0,0,,0,227,227,110,1,siro,,,,
,,,,,,617305abc8cde4cf0e08255b,676192165fb32c2e1fb7aee6,67d1940ae9e4d94aa5b5466c,2025-03-12_15h17.19.360,Tarea de decisión léxica,2024.2.5,Win32,142.8571429,,,,,,,,,,,,,,,,,,,,,,,499.1577,500.5854,a,1,0.7639,,0.7639,1,500.5855,501.0838,,,,,,477,MAS,WORD,DIS,150,botón,,la,,501.084,501.0841,-0.492457391,-0.251338229,0,0,0,,0,228,228,476,1,hocon,,,,
,,,,,,617305abc8cde4cf0e08255b,676192165fb32c2e1fb7aee6,67d1940ae9e4d94aa5b5466c,2025-03-12_15h17.19.360,Tarea de decisión léxica,2024.2.5,Win32,142.8571429,,,,,,,,,,,,,,,,,,,,,,,501.085,502.0764,a,1,0.3333,,0.3333,1,502.0764,502.5757,,,,,,7,MAS,WORD,DIS,150,hijo,,la,,502.5757,502.576,-0.492457391,-0.251338229,0,0,0,,0,229,229,6,1,nivo,,,,
,,,,,,617305abc8cde4cf0e08255b,676192165fb32c2e1fb7aee6,67d1940ae9e4d94aa5b5466c,2025-03-12_15h17.19.360,Tarea de decisión léxica,2024.2.5,Win32,142.8571429,,,,,,,,,,,,,,,,,,,,,,,502.5768,503.5401,a,1,0.3053,,0.3053,1,503.5402,504.0395,,,,,,23,FEM,WORD,DIS,150,hija,,el,,504.0396,504.0397,-0.492457391,-0.251338229,0,0,0,,0,230,230,22,1,giva,,,,
,,,,,,617305abc8cde4cf0e08255b,676192165fb32c2e1fb7aee6,67d1940ae9e4d94aa5b5466c,2025-03-12_15h17.19.360,Tarea de decisión léxica,2024.2.5,Win32,142.8571429,,,,,,,,,,,,,,,,,,,,,,,504.0406,505.1292,l,1,0.4305,,0.4305,1,505.1293,505.6281,,,,,,154,MAS,NOWORD,AGR,150,tado,,el,,505.6282,505.6284,-0.492457391,-0.251338229,0,0,0,,0,231,231,153,1,pato,,,,
,,,,,,617305abc8cde4cf0e08255b,676192165fb32c2e1fb7aee6,67d1940ae9e4d94aa5b5466c,2025-03-12_15h17.19.360,Tarea de decisión léxica,2024.2.5,Win32,142.8571429,,,,,,,,,,,,,,,,,,,,,,,505.6292,506.6277,a,0,0.3408,,0.3408,0,506.6284,507.1266,,,,,,182,FEM,NOWORD,AGR,150,teda,,la,,507.1276,507.1283,-0.492457391,-0.251338229,0,0,0,,0,232,232,181,1,seda,,,,
,,,,,,617305abc8cde4cf0e08255b,676192165fb32c2e1fb7aee6,67d1940ae9e4d94aa5b5466c,2025-03-12_15h17.19.360,Tarea de decisión léxica,2024.2.5,Win32,142.8571429,,,,,,,,,,,,,,,,,,,,,,,507.1291,508.1542,a,1,0.3682,,0.3682,1,508.1552,508.6525,,,,,,201,FEM,WORD,DIS,150,cuna,,el,,508.6525,508.6527,-0.492457391,-0.251338229,0,0,0,,0,233,233,200,1,cusa,,,,
,,,,,,617305abc8cde4cf0e08255b,676192165fb32c2e1fb7aee6,67d1940ae9e4d94aa5b5466c,2025-03-12_15h17.19.360,Tarea de decisión léxica,2024.2.5,Win32,142.8571429,,,,,,,,,,,,,,,,,,,,,,,508.6539,509.677,a,1,0.3641,,0.3641,1,509.6771,510.1765,,,,,,177,MAS,WORD,AGR,150,reto,,el,,510.1766,510.1767,-0.492457391,-0.251338229,0,0,0,,0,234,234,176,1,bito,,,,
,,,,,,617305abc8cde4cf0e08255b,676192165fb32c2e1fb7aee6,67d1940ae9e4d94aa5b5466c,2025-03-12_15h17.19.360,Tarea de decisión léxica,2024.2.5,Win32,142.8571429,,,,,,,,,,,,,,,,,,,,,,,510.1783,511.2727,l,1,0.4377,,0.4377,1,511.2728,511.7721,,,,,,454,FEM,NOWORD,AGR,150,pafia,,la,,511.7723,511.7725,-0.492457391,-0.251338229,0,0,0,,0,235,235,453,1,mafia,,,,
,,,,,,617305abc8cde4cf0e08255b,676192165fb32c2e1fb7aee6,67d1940ae9e4d94aa5b5466c,2025-03-12_15h17.19.360,Tarea de decisión léxica,2024.2.5,Win32,142.8571429,,,,,,,,,,,,,,,,,,,,,,,511.7738,512.896,l,1,0.4664,,0.4664,1,512.8962,513.3956,,,,,,358,FEM,NOWORD,AGR,150,gruba,,la,,513.3956,513.3958,-0.492457391,-0.251338229,0,0,0,,0,236,236,357,1,bruja,,,,
,,,,,,617305abc8cde4cf0e08255b,676192165fb32c2e1fb7aee6,67d1940ae9e4d94aa5b5466c,2025-03-12_15h17.19.360,Tarea de decisión léxica,2024.2.5,Win32,142.8571429,,,,,,,,,,,,,,,,,,,,,,,513.3973,514.5337,a,1,0.4833,,0.4833,1,514.5339,515.0327,,,,,,293,MAS,WORD,DIS,150,campo,,la,,515.0344,515.0351,-0.492457391,-0.251338229,0,0,0,,0,237,237,292,1,cacso,,,,
,,,,,,617305abc8cde4cf0e08255b,676192165fb32c2e1fb7aee6,67d1940ae9e4d94aa5b5466c,2025-03-12_15h17.19.360,Tarea de decisión léxica,2024.2.5,Win32,142.8571429,,,,,,,,,,,,,,,,,,,,,,,515.0359,516.0456,l,1,0.3474,,0.3474,1,516.0458,516.545,,,,,,144,MAS,NOWORD,DIS,150,pezo,,la,,516.5451,516.5453,-0.492457391,-0.251338229,0,0,0,,0,238,238,143,1,pavo,,,,
,,,,,,617305abc8cde4cf0e08255b,676192165fb32c2e1fb7aee6,67d1940ae9e4d94aa5b5466c,2025-03-12_15h17.19.360,Tarea de decisión léxica,2024.2.5,Win32,142.8571429,,,,,,,,,,,,,,,,,,,,,,,516.5464,517.5857,l,1,0.3838,,0.3838,1,517.5858,518.0852,,,,,,392,MAS,NOWORD,DIS,150,dievo,,la,,518.0854,518.0855,-0.492457391,-0.251338229,0,0,0,,0,239,239,391,1,dueño,,,,
,,,,,,617305abc8cde4cf0e08255b,676192165fb32c2e1fb7aee6,67d1940ae9e4d94aa5b5466c,2025-03-12_15h17.19.360,Tarea de decisión léxica,2024.2.5,Win32,142.8571429,,,,,,,,,,,,,,,,,,,,,,,518.0871,519.1119,l,1,0.3715,,0.3715,1,519.112,519.6114,,,,,,112,MAS,NOWORD,DIS,150,siro,,la,,519.6115,519.6117,-0.492457391,-0.251338229,0,0,0,,0,240,240,111,1,muro,,,,
,,,,,,617305abc8cde4cf0e08255b,676192165fb32c2e1fb7aee6,67d1940ae9e4d94aa5b5466c,2025-03-12_15h17.19.360,Tarea de decisión léxica,2024.2.5,Win32,142.8571429,,,,,,,,,,,,,,,,,,,,,,,519.613,520.8324,a,1,0.5639,,0.5639,1,520.8325,521.3319,,,,,,203,FEM,WORD,AGR,150,leña,,la,,521.3319,521.332,-0.492457391,-0.251338229,0,0,0,,0,241,241,202,1,beja,,,,
,,,,,,617305abc8cde4cf0e08255b,676192165fb32c2e1fb7aee6,67d1940ae9e4d94aa5b5466c,2025-03-12_15h17.19.360,Tarea de decisión léxica,2024.2.5,Win32,142.8571429,,,,,,,,,,,,,,,,,,,,,,,521.3332,522.3587,a,1,0.3683,,0.3683,1,522.3589,522.8581,,,,,,209,MAS,WORD,AGR,150,velo,,el,,522.8594,522.8602,-0.492457391,-0.251338229,0,0,0,,0,242,242,208,1,dero,,,,
,,,,,,617305abc8cde4cf0e08255b,676192165fb32c2e1fb7aee6,67d1940ae9e4d94aa5b5466c,2025-03-12_15h17.19.360,Tarea de decisión léxica,2024.2.5,Win32,142.8571429,,,,,,,,,,,,,,,,,,,,,,,522.8608,523.9057,a,1,0.3852,,0.3852,1,523.9058,524.4052,,,,,,387,FEM,WORD,AGR,150,crema,,la,,524.4052,524.4055,-0.492457391,-0.251338229,0,0,0,,0,243,243,386,1,bresa,,,,
,,,,,,617305abc8cde4cf0e08255b,676192165fb32c2e1fb7aee6,67d1940ae9e4d94aa5b5466c,2025-03-12_15h17.19.360,Tarea de decisión léxica,2024.2.5,Win32,142.8571429,,,,,,,,,,,,,,,,,,,,,,,524.4066,525.4181,l,1,0.357,,0.357,1,525.4181,525.9175,,,,,,282,MAS,NOWORD,AGR,150,cauro,,el,,525.9176,525.9178,-0.492457391,-0.251338229,0,0,0,,0,244,244,281,1,cielo,,,,
,,,,,,617305abc8cde4cf0e08255b,676192165fb32c2e1fb7aee6,67d1940ae9e4d94aa5b5466c,2025-03-12_15h17.19.360,Tarea de decisión léxica,2024.2.5,Win32,142.8571429,,,,,,,,,,,,,,,,,,,,,,,525.919,526.9677,l,1,0.3955,,0.3955,1,526.9678,527.4645,,,,,,234,FEM,NOWORD,AGR,150,fasa,,la,,527.4646,527.4647,-0.492457391,-0.251338229,0,0,0,,0,245,245,233,1,lana,,,,
,,,,,,617305abc8cde4cf0e08255b,676192165fb32c2e1fb7aee6,67d1940ae9e4d94aa5b5466c,2025-03-12_15h17.19.360,Tarea de decisión léxica,2024.2.5,Win32,142.8571429,,,,,,,,,,,,,,,,,,,,,,,527.4659,528.4081,l,1,0.2871,,0.2871,1,528.4082,528.9075,,,,,,476,FEM,NOWORD,DIS,150,mucta,,el,,528.9076,528.9078,-0.492457391,-0.251338229,0,0,0,,0,246,246,475,1,manta,,,,
,,,,,,617305abc8cde4cf0e08255b,676192165fb32c2e1fb7aee6,67d1940ae9e4d94aa5b5466c,2025-03-12_15h17.19.360,Tarea de decisión léxica,2024.2.5,Win32,142.8571429,,,,,,,,,,,,,,,,,,,,,,,528.9089,529.8788,l,1,0.3139,,0.3139,1,529.8788,530.3783,,,,,,68,FEM,NOWORD,DIS,150,gesa,,el,,530.38,530.3806,-0.492457391,-0.251338229,0,0,0,,0,247,247,67,1,nena,,,,
,,,,,,617305abc8cde4cf0e08255b,676192165fb32c2e1fb7aee6,67d1940ae9e4d94aa5b5466c,2025-03-12_15h17.19.360,Tarea de decisión léxica,2024.2.5,Win32,142.8571429,,,,,,,,,,,,,,,,,,,,,,,530.3814,531.3707,a,1,0.3309,,0.3309,1,531.3708,531.8698,,,,,,317,FEM,WORD,DIS,150,playa,,el,,531.8699,531.87,-0.492457391,-0.251338229,0,0,0,,0,248,248,316,1,plaad,,,,
,,,,,,617305abc8cde4cf0e08255b,676192165fb32c2e1fb7aee6,67d1940ae9e4d94aa5b5466c,2025-03-12_15h17.19.360,Tarea de decisión léxica,2024.2.5,Win32,142.8571429,,,,,,,,,,,,,,,,,,,,,,,531.8713,532.8133,l,1,0.288,,0.288,1,532.8134,533.3129,,,,,,286,MAS,NOWORD,AGR,150,echor,,el,,533.3129,533.313,-0.492457391,-0.251338229,0,0,0,,0,249,249,285,1,error,,,,
,,,,,,617305abc8cde4cf0e08255b,676192165fb32c2e1fb7aee6,67d1940ae9e4d94aa5b5466c,2025-03-12_15h17.19.360,Tarea de decisión léxica,2024.2.5,Win32,142.8571429,,,,,,,,,,,,,,,,,,,,,,,533.3144,534.402,a,1,0.4306,,0.4306,1,534.4022,534.9014,,,,,,461,FEM,WORD,DIS,150,tabla,,el,,534.9015,534.9018,-0.492457391,-0.251338229,0,0,0,,0,250,250,460,1,pagra,,,,
,,,,,,617305abc8cde4cf0e08255b,676192165fb32c2e1fb7aee6,67d1940ae9e4d94aa5b5466c,2025-03-12_15h17.19.360,Tarea de decisión léxica,2024.2.5,Win32,142.8571429,,,,,,,,,,,,,,,,,,,,,,,534.9029,535.9976,l,1,0.4404,,0.4404,1,535.9977,536.4971,,,,,,210,MAS,NOWORD,AGR,150,dero,,el,,536.4985,536.4991,-0.492457391,-0.251338229,0,0,0,,0,251,251,209,1,velo,,,,
,,,,,,617305abc8cde4cf0e08255b,676192165fb32c2e1fb7aee6,67d1940ae9e4d94aa5b5466c,2025-03-12_15h17.19.360,Tarea de decisión léxica,2024.2.5,Win32,142.8571429,,,,,,,,,,,,,,,,,,,,,,,536.5,537.503,l,1,0.3431,,0.3431,1,537.5031,538.0025,,,,,,400,MAS,NOWORD,DIS,150,serro,,la,,538.0026,538.0028,-0.492457391,-0.251338229,0,0,0,,0,252,252,399,1,techo,,,,
,,,,,,617305abc8cde4cf0e08255b,676192165fb32c2e1fb7aee6,67d1940ae9e4d94aa5b5466c,2025-03-12_15h17.19.360,Tarea de decisión léxica,2024.2.5,Win32,142.8571429,,,,,,,,,,,,,,,,,,,,,,,538.004,539.0709,l,1,0.4122,,0.4122,1,539.071,539.5703,,,,,,440,FEM,NOWORD,DIS,150,prema,,el,,539.5704,539.5706,-0.492457391,-0.251338229,0,0,0,,0,253,253,439,1,presa,,,,
,,,,,,617305abc8cde4cf0e08255b,676192165fb32c2e1fb7aee6,67d1940ae9e4d94aa5b5466c,2025-03-12_15h17.19.360,Tarea de decisión léxica,2024.2.5,Win32,142.8571429,,,,,,,,,,,,,,,,,,,,,,,539.5717,540.5693,l,1,0.3436,,0.3436,1,540.5695,541.0688,,,,,,60,FEM,NOWORD,DIS,150,tafa,,el,,541.0689,541.0691,-0.492457391,-0.251338229,0,0,0,,0,254,254,59,1,sala,,,,
,,,,,,617305abc8cde4cf0e08255b,676192165fb32c2e1fb7aee6,67d1940ae9e4d94aa5b5466c,2025-03-12_15h17.19.360,Tarea de decisión léxica,2024.2.5,Win32,142.8571429,,,,,,,,,,,,,,,,,,,,,,,541.0706,542.0333,a,0,0.3094,,0.3094,0,542.0342,542.5326,,,,,,80,FEM,NOWORD,DIS,150,ciel,,el,,542.5326,542.5328,-0.492457391,-0.251338229,0,0,0,,0,255,255,79,1,piel,,,,
,,,,,,617305abc8cde4cf0e08255b,676192165fb32c2e1fb7aee6,67d1940ae9e4d94aa5b5466c,2025-03-12_15h17.19.360,Tarea de decisión léxica,2024.2.5,Win32,142.8571429,,,,,,,,,,,,,,,,,,,,,,,542.5341,543.6011,a,1,0.4117,,0.4117,1,543.602,544.1005,,,,,,457,MAS,WORD,DIS,150,plato,,la,,544.102,544.1026,-0.492457391,-0.251338229,0,0,0,,0,256,256,456,1,glaco,,,,
,,,,,,617305abc8cde4cf0e08255b,676192165fb32c2e1fb7aee6,67d1940ae9e4d94aa5b5466c,2025-03-12_15h17.19.360,Tarea de decisión léxica,2024.2.5,Win32,142.8571429,,,,,,,,,,,,,,,,,,,,,,,544.1033,545.1064,l,1,0.3437,,0.3437,1,545.1065,545.6059,,,,,,66,MAS,NOWORD,AGR,150,nios,,el,,545.6059,545.6062,-0.492457391,-0.251338229,0,0,0,,0,257,257,65,1,dios,,,,
,,,,,,617305abc8cde4cf0e08255b,676192165fb32c2e1fb7aee6,67d1940ae9e4d94aa5b5466c,2025-03-12_15h17.19.360,Tarea de decisión léxica,2024.2.5,Win32,142.8571429,,,,,,,,,,,,,,,,,,,,,,,545.6075,546.6257,l,1,0.3629,,0.3629,1,546.6259,547.1252,,,,,,306,MAS,NOWORD,AGR,150,adiol,,el,,547.1253,547.1255,-0.492457391,-0.251338229,0,0,0,,0,258,258,305,1,avión,,,,
,,,,,,617305abc8cde4cf0e08255b,676192165fb32c2e1fb7aee6,67d1940ae9e4d94aa5b5466c,2025-03-12_15h17.19.360,Tarea de decisión léxica,2024.2.5,Win32,142.8571429,,,,,,,,,,,,,,,,,,,,,,,547.1267,548.0826,l,1,0.3029,,0.3029,1,548.0827,548.5821,,,,,,126,MAS,NOWORD,AGR,150,vudo,,el,,548.5822,548.5824,-0.492457391,-0.251338229,0,0,0,,0,259,259,125,1,lujo,,,,
,,,,,,617305abc8cde4cf0e08255b,676192165fb32c2e1fb7aee6,67d1940ae9e4d94aa5b5466c,2025-03-12_15h17.19.360,Tarea de decisión léxica,2024.2.5,Win32,142.8571429,,,,,,,,,,,,,,,,,,,,,,,548.5836,549.5398,a,1,0.3033,,0.3033,1,549.54,550.039,,,,,,391,MAS,WORD,AGR,150,dueño,,el,,550.039,550.0392,-0.492457391,-0.251338229,0,0,0,,0,260,260,390,1,dievo,,,,
,,,,,,617305abc8cde4cf0e08255b,676192165fb32c2e1fb7aee6,67d1940ae9e4d94aa5b5466c,2025-03-12_15h17.19.360,Tarea de decisión léxica,2024.2.5,Win32,142.8571429,,,,,,,,,,,,,,,,,,,,,,,550.0405,551.0588,l,1,0.3626,,0.3626,1,551.0588,551.5588,,,,,,116,FEM,NOWORD,DIS,150,haca,,el,,551.5601,551.5609,-0.492457391,-0.251338229,0,0,0,,0,261,261,115,1,pata,,,,
,,,,,,617305abc8cde4cf0e08255b,676192165fb32c2e1fb7aee6,67d1940ae9e4d94aa5b5466c,2025-03-12_15h17.19.360,Tarea de decisión léxica,2024.2.5,Win32,142.8571429,,,,,,,,,,,,,,,,,,,,,,,551.5618,552.6272,a,1,0.4072,,0.4072,1,552.6272,553.1262,,,,,,215,FEM,WORD,AGR,150,raíz,,la,,553.1262,553.1264,-0.492457391,-0.251338229,0,0,0,,0,262,262,214,1,raua,,,,
,,,,,,617305abc8cde4cf0e08255b,676192165fb32c2e1fb7aee6,67d1940ae9e4d94aa5b5466c,2025-03-12_15h17.19.360,Tarea de decisión léxica,2024.2.5,Win32,142.8571429,,,,,,,,,,,,,,,,,,,,,,,553.128,554.1113,l,1,0.3279,,0.3279,1,554.1114,554.6108,,,,,,402,MAS,NOWORD,AGR,150,pirvo,,el,,554.6108,554.6111,-0.492457391,-0.251338229,0,0,0,,0,263,263,401,1,polvo,,,,
