counterbalancing_condition,consent_prescreening.block_1/declare_consent,consent_prescreening.block_1/age_years,consent_prescreening.block_1/gender,consent_prescreening.block_1/language_disorder,consent_prescreening.block_1/first_language,PROLIFIC_PID,STUDY_ID,SESSION_ID,date,expName,psychopyVersion,OS,frameRate,check_prescreening_answers.started,check_prescreening_answers.stopped,Instructions.started,Instructions.stopped,instr_done_keyboard.keys,instr_done_keyboard.rt,instr_done_keyboard.duration,instr_done_touch.x,instr_done_touch.y,instr_done_touch.leftButton,instr_done_touch.midButton,instr_done_touch.rightButton,instruction_pages.thisRepN,instruction_pages.thisTrialN,instruction_pages.thisN,instruction_pages.thisIndex,instruction_pages.ran,pageN,phase,instruct_text,has_image,instruct_image,presentTrial.started,presentTrial.stopped,response.keys,response.corr,response.rt,response.duration,rt,corr,feedback.started,feedback.stopped,practice_trials.thisRepN,practice_trials.thisTrialN,practice_trials.thisN,practice_trials.thisIndex,practice_trials.ran,TrialID,Gender,StimulusType,Condition,PrimeDuration,Prime,len,Flanker,corrAns,Break.started,Break.stopped,break_done_touch.x,break_done_touch.y,break_done_touch.leftButton,break_done_touch.midButton,break_done_touch.rightButton,break_done_keyboard.keys,experiment_trials.thisRepN,experiment_trials.thisTrialN,experiment_trials.thisN,experiment_trials.thisIndex,experiment_trials.ran,PairedWith,break_done_keyboard.rt,break_done_keyboard.duration,End.started,End.stopped
3,"[""over_18"",""comfortable"",""read_info"",""consent_given""]",30,M,"[""none""]","[""spanish""]",651aeac562599893a66f28cc,676192165fb32c2e1fb7aee6,67d1ab83b2c7d3f95cede32a,2025-03-12_16h43.08.611,Tarea de decisión léxica,2024.2.5,Win32,144.9275362,,,,,,,,,,,,,,,,,,,,,,,,,,,,,,,,,,,,,,,,,,,,,,,,,,,,,,,,,,,,,,,,
,,,,,,651aeac562599893a66f28cc,676192165fb32c2e1fb7aee6,67d1ab83b2c7d3f95cede32a,2025-03-12_16h43.08.611,Tarea de decisión léxica,2024.2.5,Win32,144.9275362,16.4395,16.4397,,,,,,,,,,,,,,,,,,,,,,,,,,,,,,,,,,,,,,,,,,,,,,,,,,,,,,,,,,,,,,
,,,,,,651aeac562599893a66f28cc,676192165fb32c2e1fb7aee6,67d1ab83b2c7d3f95cede32a,2025-03-12_16h43.08.611,Tarea de decisión léxica,2024.2.5,Win32,144.9275362,,,16.4632,27.5582,space,11.0751,,0.269444444,-0.173611111,0,0,0,0,0,0,0,1,1,instructions,"INSTRUCCIONES
Va a realizar una prueba de decisión léxica. Desde el comienzo de la prueba mire siempre al centro de la pantalla. Se presentará una serie de cadenas de letras, una a la vez, en la pantalla. Su tarea consiste en determinar si cada cadena de letras constituye una palabra real en español o una no-palabra (una secuencia de letras que no constituye una palabra real). 

Pulse la tecla ESPACIO para continuar.",0,keyboardresponseWN.png,,,,,,,,,,,,,,,,,,,,,,,,,,,,,,,,,,,,,,,,,,
,,,,,,651aeac562599893a66f28cc,676192165fb32c2e1fb7aee6,67d1ab83b2c7d3f95cede32a,2025-03-12_16h43.08.611,Tarea de decisión léxica,2024.2.5,Win32,144.9275362,,,27.5598,36.9196,space,9.3499,,0.269444444,-0.173611111,0,0,0,0,1,1,1,1,2,instructions,"El procedimiento es el siguiente: Aparecerán dos barras verticales posicionadas en el centro de la pantalla, separadas por un pequeño espacio.Por favor, enfoque su atención en el espacio entre las barras. Esto preparará sus ojos para la siguiente cadena de letras, que aparecerá entre las dos barras durante un instante.

Pulse la tecla ESPACIO para continuar.",0,keyboardresponseWN.png,,,,,,,,,,,,,,,,,,,,,,,,,,,,,,,,,,,,,,,,,,
,,,,,,651aeac562599893a66f28cc,676192165fb32c2e1fb7aee6,67d1ab83b2c7d3f95cede32a,2025-03-12_16h43.08.611,Tarea de decisión léxica,2024.2.5,Win32,144.9275362,,,36.9211,51.635,space,14.6844,,0.269444444,-0.173611111,0,0,0,0,2,2,2,1,3,instructions,"En el teclado de su dispositivo, pulse la tecla ""A"" si la cadena de letras es una palabra real en español (por ejemplo: ""mano"") y la tecla ""L"" si la cadena de letras es una no-palabra (por ejemplo: ""minu"").
Pulse la tecla ESPACIO para continuar.",1,keyboardresponseWN.png,,,,,,,,,,,,,,,,,,,,,,,,,,,,,,,,,,,,,,,,,,
,,,,,,651aeac562599893a66f28cc,676192165fb32c2e1fb7aee6,67d1ab83b2c7d3f95cede32a,2025-03-12_16h43.08.611,Tarea de decisión léxica,2024.2.5,Win32,144.9275362,,,51.6361,61.2742,space,9.6282,,0.269444444,-0.173611111,0,0,0,0,3,3,3,1,4,instructions,"Es muy importante que responda con la mayor rapidez y precisión posibles. Si no responde dentro de 2 segundos, aparecerá el mensaje ""Muy lento"" y el experimento pasará a la siguiente palabra. Inmediatamente después de su respuesta se indicará si fue correcta o no. Los primeros 15 intentos serán de práctica y habrá dos descansos durante la prueba.

Pulse la tecla ESPACIO  para iniciar la parte de práctica.",0,keyboardresponseWN.png,,,,,,,,,,,,,,,,,,,,,,,,,,,,,,,,,,,,,,,,,,
,,,,,,651aeac562599893a66f28cc,676192165fb32c2e1fb7aee6,67d1ab83b2c7d3f95cede32a,2025-03-12_16h43.08.611,Tarea de decisión léxica,2024.2.5,Win32,144.9275362,,,,,,,,,,,,,,,,,,,,,,,61.2936,62.6074,l,1,0.6557,,0.6557,1,62.6077,63.1072,0,0,0,2,1,1003,FEM,NOWORD,DIS,150,muvor,5,el,a,,,,,,,,,,,,,,,,,,
,,,,,,651aeac562599893a66f28cc,676192165fb32c2e1fb7aee6,67d1ab83b2c7d3f95cede32a,2025-03-12_16h43.08.611,Tarea de decisión léxica,2024.2.5,Win32,144.9275362,,,,,,,,,,,,,,,,,,,,,,,63.108,64.3572,l,1,0.591,,0.591,1,64.3572,64.8573,0,1,1,1,1,1002,FEM,NOWORD,DIS,150,mabo,4,el,a,,,,,,,,,,,,,,,,,,
,,,,,,651aeac562599893a66f28cc,676192165fb32c2e1fb7aee6,67d1ab83b2c7d3f95cede32a,2025-03-12_16h43.08.611,Tarea de decisión léxica,2024.2.5,Win32,144.9275362,,,,,,,,,,,,,,,,,,,,,,,64.8588,66.0656,l,1,0.5487,,0.5487,1,66.0656,66.5657,0,2,2,0,1,1001,FEM,NOWORD,AGR,150,croz,4,la,a,,,,,,,,,,,,,,,,,,
,,,,,,651aeac562599893a66f28cc,676192165fb32c2e1fb7aee6,67d1ab83b2c7d3f95cede32a,2025-03-12_16h43.08.611,Tarea de decisión léxica,2024.2.5,Win32,144.9275362,,,,,,,,,,,,,,,,,,,,,,,66.5668,67.5727,a,1,0.3503,,0.3503,1,67.5727,68.0727,0,3,3,6,1,1007,MAS,WORD,DIS,150,masa,4,la,l,,,,,,,,,,,,,,,,,,
,,,,,,651aeac562599893a66f28cc,676192165fb32c2e1fb7aee6,67d1ab83b2c7d3f95cede32a,2025-03-12_16h43.08.611,Tarea de decisión léxica,2024.2.5,Win32,144.9275362,,,,,,,,,,,,,,,,,,,,,,,68.0732,69.0726,a,1,0.3403,,0.3403,1,69.0727,69.5726,0,4,4,8,1,1009,FEM,WORD,AGR,150,viejo,5,la,l,,,,,,,,,,,,,,,,,,
,,,,,,651aeac562599893a66f28cc,676192165fb32c2e1fb7aee6,67d1ab83b2c7d3f95cede32a,2025-03-12_16h43.08.611,Tarea de decisión léxica,2024.2.5,Win32,144.9275362,,,,,,,,,,,,,,,,,,,,,,,69.5737,70.6004,a,1,0.3676,,0.3676,1,70.6005,71.1004,0,5,5,7,1,1008,MAS,WORD,DIS,150,frío,4,la,l,,,,,,,,,,,,,,,,,,
,,,,,,651aeac562599893a66f28cc,676192165fb32c2e1fb7aee6,67d1ab83b2c7d3f95cede32a,2025-03-12_16h43.08.611,Tarea de decisión léxica,2024.2.5,Win32,144.9275362,,,,,,,,,,,,,,,,,,,,,,,71.1012,72.1702,l,1,0.41,,0.41,1,72.1702,72.6701,0,6,6,4,1,1005,MAS,NOWORD,DIS,150,nobad,5,la,a,,,,,,,,,,,,,,,,,,
,,,,,,651aeac562599893a66f28cc,676192165fb32c2e1fb7aee6,67d1ab83b2c7d3f95cede32a,2025-03-12_16h43.08.611,Tarea de decisión léxica,2024.2.5,Win32,144.9275362,,,,,,,,,,,,,,,,,,,,,,,72.6704,73.7951,l,1,0.4651,,0.4651,1,73.7953,74.2951,0,7,7,3,1,1004,FEM,NOWORD,AGR,150,bireo,5,la,a,,,,,,,,,,,,,,,,,,
,,,,,,651aeac562599893a66f28cc,676192165fb32c2e1fb7aee6,67d1ab83b2c7d3f95cede32a,2025-03-12_16h43.08.611,Tarea de decisión léxica,2024.2.5,Win32,144.9275362,,,,,,,,,,,,,,,,,,,,,,,74.2957,75.2881,a,1,0.3357,,0.3357,1,75.2882,75.7878,0,8,8,5,1,1006,FEM,WORD,AGR,150,cara,4,la,l,,,,,,,,,,,,,,,,,,
,,,,,,651aeac562599893a66f28cc,676192165fb32c2e1fb7aee6,67d1ab83b2c7d3f95cede32a,2025-03-12_16h43.08.611,Tarea de decisión léxica,2024.2.5,Win32,144.9275362,,,,,,,,,,,,,,,,,,,,,,,75.7883,76.7393,a,1,0.2949,,0.2949,1,76.7394,77.2393,0,9,9,9,1,1010,MAS,WORD,DIS,150,video,5,la,l,,,,,,,,,,,,,,,,,,
,,,,,,651aeac562599893a66f28cc,676192165fb32c2e1fb7aee6,67d1ab83b2c7d3f95cede32a,2025-03-12_16h43.08.611,Tarea de decisión léxica,2024.2.5,Win32,144.9275362,,,81.8036,85.8232,space,4.0106,,0.269444444,-0.173611111,0,0,0,,,,,,,,,,,85.8693,86.9135,a,1,0.3822,,0.3822,1,86.9137,87.4133,,,,,,203,FEM,WORD,DIS,150,leña,,el,,87.4134,87.4168,0.269444444,-0.173611111,0,0,0,,0,0,0,202,1,beja,,,,
,,,,,,651aeac562599893a66f28cc,676192165fb32c2e1fb7aee6,67d1ab83b2c7d3f95cede32a,2025-03-12_16h43.08.611,Tarea de decisión léxica,2024.2.5,Win32,144.9275362,,,,,,,,,,,,,,,,,,,,,,,87.4173,88.3576,a,1,0.2802,,0.2802,1,88.3576,88.8576,,,,,,41,FEM,WORD,AGR,150,nave,,la,,88.8578,88.8579,0.269444444,-0.173611111,0,0,0,,0,1,1,40,1,haje,,,,
,,,,,,651aeac562599893a66f28cc,676192165fb32c2e1fb7aee6,67d1ab83b2c7d3f95cede32a,2025-03-12_16h43.08.611,Tarea de decisión léxica,2024.2.5,Win32,144.9275362,,,,,,,,,,,,,,,,,,,,,,,88.859,89.816,l,1,0.3026,,0.3026,1,89.8161,90.3159,,,,,,280,FEM,NOWORD,DIS,150,grina,,el,,90.3167,90.3173,0.269444444,-0.173611111,0,0,0,,0,2,2,279,1,prisa,,,,
,,,,,,651aeac562599893a66f28cc,676192165fb32c2e1fb7aee6,67d1ab83b2c7d3f95cede32a,2025-03-12_16h43.08.611,Tarea de decisión léxica,2024.2.5,Win32,144.9275362,,,,,,,,,,,,,,,,,,,,,,,90.3178,91.3789,a,1,0.4058,,0.4058,1,91.3789,91.8786,,,,,,123,FEM,WORD,DIS,150,flor,,el,,91.8787,91.8788,0.269444444,-0.173611111,0,0,0,,0,3,3,122,1,maba,,,,
,,,,,,651aeac562599893a66f28cc,676192165fb32c2e1fb7aee6,67d1ab83b2c7d3f95cede32a,2025-03-12_16h43.08.611,Tarea de decisión léxica,2024.2.5,Win32,144.9275362,,,,,,,,,,,,,,,,,,,,,,,91.8797,93.0521,a,1,0.5145,,0.5145,1,93.0522,93.5523,,,,,,67,FEM,WORD,DIS,150,nena,,el,,93.5524,93.5524,0.269444444,-0.173611111,0,0,0,,0,4,4,66,1,gesa,,,,
,,,,,,651aeac562599893a66f28cc,676192165fb32c2e1fb7aee6,67d1ab83b2c7d3f95cede32a,2025-03-12_16h43.08.611,Tarea de decisión léxica,2024.2.5,Win32,144.9275362,,,,,,,,,,,,,,,,,,,,,,,93.5531,94.9272,l,1,0.7154,,0.7154,1,94.9273,95.4272,,,,,,242,MAS,NOWORD,AGR,150,mirdo,,el,,95.4273,95.4274,0.269444444,-0.173611111,0,0,0,,0,5,5,241,1,mundo,,,,
,,,,,,651aeac562599893a66f28cc,676192165fb32c2e1fb7aee6,67d1ab83b2c7d3f95cede32a,2025-03-12_16h43.08.611,Tarea de decisión léxica,2024.2.5,Win32,144.9275362,,,,,,,,,,,,,,,,,,,,,,,95.428,96.49,a,1,0.404,,0.404,1,96.4901,96.9898,,,,,,87,MAS,WORD,DIS,150,vaso,,la,,96.9898,96.9899,0.269444444,-0.173611111,0,0,0,,0,6,6,86,1,damo,,,,
,,,,,,651aeac562599893a66f28cc,676192165fb32c2e1fb7aee6,67d1ab83b2c7d3f95cede32a,2025-03-12_16h43.08.611,Tarea de decisión léxica,2024.2.5,Win32,144.9275362,,,,,,,,,,,,,,,,,,,,,,,96.9906,97.9692,a,1,0.3205,,0.3205,1,97.9693,98.4691,,,,,,273,FEM,WORD,AGR,150,broma,,la,,98.47,98.4707,0.269444444,-0.173611111,0,0,0,,0,7,7,272,1,frosa,,,,
,,,,,,651aeac562599893a66f28cc,676192165fb32c2e1fb7aee6,67d1ab83b2c7d3f95cede32a,2025-03-12_16h43.08.611,Tarea de decisión léxica,2024.2.5,Win32,144.9275362,,,,,,,,,,,,,,,,,,,,,,,98.4712,99.5106,a,1,0.3821,,0.3821,1,99.5108,100.0106,,,,,,85,MAS,WORD,AGR,150,lago,,el,,100.0107,100.0108,0.269444444,-0.173611111,0,0,0,,0,8,8,84,1,babo,,,,
,,,,,,651aeac562599893a66f28cc,676192165fb32c2e1fb7aee6,67d1ab83b2c7d3f95cede32a,2025-03-12_16h43.08.611,Tarea de decisión léxica,2024.2.5,Win32,144.9275362,,,,,,,,,,,,,,,,,,,,,,,100.0115,101.0938,l,1,0.4248,,0.4248,1,101.0939,101.594,,,,,,472,FEM,NOWORD,DIS,150,prana,,el,,101.594,101.5942,0.269444444,-0.173611111,0,0,0,,0,9,9,471,1,grasa,,,,
,,,,,,651aeac562599893a66f28cc,676192165fb32c2e1fb7aee6,67d1ab83b2c7d3f95cede32a,2025-03-12_16h43.08.611,Tarea de decisión léxica,2024.2.5,Win32,144.9275362,,,,,,,,,,,,,,,,,,,,,,,101.5949,102.7954,l,1,0.5434,,0.5434,1,102.7954,103.2955,,,,,,78,MAS,NOWORD,AGR,150,fodo,,el,,103.2956,103.2958,0.269444444,-0.173611111,0,0,0,,0,10,10,77,1,loco,,,,
,,,,,,651aeac562599893a66f28cc,676192165fb32c2e1fb7aee6,67d1ab83b2c7d3f95cede32a,2025-03-12_16h43.08.611,Tarea de decisión léxica,2024.2.5,Win32,144.9275362,,,,,,,,,,,,,,,,,,,,,,,103.2967,104.4275,l,1,0.4711,,0.4711,1,104.4276,104.9276,,,,,,230,MAS,NOWORD,AGR,150,ador,,el,,104.9287,104.9295,0.269444444,-0.173611111,0,0,0,,0,11,11,229,1,amor,,,,
,,,,,,651aeac562599893a66f28cc,676192165fb32c2e1fb7aee6,67d1ab83b2c7d3f95cede32a,2025-03-12_16h43.08.611,Tarea de decisión léxica,2024.2.5,Win32,144.9275362,,,,,,,,,,,,,,,,,,,,,,,104.93,105.9899,l,1,0.4033,,0.4033,1,105.99,106.4899,,,,,,246,FEM,NOWORD,AGR,150,pafle,,la,,106.49,106.4901,0.269444444,-0.173611111,0,0,0,,0,12,12,245,1,madre,,,,
,,,,,,651aeac562599893a66f28cc,676192165fb32c2e1fb7aee6,67d1ab83b2c7d3f95cede32a,2025-03-12_16h43.08.611,Tarea de decisión léxica,2024.2.5,Win32,144.9275362,,,,,,,,,,,,,,,,,,,,,,,106.4911,107.9623,l,1,0.813,,0.813,1,107.9624,108.4624,,,,,,58,MAS,NOWORD,AGR,150,heco,,el,,108.4624,108.4624,0.269444444,-0.173611111,0,0,0,,0,13,13,57,1,dedo,,,,
,,,,,,651aeac562599893a66f28cc,676192165fb32c2e1fb7aee6,67d1ab83b2c7d3f95cede32a,2025-03-12_16h43.08.611,Tarea de decisión léxica,2024.2.5,Win32,144.9275362,,,,,,,,,,,,,,,,,,,,,,,108.4632,109.5388,a,1,0.4212,,0.4212,1,109.5388,110.0388,,,,,,235,FEM,WORD,DIS,150,grúa,,el,,110.0388,110.0388,0.269444444,-0.173611111,0,0,0,,0,14,14,234,1,tria,,,,
,,,,,,651aeac562599893a66f28cc,676192165fb32c2e1fb7aee6,67d1ab83b2c7d3f95cede32a,2025-03-12_16h43.08.611,Tarea de decisión léxica,2024.2.5,Win32,144.9275362,,,,,,,,,,,,,,,,,,,,,,,110.0394,111.1151,l,1,0.4156,,0.4156,1,111.1151,111.6151,,,,,,256,MAS,NOWORD,DIS,150,mauco,,la,,111.6153,111.6154,0.269444444,-0.173611111,0,0,0,,0,15,15,255,1,miedo,,,,
,,,,,,651aeac562599893a66f28cc,676192165fb32c2e1fb7aee6,67d1ab83b2c7d3f95cede32a,2025-03-12_16h43.08.611,Tarea de decisión léxica,2024.2.5,Win32,144.9275362,,,,,,,,,,,,,,,,,,,,,,,111.6162,112.6429,a,1,0.3707,,0.3707,1,112.643,113.1429,,,,,,63,FEM,WORD,DIS,150,luna,,el,,113.1435,113.1439,0.269444444,-0.173611111,0,0,0,,0,16,16,62,1,funa,,,,
,,,,,,651aeac562599893a66f28cc,676192165fb32c2e1fb7aee6,67d1ab83b2c7d3f95cede32a,2025-03-12_16h43.08.611,Tarea de decisión léxica,2024.2.5,Win32,144.9275362,,,,,,,,,,,,,,,,,,,,,,,113.1443,114.1082,a,1,0.3061,,0.3061,1,114.1082,114.6082,,,,,,77,MAS,WORD,AGR,150,loco,,el,,114.6082,114.6083,0.269444444,-0.173611111,0,0,0,,0,17,17,76,1,fodo,,,,
,,,,,,651aeac562599893a66f28cc,676192165fb32c2e1fb7aee6,67d1ab83b2c7d3f95cede32a,2025-03-12_16h43.08.611,Tarea de decisión léxica,2024.2.5,Win32,144.9275362,,,,,,,,,,,,,,,,,,,,,,,114.6091,115.6985,l,1,0.4305,,0.4305,1,115.6985,116.1987,,,,,,8,MAS,NOWORD,DIS,150,nivo,,la,,116.1988,116.1989,0.269444444,-0.173611111,0,0,0,,0,18,18,7,1,hijo,,,,
,,,,,,651aeac562599893a66f28cc,676192165fb32c2e1fb7aee6,67d1ab83b2c7d3f95cede32a,2025-03-12_16h43.08.611,Tarea de decisión léxica,2024.2.5,Win32,144.9275362,,,,,,,,,,,,,,,,,,,,,,,116.1995,117.129,a,1,0.2751,,0.2751,1,117.1291,117.629,,,,,,447,MAS,WORD,DIS,150,bolso,,la,,117.629,117.6291,0.269444444,-0.173611111,0,0,0,,0,19,19,446,1,buaso,,,,
,,,,,,651aeac562599893a66f28cc,676192165fb32c2e1fb7aee6,67d1ab83b2c7d3f95cede32a,2025-03-12_16h43.08.611,Tarea de decisión léxica,2024.2.5,Win32,144.9275362,,,,,,,,,,,,,,,,,,,,,,,117.6297,118.7887,a,1,0.5008,,0.5008,1,118.7888,119.2887,,,,,,419,MAS,WORD,DIS,150,truco,,la,,119.2887,119.2888,0.269444444,-0.173611111,0,0,0,,0,20,20,418,1,chudo,,,,
,,,,,,651aeac562599893a66f28cc,676192165fb32c2e1fb7aee6,67d1ab83b2c7d3f95cede32a,2025-03-12_16h43.08.611,Tarea de decisión léxica,2024.2.5,Win32,144.9275362,,,,,,,,,,,,,,,,,,,,,,,119.2893,120.4833,l,1,0.5351,,0.5351,1,120.4833,120.9832,,,,,,216,FEM,NOWORD,DIS,150,raua,,el,,120.9845,120.9853,0.269444444,-0.173611111,0,0,0,,0,21,21,215,1,raíz,,,,
,,,,,,651aeac562599893a66f28cc,676192165fb32c2e1fb7aee6,67d1ab83b2c7d3f95cede32a,2025-03-12_16h43.08.611,Tarea de decisión léxica,2024.2.5,Win32,144.9275362,,,,,,,,,,,,,,,,,,,,,,,120.9858,122.1847,l,1,0.5423,,0.5423,1,122.1848,122.6845,,,,,,466,FEM,NOWORD,AGR,150,asuba,,la,,122.6846,122.6846,0.269444444,-0.173611111,0,0,0,,0,22,22,465,1,aguja,,,,
,,,,,,651aeac562599893a66f28cc,676192165fb32c2e1fb7aee6,67d1ab83b2c7d3f95cede32a,2025-03-12_16h43.08.611,Tarea de decisión léxica,2024.2.5,Win32,144.9275362,,,,,,,,,,,,,,,,,,,,,,,122.685,123.7126,a,1,0.3719,,0.3719,1,123.7126,124.2127,,,,,,147,FEM,WORD,DIS,150,hoja,,el,,124.2127,124.2128,0.269444444,-0.173611111,0,0,0,,0,23,23,146,1,pama,,,,
,,,,,,651aeac562599893a66f28cc,676192165fb32c2e1fb7aee6,67d1ab83b2c7d3f95cede32a,2025-03-12_16h43.08.611,Tarea de decisión léxica,2024.2.5,Win32,144.9275362,,,,,,,,,,,,,,,,,,,,,,,124.2136,125.4068,l,1,0.5348,,0.5348,1,125.4069,125.9069,,,,,,348,FEM,NOWORD,DIS,150,mueza,,el,,125.9069,125.907,0.269444444,-0.173611111,0,0,0,,0,24,24,347,1,pieza,,,,
,,,,,,651aeac562599893a66f28cc,676192165fb32c2e1fb7aee6,67d1ab83b2c7d3f95cede32a,2025-03-12_16h43.08.611,Tarea de decisión léxica,2024.2.5,Win32,144.9275362,,,,,,,,,,,,,,,,,,,,,,,125.9073,127.0599,a,0,0.4964,,0.4964,0,127.0606,127.5599,,,,,,64,FEM,NOWORD,DIS,150,funa,,el,,127.5599,127.5599,0.269444444,-0.173611111,0,0,0,,0,25,25,63,1,luna,,,,
,,,,,,651aeac562599893a66f28cc,676192165fb32c2e1fb7aee6,67d1ab83b2c7d3f95cede32a,2025-03-12_16h43.08.611,Tarea de decisión léxica,2024.2.5,Win32,144.9275362,,,,,,,,,,,,,,,,,,,,,,,127.5604,128.7264,l,1,0.5063,,0.5063,1,128.7271,129.2266,,,,,,262,MAS,NOWORD,AGR,150,titio,,el,,129.2278,129.2288,0.269444444,-0.173611111,0,0,0,,0,26,26,261,1,sitio,,,,
,,,,,,651aeac562599893a66f28cc,676192165fb32c2e1fb7aee6,67d1ab83b2c7d3f95cede32a,2025-03-12_16h43.08.611,Tarea de decisión léxica,2024.2.5,Win32,144.9275362,,,,,,,,,,,,,,,,,,,,,,,129.2294,130.3096,a,1,0.4244,,0.4244,1,130.3097,130.81,,,,,,99,MAS,WORD,DIS,150,lobo,,la,,130.81,130.8101,0.269444444,-0.173611111,0,0,0,,0,27,27,98,1,soro,,,,
,,,,,,651aeac562599893a66f28cc,676192165fb32c2e1fb7aee6,67d1ab83b2c7d3f95cede32a,2025-03-12_16h43.08.611,Tarea de decisión léxica,2024.2.5,Win32,144.9275362,,,,,,,,,,,,,,,,,,,,,,,130.8109,131.8031,a,1,0.3336,,0.3336,1,131.8032,132.303,,,,,,431,MAS,WORD,DIS,150,motor,,la,,132.3031,132.3031,0.269444444,-0.173611111,0,0,0,,0,28,28,430,1,tetor,,,,
,,,,,,651aeac562599893a66f28cc,676192165fb32c2e1fb7aee6,67d1ab83b2c7d3f95cede32a,2025-03-12_16h43.08.611,Tarea de decisión léxica,2024.2.5,Win32,144.9275362,,,,,,,,,,,,,,,,,,,,,,,132.3039,133.4351,a,1,0.4768,,0.4768,1,133.4353,133.9351,,,,,,377,MAS,WORD,AGR,150,hielo,,el,,133.9351,133.9353,0.269444444,-0.173611111,0,0,0,,0,29,29,376,1,gaulo,,,,
,,,,,,651aeac562599893a66f28cc,676192165fb32c2e1fb7aee6,67d1ab83b2c7d3f95cede32a,2025-03-12_16h43.08.611,Tarea de decisión léxica,2024.2.5,Win32,144.9275362,,,,,,,,,,,,,,,,,,,,,,,133.936,135.0669,a,1,0.4735,,0.4735,1,135.0669,135.567,,,,,,473,FEM,WORD,AGR,150,feria,,la,,135.567,135.567,0.269444444,-0.173611111,0,0,0,,0,30,30,472,1,felia,,,,
,,,,,,651aeac562599893a66f28cc,676192165fb32c2e1fb7aee6,67d1ab83b2c7d3f95cede32a,2025-03-12_16h43.08.611,Tarea de decisión léxica,2024.2.5,Win32,144.9275362,,,,,,,,,,,,,,,,,,,,,,,135.5678,136.9836,l,1,0.7575,,0.7575,1,136.9837,137.4836,,,,,,416,FEM,NOWORD,DIS,150,juira,,el,,137.4846,137.4855,0.269444444,-0.173611111,0,0,0,,0,31,31,415,1,jaula,,,,
,,,,,,651aeac562599893a66f28cc,676192165fb32c2e1fb7aee6,67d1ab83b2c7d3f95cede32a,2025-03-12_16h43.08.611,Tarea de decisión léxica,2024.2.5,Win32,144.9275362,,,,,,,,,,,,,,,,,,,,,,,137.4861,138.6155,l,1,0.476,,0.476,1,138.6156,139.1156,,,,,,68,FEM,NOWORD,DIS,150,gesa,,el,,139.1157,139.1157,0.269444444,-0.173611111,0,0,0,,0,32,32,67,1,nena,,,,
,,,,,,651aeac562599893a66f28cc,676192165fb32c2e1fb7aee6,67d1ab83b2c7d3f95cede32a,2025-03-12_16h43.08.611,Tarea de decisión léxica,2024.2.5,Win32,144.9275362,,,,,,,,,,,,,,,,,,,,,,,139.1164,140.2476,a,1,0.473,,0.473,1,140.2476,140.7476,,,,,,393,FEM,WORD,AGR,150,aldea,,la,,140.7476,140.7477,0.269444444,-0.173611111,0,0,0,,0,33,33,392,1,ashea,,,,
,,,,,,651aeac562599893a66f28cc,676192165fb32c2e1fb7aee6,67d1ab83b2c7d3f95cede32a,2025-03-12_16h43.08.611,Tarea de decisión léxica,2024.2.5,Win32,144.9275362,,,,,,,,,,,,,,,,,,,,,,,140.7484,141.8379,l,1,0.4323,,0.4323,1,141.8379,142.3378,,,,,,478,MAS,NOWORD,AGR,150,hocon,,el,,142.3378,142.3379,0.269444444,-0.173611111,0,0,0,,0,34,34,477,1,botón,,,,
,,,,,,651aeac562599893a66f28cc,676192165fb32c2e1fb7aee6,67d1ab83b2c7d3f95cede32a,2025-03-12_16h43.08.611,Tarea de decisión léxica,2024.2.5,Win32,144.9275362,,,,,,,,,,,,,,,,,,,,,,,142.3384,143.47,a,1,0.473,,0.473,1,143.47,143.97,,,,,,17,FEM,WORD,AGR,150,mamá,,la,,143.9706,143.971,0.269444444,-0.173611111,0,0,0,,0,35,35,16,1,paba,,,,
,,,,,,651aeac562599893a66f28cc,676192165fb32c2e1fb7aee6,67d1ab83b2c7d3f95cede32a,2025-03-12_16h43.08.611,Tarea de decisión léxica,2024.2.5,Win32,144.9275362,,,,,,,,,,,,,,,,,,,,,,,143.9715,145.067,a,1,0.4396,,0.4396,1,145.0671,145.567,,,,,,89,MAS,WORD,AGR,150,humo,,el,,145.567,145.567,0.269444444,-0.173611111,0,0,0,,0,36,36,88,1,guso,,,,
,,,,,,651aeac562599893a66f28cc,676192165fb32c2e1fb7aee6,67d1ab83b2c7d3f95cede32a,2025-03-12_16h43.08.611,Tarea de decisión léxica,2024.2.5,Win32,144.9275362,,,,,,,,,,,,,,,,,,,,,,,145.5675,146.7479,a,1,0.5252,,0.5252,1,146.748,147.2477,,,,,,365,FEM,WORD,AGR,150,ducha,,la,,147.2478,147.248,0.269444444,-0.173611111,0,0,0,,0,37,37,364,1,gulla,,,,
,,,,,,651aeac562599893a66f28cc,676192165fb32c2e1fb7aee6,67d1ab83b2c7d3f95cede32a,2025-03-12_16h43.08.611,Tarea de decisión léxica,2024.2.5,Win32,144.9275362,,,,,,,,,,,,,,,,,,,,,,,147.249,148.4005,a,1,0.4946,,0.4946,1,148.4005,148.9006,,,,,,257,FEM,WORD,AGR,150,amiga,,la,,148.9006,148.9007,0.269444444,-0.173611111,0,0,0,,0,38,38,256,1,asama,,,,
,,,,,,651aeac562599893a66f28cc,676192165fb32c2e1fb7aee6,67d1ab83b2c7d3f95cede32a,2025-03-12_16h43.08.611,Tarea de decisión léxica,2024.2.5,Win32,144.9275362,,,,,,,,,,,,,,,,,,,,,,,148.9013,149.9838,l,1,0.4236,,0.4236,1,149.9838,150.4839,,,,,,140,MAS,NOWORD,DIS,150,nila,,la,,150.484,150.4841,0.269444444,-0.173611111,0,0,0,,0,39,39,139,1,mago,,,,
,,,,,,651aeac562599893a66f28cc,676192165fb32c2e1fb7aee6,67d1ab83b2c7d3f95cede32a,2025-03-12_16h43.08.611,Tarea de decisión léxica,2024.2.5,Win32,144.9275362,,,,,,,,,,,,,,,,,,,,,,,150.4848,151.602,l,1,0.4607,,0.4607,1,151.602,152.102,,,,,,386,FEM,NOWORD,AGR,150,febra,,la,,152.103,152.104,0.269444444,-0.173611111,0,0,0,,0,40,40,385,1,letra,,,,
,,,,,,651aeac562599893a66f28cc,676192165fb32c2e1fb7aee6,67d1ab83b2c7d3f95cede32a,2025-03-12_16h43.08.611,Tarea de decisión léxica,2024.2.5,Win32,144.9275362,,,,,,,,,,,,,,,,,,,,,,,152.1045,153.1713,a,1,0.4117,,0.4117,1,153.1714,153.6713,,,,,,43,FEM,WORD,DIS,150,pena,,el,,153.6713,153.6714,0.269444444,-0.173611111,0,0,0,,0,41,41,42,1,meda,,,,
,,,,,,651aeac562599893a66f28cc,676192165fb32c2e1fb7aee6,67d1ab83b2c7d3f95cede32a,2025-03-12_16h43.08.611,Tarea de decisión léxica,2024.2.5,Win32,144.9275362,,,,,,,,,,,,,,,,,,,,,,,153.6717,154.7271,l,1,0.397,,0.397,1,154.7272,155.2272,,,,,,330,MAS,NOWORD,AGR,150,nueno,,el,,155.2272,155.2274,0.269444444,-0.173611111,0,0,0,,0,42,42,329,1,hueso,,,,
,,,,,,651aeac562599893a66f28cc,676192165fb32c2e1fb7aee6,67d1ab83b2c7d3f95cede32a,2025-03-12_16h43.08.611,Tarea de decisión léxica,2024.2.5,Win32,144.9275362,,,,,,,,,,,,,,,,,,,,,,,155.2282,156.1782,a,1,0.2966,,0.2966,1,156.1782,156.6782,,,,,,375,FEM,WORD,DIS,150,salsa,,el,,156.6782,156.6782,0.269444444,-0.173611111,0,0,0,,0,43,43,374,1,sasna,,,,
,,,,,,651aeac562599893a66f28cc,676192165fb32c2e1fb7aee6,67d1ab83b2c7d3f95cede32a,2025-03-12_16h43.08.611,Tarea de decisión léxica,2024.2.5,Win32,144.9275362,,,,,,,,,,,,,,,,,,,,,,,156.6786,157.6575,l,1,0.3229,,0.3229,1,157.6575,158.1574,,,,,,66,MAS,NOWORD,AGR,150,nios,,el,,158.1574,158.1574,0.269444444,-0.173611111,0,0,0,,0,44,44,65,1,dios,,,,
,,,,,,651aeac562599893a66f28cc,676192165fb32c2e1fb7aee6,67d1ab83b2c7d3f95cede32a,2025-03-12_16h43.08.611,Tarea de decisión léxica,2024.2.5,Win32,144.9275362,,,,,,,,,,,,,,,,,,,,,,,158.1578,159.248,a,1,0.435,,0.435,1,159.248,159.7478,,,,,,279,FEM,WORD,DIS,150,prisa,,el,,159.7483,159.7486,0.269444444,-0.173611111,0,0,0,,0,45,45,278,1,grina,,,,
,,,,,,651aeac562599893a66f28cc,676192165fb32c2e1fb7aee6,67d1ab83b2c7d3f95cede32a,2025-03-12_16h43.08.611,Tarea de decisión léxica,2024.2.5,Win32,144.9275362,,,,,,,,,,,,,,,,,,,,,,,159.7489,160.6713,a,1,0.2647,,0.2647,1,160.6713,161.1712,,,,,,295,MAS,WORD,DIS,150,dolor,,la,,161.1713,161.1713,0.269444444,-0.173611111,0,0,0,,0,46,46,294,1,goler,,,,
,,,,,,651aeac562599893a66f28cc,676192165fb32c2e1fb7aee6,67d1ab83b2c7d3f95cede32a,2025-03-12_16h43.08.611,Tarea de decisión léxica,2024.2.5,Win32,144.9275362,,,,,,,,,,,,,,,,,,,,,,,161.1718,162.2131,l,1,0.3822,,0.3822,1,162.2132,162.713,,,,,,2,FEM,NOWORD,AGR,150,mada,,la,,162.713,162.7131,0.269444444,-0.173611111,0,0,0,,0,47,47,1,1,casa,,,,
,,,,,,651aeac562599893a66f28cc,676192165fb32c2e1fb7aee6,67d1ab83b2c7d3f95cede32a,2025-03-12_16h43.08.611,Tarea de decisión léxica,2024.2.5,Win32,144.9275362,,,,,,,,,,,,,,,,,,,,,,,162.7137,163.9352,a,0,0.5647,,0.5647,0,163.9356,164.4354,,,,,,22,MAS,NOWORD,AGR,150,blan,,el,,164.4354,164.4356,0.269444444,-0.173611111,0,0,0,,0,48,48,21,1,plan,,,,
,,,,,,651aeac562599893a66f28cc,676192165fb32c2e1fb7aee6,67d1ab83b2c7d3f95cede32a,2025-03-12_16h43.08.611,Tarea de decisión léxica,2024.2.5,Win32,144.9275362,,,,,,,,,,,,,,,,,,,,,,,164.4361,165.6089,a,1,0.5153,,0.5153,1,165.6094,166.1089,,,,,,135,MAS,WORD,DIS,150,tubo,,la,,166.109,166.1091,0.269444444,-0.173611111,0,0,0,,0,49,49,134,1,geso,,,,
,,,,,,651aeac562599893a66f28cc,676192165fb32c2e1fb7aee6,67d1ab83b2c7d3f95cede32a,2025-03-12_16h43.08.611,Tarea de decisión léxica,2024.2.5,Win32,144.9275362,,,,,,,,,,,,,,,,,,,,,,,166.1097,167.1785,l,1,0.4134,,0.4134,1,167.1785,167.6785,,,,,,234,FEM,NOWORD,AGR,150,fasa,,la,,167.6791,167.6796,0.269444444,-0.173611111,0,0,0,,0,50,50,233,1,lana,,,,
,,,,,,651aeac562599893a66f28cc,676192165fb32c2e1fb7aee6,67d1ab83b2c7d3f95cede32a,2025-03-12_16h43.08.611,Tarea de decisión léxica,2024.2.5,Win32,144.9275362,,,,,,,,,,,,,,,,,,,,,,,167.68,168.776,l,1,0.4404,,0.4404,1,168.776,169.2758,,,,,,158,MAS,NOWORD,AGR,150,hico,,el,,169.2758,169.276,0.269444444,-0.173611111,0,0,0,,0,51,51,157,1,nido,,,,
,,,,,,651aeac562599893a66f28cc,676192165fb32c2e1fb7aee6,67d1ab83b2c7d3f95cede32a,2025-03-12_16h43.08.611,Tarea de decisión léxica,2024.2.5,Win32,144.9275362,,,,,,,,,,,,,,,,,,,,,,,169.2765,170.3453,l,1,0.4094,,0.4094,1,170.3453,170.8454,,,,,,404,FEM,NOWORD,DIS,150,grisa,,el,,170.8455,170.8455,0.269444444,-0.173611111,0,0,0,,0,52,52,403,1,prima,,,,
,,,,,,651aeac562599893a66f28cc,676192165fb32c2e1fb7aee6,67d1ab83b2c7d3f95cede32a,2025-03-12_16h43.08.611,Tarea de decisión léxica,2024.2.5,Win32,144.9275362,,,,,,,,,,,,,,,,,,,,,,,170.8464,171.9076,l,1,0.4064,,0.4064,1,171.9078,172.4077,,,,,,132,FEM,NOWORD,DIS,150,fada,,el,,172.4077,172.4077,0.269444444,-0.173611111,0,0,0,,0,53,53,131,1,mina,,,,
,,,,,,651aeac562599893a66f28cc,676192165fb32c2e1fb7aee6,67d1ab83b2c7d3f95cede32a,2025-03-12_16h43.08.611,Tarea de decisión léxica,2024.2.5,Win32,144.9275362,,,,,,,,,,,,,,,,,,,,,,,172.4082,173.4284,l,1,0.3615,,0.3615,1,173.4285,173.9284,,,,,,94,FEM,NOWORD,AGR,150,rona,,la,,173.9285,173.9285,0.269444444,-0.173611111,0,0,0,,0,54,54,93,1,bola,,,,
,,,,,,651aeac562599893a66f28cc,676192165fb32c2e1fb7aee6,67d1ab83b2c7d3f95cede32a,2025-03-12_16h43.08.611,Tarea de decisión léxica,2024.2.5,Win32,144.9275362,,,,,,,,,,,,,,,,,,,,,,,173.9289,175.005,a,1,0.4196,,0.4196,1,175.005,175.505,,,,,,467,MAS,WORD,DIS,150,piano,,la,,175.5057,175.5064,0.269444444,-0.173611111,0,0,0,,0,55,55,466,1,peiso,,,,
,,,,,,651aeac562599893a66f28cc,676192165fb32c2e1fb7aee6,67d1ab83b2c7d3f95cede32a,2025-03-12_16h43.08.611,Tarea de decisión léxica,2024.2.5,Win32,144.9275362,,,,,,,,,,,,,,,,,,,,,,,175.5068,176.5399,l,1,0.3803,,0.3803,1,176.54,177.0399,,,,,,296,MAS,NOWORD,DIS,150,goler,,la,,177.04,177.0401,0.269444444,-0.173611111,0,0,0,,0,56,56,295,1,dolor,,,,
,,,,,,651aeac562599893a66f28cc,676192165fb32c2e1fb7aee6,67d1ab83b2c7d3f95cede32a,2025-03-12_16h43.08.611,Tarea de decisión léxica,2024.2.5,Win32,144.9275362,,,,,,,,,,,,,,,,,,,,,,,177.0406,178.3597,a,1,0.6645,,0.6645,1,178.3598,178.8595,,,,,,363,FEM,WORD,DIS,150,deuda,,el,,178.8595,178.8597,0.269444444,-0.173611111,0,0,0,,0,57,57,362,1,veida,,,,
,,,,,,651aeac562599893a66f28cc,676192165fb32c2e1fb7aee6,67d1ab83b2c7d3f95cede32a,2025-03-12_16h43.08.611,Tarea de decisión léxica,2024.2.5,Win32,144.9275362,,,,,,,,,,,,,,,,,,,,,,,178.8604,179.8733,l,1,0.3572,,0.3572,1,179.8733,180.3731,,,,,,218,MAS,NOWORD,AGR,150,budo,,el,,180.3732,180.3733,0.269444444,-0.173611111,0,0,0,,0,58,58,217,1,luto,,,,
,,,,,,651aeac562599893a66f28cc,676192165fb32c2e1fb7aee6,67d1ab83b2c7d3f95cede32a,2025-03-12_16h43.08.611,Tarea de decisión léxica,2024.2.5,Win32,144.9275362,,,,,,,,,,,,,,,,,,,,,,,180.3738,181.3802,l,0,0.3488,,0.3488,0,181.3805,181.8802,,,,,,45,FEM,WORD,AGR,150,mesa,,la,,181.8805,181.8809,0.269444444,-0.173611111,0,0,0,,0,59,59,44,1,pema,,,,
,,,,,,651aeac562599893a66f28cc,676192165fb32c2e1fb7aee6,67d1ab83b2c7d3f95cede32a,2025-03-12_16h43.08.611,Tarea de decisión léxica,2024.2.5,Win32,144.9275362,,,,,,,,,,,,,,,,,,,,,,,181.8812,182.9425,a,1,0.4043,,0.4043,1,182.9429,183.4427,,,,,,449,FEM,WORD,AGR,150,pluma,,la,,183.4428,183.4428,0.269444444,-0.173611111,0,0,0,,0,60,60,448,1,crusa,,,,
,,,,,,651aeac562599893a66f28cc,676192165fb32c2e1fb7aee6,67d1ab83b2c7d3f95cede32a,2025-03-12_16h43.08.611,Tarea de decisión léxica,2024.2.5,Win32,144.9275362,,,,,,,,,,,,,,,,,,,,,,,183.4437,184.4078,l,1,0.3087,,0.3087,1,184.4079,184.9078,,,,,,374,FEM,NOWORD,AGR,150,pogza,,la,,184.9078,184.9079,0.269444444,-0.173611111,0,0,0,,0,61,61,373,1,pizza,,,,
,,,,,,651aeac562599893a66f28cc,676192165fb32c2e1fb7aee6,67d1ab83b2c7d3f95cede32a,2025-03-12_16h43.08.611,Tarea de decisión léxica,2024.2.5,Win32,144.9275362,,,,,,,,,,,,,,,,,,,,,,,184.9082,186.047,a,1,0.4793,,0.4793,1,186.0471,186.5468,,,,,,259,MAS,WORD,DIS,150,juego,,la,,186.5469,186.547,0.269444444,-0.173611111,0,0,0,,0,62,62,258,1,jaumo,,,,
,,,,,,651aeac562599893a66f28cc,676192165fb32c2e1fb7aee6,67d1ab83b2c7d3f95cede32a,2025-03-12_16h43.08.611,Tarea de decisión léxica,2024.2.5,Win32,144.9275362,,,,,,,,,,,,,,,,,,,,,,,186.5476,187.5536,l,1,0.3484,,0.3484,1,187.5536,188.0538,,,,,,112,MAS,NOWORD,DIS,150,siro,,la,,188.0539,188.054,0.269444444,-0.173611111,0,0,0,,0,63,63,111,1,muro,,,,
,,,,,,651aeac562599893a66f28cc,676192165fb32c2e1fb7aee6,67d1ab83b2c7d3f95cede32a,2025-03-12_16h43.08.611,Tarea de decisión léxica,2024.2.5,Win32,144.9275362,,,,,,,,,,,,,,,,,,,,,,,188.0547,189.144,l,1,0.4303,,0.4303,1,189.1441,189.644,,,,,,354,FEM,NOWORD,AGR,150,cezca,,la,,189.6446,189.6452,0.269444444,-0.173611111,0,0,0,,0,64,64,353,1,celda,,,,
,,,,,,651aeac562599893a66f28cc,676192165fb32c2e1fb7aee6,67d1ab83b2c7d3f95cede32a,2025-03-12_16h43.08.611,Tarea de decisión léxica,2024.2.5,Win32,144.9275362,,,,,,,,,,,,,,,,,,,,,,,189.6456,190.6856,l,1,0.3815,,0.3815,1,190.6857,191.1859,,,,,,396,FEM,NOWORD,DIS,150,paeda,,el,,191.186,191.1862,0.269444444,-0.173611111,0,0,0,,0,65,65,395,1,caída,,,,
,,,,,,651aeac562599893a66f28cc,676192165fb32c2e1fb7aee6,67d1ab83b2c7d3f95cede32a,2025-03-12_16h43.08.611,Tarea de decisión léxica,2024.2.5,Win32,144.9275362,,,,,,,,,,,,,,,,,,,,,,,191.187,192.311,l,1,0.4697,,0.4697,1,192.311,192.8114,,,,,,240,MAS,NOWORD,DIS,150,poño,,la,,192.8115,192.8117,0.269444444,-0.173611111,0,0,0,,0,66,66,239,1,mozo,,,,
,,,,,,651aeac562599893a66f28cc,676192165fb32c2e1fb7aee6,67d1ab83b2c7d3f95cede32a,2025-03-12_16h43.08.611,Tarea de decisión léxica,2024.2.5,Win32,144.9275362,,,,,,,,,,,,,,,,,,,,,,,192.8126,193.811,a,1,0.3411,,0.3411,1,193.811,194.311,,,,,,457,MAS,WORD,AGR,150,plato,,el,,194.3111,194.3113,0.269444444,-0.173611111,0,0,0,,0,67,67,456,1,glaco,,,,
,,,,,,651aeac562599893a66f28cc,676192165fb32c2e1fb7aee6,67d1ab83b2c7d3f95cede32a,2025-03-12_16h43.08.611,Tarea de decisión léxica,2024.2.5,Win32,144.9275362,,,,,,,,,,,,,,,,,,,,,,,194.3119,195.2972,l,1,0.3269,,0.3269,1,195.2973,195.797,,,,,,84,FEM,NOWORD,DIS,150,taga,,el,,195.797,195.7971,0.269444444,-0.173611111,0,0,0,,0,68,68,83,1,bala,,,,
,,,,,,651aeac562599893a66f28cc,676192165fb32c2e1fb7aee6,67d1ab83b2c7d3f95cede32a,2025-03-12_16h43.08.611,Tarea de decisión léxica,2024.2.5,Win32,144.9275362,,,,,,,,,,,,,,,,,,,,,,,195.7977,196.7623,a,1,0.307,,0.307,1,196.7623,197.2625,,,,,,391,MAS,WORD,DIS,150,dueño,,la,,197.2636,197.2647,0.269444444,-0.173611111,0,0,0,,0,69,69,390,1,dievo,,,,
,,,,,,651aeac562599893a66f28cc,676192165fb32c2e1fb7aee6,67d1ab83b2c7d3f95cede32a,2025-03-12_16h43.08.611,Tarea de decisión léxica,2024.2.5,Win32,144.9275362,,,,,,,,,,,,,,,,,,,,,,,197.2654,198.2832,l,1,0.3653,,0.3653,1,198.2832,198.783,,,,,,254,MAS,NOWORD,AGR,150,trido,,el,,198.783,198.7831,0.269444444,-0.173611111,0,0,0,,0,70,70,253,1,chico,,,,
,,,,,,651aeac562599893a66f28cc,676192165fb32c2e1fb7aee6,67d1ab83b2c7d3f95cede32a,2025-03-12_16h43.08.611,Tarea de decisión léxica,2024.2.5,Win32,144.9275362,,,,,,,,,,,,,,,,,,,,,,,198.7835,199.7555,l,1,0.3133,,0.3133,1,199.7556,200.2556,,,,,,364,FEM,NOWORD,DIS,150,veida,,el,,200.2556,200.2557,0.269444444,-0.173611111,0,0,0,,0,71,71,363,1,deuda,,,,
,,,,,,651aeac562599893a66f28cc,676192165fb32c2e1fb7aee6,67d1ab83b2c7d3f95cede32a,2025-03-12_16h43.08.611,Tarea de decisión léxica,2024.2.5,Win32,144.9275362,,,,,,,,,,,,,,,,,,,,,,,200.2565,201.2139,a,1,0.3001,,0.3001,1,201.214,201.7138,,,,,,329,MAS,WORD,AGR,150,hueso,,el,,201.7138,201.7138,0.269444444,-0.173611111,0,0,0,,0,72,72,328,1,nueno,,,,
,,,,,,651aeac562599893a66f28cc,676192165fb32c2e1fb7aee6,67d1ab83b2c7d3f95cede32a,2025-03-12_16h43.08.611,Tarea de decisión léxica,2024.2.5,Win32,144.9275362,,,,,,,,,,,,,,,,,,,,,,,201.7143,202.7142,a,1,0.3406,,0.3406,1,202.7143,203.2136,,,,,,353,FEM,WORD,AGR,150,celda,,la,,203.2136,203.2137,0.269444444,-0.173611111,0,0,0,,0,73,73,352,1,cezca,,,,
,,,,,,651aeac562599893a66f28cc,676192165fb32c2e1fb7aee6,67d1ab83b2c7d3f95cede32a,2025-03-12_16h43.08.611,Tarea de decisión léxica,2024.2.5,Win32,144.9275362,,,,,,,,,,,,,,,,,,,,,,,203.2141,204.2486,l,0,0.3753,,0.3753,0,204.2492,204.7484,,,,,,209,MAS,WORD,AGR,150,velo,,el,,204.7489,204.7493,0.269444444,-0.173611111,0,0,0,,0,74,74,208,1,dero,,,,
,,,,,,651aeac562599893a66f28cc,676192165fb32c2e1fb7aee6,67d1ab83b2c7d3f95cede32a,2025-03-12_16h43.08.611,Tarea de decisión léxica,2024.2.5,Win32,144.9275362,,,,,,,,,,,,,,,,,,,,,,,204.7496,205.8113,a,1,0.4064,,0.4064,1,205.8118,206.3112,,,,,,231,FEM,WORD,DIS,150,bota,,el,,206.3112,206.3113,0.269444444,-0.173611111,0,0,0,,0,75,75,230,1,heta,,,,
,,,,,,651aeac562599893a66f28cc,676192165fb32c2e1fb7aee6,67d1ab83b2c7d3f95cede32a,2025-03-12_16h43.08.611,Tarea de decisión léxica,2024.2.5,Win32,144.9275362,,,,,,,,,,,,,,,,,,,,,,,206.3119,207.4014,a,1,0.4304,,0.4304,1,207.4016,207.9015,,,,,,291,FEM,WORD,DIS,150,pista,,el,,207.9016,207.9018,0.269444444,-0.173611111,0,0,0,,0,76,76,290,1,mesta,,,,
,,,,,,651aeac562599893a66f28cc,676192165fb32c2e1fb7aee6,67d1ab83b2c7d3f95cede32a,2025-03-12_16h43.08.611,Tarea de decisión léxica,2024.2.5,Win32,144.9275362,,,,,,,,,,,,,,,,,,,,,,,207.9025,208.8251,a,1,0.266,,0.266,1,208.8253,209.3252,,,,,,47,MAS,WORD,DIS,150,club,,la,,209.3252,209.3253,0.269444444,-0.173611111,0,0,0,,0,77,77,46,1,chub,,,,
,,,,,,651aeac562599893a66f28cc,676192165fb32c2e1fb7aee6,67d1ab83b2c7d3f95cede32a,2025-03-12_16h43.08.611,Tarea de decisión léxica,2024.2.5,Win32,144.9275362,,,,,,,,,,,,,,,,,,,,,,,209.3258,210.2904,a,1,0.3075,,0.3075,1,210.2905,210.7904,,,,,,7,MAS,WORD,DIS,150,hijo,,la,,210.7905,210.7906,0.269444444,-0.173611111,0,0,0,,0,78,78,6,1,nivo,,,,
,,,,,,651aeac562599893a66f28cc,676192165fb32c2e1fb7aee6,67d1ab83b2c7d3f95cede32a,2025-03-12_16h43.08.611,Tarea de decisión léxica,2024.2.5,Win32,144.9275362,,,,,,,,,,,,,,,,,,,,,,,210.7913,212.193,l,0,0.7429,,0.7429,0,212.1936,212.6932,,,,,,403,FEM,WORD,DIS,150,prima,,el,,212.6939,212.6945,0.269444444,-0.173611111,0,0,0,,0,79,79,402,1,grisa,,,,
,,,,,,651aeac562599893a66f28cc,676192165fb32c2e1fb7aee6,67d1ab83b2c7d3f95cede32a,2025-03-12_16h43.08.611,Tarea de decisión léxica,2024.2.5,Win32,144.9275362,,,,,,,,,,,,,,,,,,,,,,,212.6951,213.8461,l,1,0.4927,,0.4927,1,213.8466,214.346,,,,,,50,FEM,NOWORD,AGR,150,ecat,,la,,214.3461,214.3462,0.269444444,-0.173611111,0,0,0,,0,80,80,49,1,edad,,,,
,,,,,,651aeac562599893a66f28cc,676192165fb32c2e1fb7aee6,67d1ab83b2c7d3f95cede32a,2025-03-12_16h43.08.611,Tarea de decisión léxica,2024.2.5,Win32,144.9275362,,,,,,,,,,,,,,,,,,,,,,,214.3466,215.7628,l,1,0.7584,,0.7584,1,215.7629,216.2627,,,,,,102,MAS,NOWORD,AGR,150,gito,,el,,216.2627,216.2628,0.269444444,-0.173611111,0,0,0,,0,81,81,101,1,tono,,,,
,,,,,,651aeac562599893a66f28cc,676192165fb32c2e1fb7aee6,67d1ab83b2c7d3f95cede32a,2025-03-12_16h43.08.611,Tarea de decisión léxica,2024.2.5,Win32,144.9275362,,,,,,,,,,,,,,,,,,,,,,,216.2632,217.2974,a,1,0.3776,,0.3776,1,217.2975,217.7974,,,,,,283,MAS,WORD,DIS,150,sueño,,la,,217.7974,217.7977,0.269444444,-0.173611111,0,0,0,,0,82,82,282,1,tuevo,,,,
,,,,,,651aeac562599893a66f28cc,676192165fb32c2e1fb7aee6,67d1ab83b2c7d3f95cede32a,2025-03-12_16h43.08.611,Tarea de decisión léxica,2024.2.5,Win32,144.9275362,,,,,,,,,,,,,,,,,,,,,,,217.7985,218.874,a,1,0.4214,,0.4214,1,218.8741,219.3738,,,,,,373,FEM,WORD,AGR,150,pizza,,la,,219.3748,219.3756,0.269444444,-0.173611111,0,0,0,,0,83,83,372,1,pogza,,,,
,,,,,,651aeac562599893a66f28cc,676192165fb32c2e1fb7aee6,67d1ab83b2c7d3f95cede32a,2025-03-12_16h43.08.611,Tarea de decisión léxica,2024.2.5,Win32,144.9275362,,,,,,,,,,,,,,,,,,,,,,,219.3762,220.2904,a,1,0.2569,,0.2569,1,220.2905,220.7907,,,,,,311,MAS,WORD,DIS,150,honor,,la,,220.7907,220.7909,0.269444444,-0.173611111,0,0,0,,0,84,84,310,1,nosor,,,,
,,,,,,651aeac562599893a66f28cc,676192165fb32c2e1fb7aee6,67d1ab83b2c7d3f95cede32a,2025-03-12_16h43.08.611,Tarea de decisión léxica,2024.2.5,Win32,144.9275362,,,,,,,,,,,,,,,,,,,,,,,220.792,221.8113,l,1,0.363,,0.363,1,221.8113,222.3113,,,,,,184,FEM,NOWORD,DIS,150,raad,,el,,222.3114,222.3115,0.269444444,-0.173611111,0,0,0,,0,85,85,183,1,raya,,,,
,,,,,,651aeac562599893a66f28cc,676192165fb32c2e1fb7aee6,67d1ab83b2c7d3f95cede32a,2025-03-12_16h43.08.611,Tarea de decisión léxica,2024.2.5,Win32,144.9275362,,,,,,,,,,,,,,,,,,,,,,,222.3121,223.2976,a,1,0.3288,,0.3288,1,223.2976,223.7974,,,,,,35,MAS,WORD,DIS,150,pelo,,la,,223.7975,223.7976,0.269444444,-0.173611111,0,0,0,,0,86,86,34,1,meno,,,,
,,,,,,651aeac562599893a66f28cc,676192165fb32c2e1fb7aee6,67d1ab83b2c7d3f95cede32a,2025-03-12_16h43.08.611,Tarea de decisión léxica,2024.2.5,Win32,144.9275362,,,,,,,,,,,,,,,,,,,,,,,223.7981,224.7977,l,0,0.3415,,0.3415,0,224.7984,225.2976,,,,,,205,FEM,WORD,AGR,150,rana,,la,,225.2977,225.2978,0.269444444,-0.173611111,0,0,0,,0,87,87,204,1,bara,,,,
,,,,,,651aeac562599893a66f28cc,676192165fb32c2e1fb7aee6,67d1ab83b2c7d3f95cede32a,2025-03-12_16h43.08.611,Tarea de decisión léxica,2024.2.5,Win32,144.9275362,,,,,,,,,,,,,,,,,,,,,,,225.2985,226.6723,l,0,0.7166,,0.7166,0,226.6723,227.1724,,,,,,459,MAS,WORD,DIS,150,grado,,la,,227.1729,227.1733,0.269444444,-0.173611111,0,0,0,,0,88,88,458,1,fraco,,,,
,,,,,,651aeac562599893a66f28cc,676192165fb32c2e1fb7aee6,67d1ab83b2c7d3f95cede32a,2025-03-12_16h43.08.611,Tarea de decisión léxica,2024.2.5,Win32,144.9275362,,,,,,,,,,,,,,,,,,,,,,,227.1736,228.499,l,1,0.6696,,0.6696,1,228.4994,228.9993,,,,,,90,MAS,NOWORD,AGR,150,guso,,el,,228.9993,228.9994,0.269444444,-0.173611111,0,0,0,,0,89,89,89,1,humo,,,,
,,,,,,651aeac562599893a66f28cc,676192165fb32c2e1fb7aee6,67d1ab83b2c7d3f95cede32a,2025-03-12_16h43.08.611,Tarea de decisión léxica,2024.2.5,Win32,144.9275362,,,,,,,,,,,,,,,,,,,,,,,229.0003,230.0756,a,1,0.4194,,0.4194,1,230.0757,230.5754,,,,,,383,FEM,WORD,DIS,150,frase,,el,,230.5754,230.5755,0.269444444,-0.173611111,0,0,0,,0,90,90,382,1,brame,,,,
,,,,,,651aeac562599893a66f28cc,676192165fb32c2e1fb7aee6,67d1ab83b2c7d3f95cede32a,2025-03-12_16h43.08.611,Tarea de decisión léxica,2024.2.5,Win32,144.9275362,,,,,,,,,,,,,,,,,,,,,,,230.5761,231.617,a,1,0.3826,,0.3826,1,231.617,232.1172,,,,,,359,MAS,WORD,DIS,150,calor,,la,,232.1173,232.1175,0.269444444,-0.173611111,0,0,0,,0,91,91,358,1,cacer,,,,
,,,,,,651aeac562599893a66f28cc,676192165fb32c2e1fb7aee6,67d1ab83b2c7d3f95cede32a,2025-03-12_16h43.08.611,Tarea de decisión léxica,2024.2.5,Win32,144.9275362,,,,,,,,,,,,,,,,,,,,,,,232.1189,233.0338,a,1,0.2585,,0.2585,1,233.0339,233.5338,,,,,,69,FEM,WORD,AGR,150,zona,,la,,233.5338,233.5339,0.269444444,-0.173611111,0,0,0,,0,92,92,68,1,ñola,,,,
,,,,,,651aeac562599893a66f28cc,676192165fb32c2e1fb7aee6,67d1ab83b2c7d3f95cede32a,2025-03-12_16h43.08.611,Tarea de decisión léxica,2024.2.5,Win32,144.9275362,,,,,,,,,,,,,,,,,,,,,,,233.5342,234.4712,a,1,0.2792,,0.2792,1,234.4712,234.9713,,,,,,115,FEM,WORD,DIS,150,pata,,el,,234.9718,234.9723,0.269444444,-0.173611111,0,0,0,,0,93,93,114,1,haca,,,,
,,,,,,651aeac562599893a66f28cc,676192165fb32c2e1fb7aee6,67d1ab83b2c7d3f95cede32a,2025-03-12_16h43.08.611,Tarea de decisión léxica,2024.2.5,Win32,144.9275362,,,,,,,,,,,,,,,,,,,,,,,234.9726,236.1171,l,1,0.4877,,0.4877,1,236.1172,236.6173,,,,,,118,MAS,NOWORD,AGR,150,movo,,el,,236.6174,236.6175,0.269444444,-0.173611111,0,0,0,,0,94,94,117,1,palo,,,,
,,,,,,651aeac562599893a66f28cc,676192165fb32c2e1fb7aee6,67d1ab83b2c7d3f95cede32a,2025-03-12_16h43.08.611,Tarea de decisión léxica,2024.2.5,Win32,144.9275362,,,,,,,,,,,,,,,,,,,,,,,236.6181,237.6727,a,1,0.3958,,0.3958,1,237.6727,238.1729,,,,,,15,FEM,WORD,DIS,150,idea,,el,,238.1729,238.173,0.269444444,-0.173611111,0,0,0,,0,95,95,14,1,odea,,,,
,,,,,,651aeac562599893a66f28cc,676192165fb32c2e1fb7aee6,67d1ab83b2c7d3f95cede32a,2025-03-12_16h43.08.611,Tarea de decisión léxica,2024.2.5,Win32,144.9275362,,,,,,,,,,,,,,,,,,,,,,,238.1738,239.1171,a,1,0.284,,0.284,1,239.1173,239.6173,,,,,,33,FEM,WORD,AGR,150,boca,,la,,239.6174,239.6174,0.269444444,-0.173611111,0,0,0,,0,96,96,32,1,loda,,,,
,,,,,,651aeac562599893a66f28cc,676192165fb32c2e1fb7aee6,67d1ab83b2c7d3f95cede32a,2025-03-12_16h43.08.611,Tarea de decisión léxica,2024.2.5,Win32,144.9275362,,,,,,,,,,,,,,,,,,,,,,,239.6184,240.8535,l,1,0.5759,,0.5759,1,240.8536,241.3533,,,,,,406,FEM,NOWORD,AGR,150,rarra,,la,,241.3534,241.3535,0.269444444,-0.173611111,0,0,0,,0,97,97,405,1,barra,,,,
,,,,,,651aeac562599893a66f28cc,676192165fb32c2e1fb7aee6,67d1ab83b2c7d3f95cede32a,2025-03-12_16h43.08.611,Tarea de decisión léxica,2024.2.5,Win32,144.9275362,,,,,,,,,,,,,,,,,,,,,,,241.3541,242.3394,l,1,0.3274,,0.3274,1,242.3394,242.8397,,,,,,476,FEM,NOWORD,DIS,150,mucta,,el,,242.8409,242.8421,0.269444444,-0.173611111,0,0,0,,0,98,98,475,1,manta,,,,
,,,,,,651aeac562599893a66f28cc,676192165fb32c2e1fb7aee6,67d1ab83b2c7d3f95cede32a,2025-03-12_16h43.08.611,Tarea de decisión léxica,2024.2.5,Win32,144.9275362,,,,,,,,,,,,,,,,,,,,,,,242.8427,243.9715,l,1,0.4663,,0.4663,1,243.9716,244.4715,,,,,,138,MAS,NOWORD,AGR,150,pamo,,el,,244.4715,244.4717,0.269444444,-0.173611111,0,0,0,,0,99,99,137,1,nene,,,,
,,,,,,651aeac562599893a66f28cc,676192165fb32c2e1fb7aee6,67d1ab83b2c7d3f95cede32a,2025-03-12_16h43.08.611,Tarea de decisión léxica,2024.2.5,Win32,144.9275362,,,,,,,,,,,,,,,,,,,,,,,244.4723,245.5574,l,1,0.43,,0.43,1,245.5574,246.0573,,,,,,448,MAS,NOWORD,DIS,150,buaso,,la,,246.0573,246.0573,0.269444444,-0.173611111,0,0,0,,0,100,100,447,1,bolso,,,,
,,,,,,651aeac562599893a66f28cc,676192165fb32c2e1fb7aee6,67d1ab83b2c7d3f95cede32a,2025-03-12_16h43.08.611,Tarea de decisión léxica,2024.2.5,Win32,144.9275362,,,,,,,,,,,,,,,,,,,,,,,246.0577,247.1901,l,1,0.4731,,0.4731,1,247.1901,247.6898,,,,,,210,MAS,NOWORD,AGR,150,dero,,el,,247.6898,247.6898,0.269444444,-0.173611111,0,0,0,,0,101,101,209,1,velo,,,,
,,,,,,651aeac562599893a66f28cc,676192165fb32c2e1fb7aee6,67d1ab83b2c7d3f95cede32a,2025-03-12_16h43.08.611,Tarea de decisión léxica,2024.2.5,Win32,144.9275362,,,,,,,,,,,,,,,,,,,,,,,247.6902,248.7461,a,1,0.3972,,0.3972,1,248.7461,249.2453,,,,,,177,MAS,WORD,AGR,150,reto,,el,,249.2453,249.2454,0.269444444,-0.173611111,0,0,0,,0,102,102,176,1,bito,,,,
,,,,,,651aeac562599893a66f28cc,676192165fb32c2e1fb7aee6,67d1ab83b2c7d3f95cede32a,2025-03-12_16h43.08.611,Tarea de decisión léxica,2024.2.5,Win32,144.9275362,,,,,,,,,,,,,,,,,,,,,,,249.2458,250.2172,a,1,0.3119,,0.3119,1,250.2173,250.7171,,,,,,181,FEM,WORD,AGR,150,seda,,la,,250.7176,250.7179,0.269444444,-0.173611111,0,0,0,,0,103,103,180,1,teda,,,,
,,,,,,651aeac562599893a66f28cc,676192165fb32c2e1fb7aee6,67d1ab83b2c7d3f95cede32a,2025-03-12_16h43.08.611,Tarea de decisión léxica,2024.2.5,Win32,144.9275362,,,,,,,,,,,,,,,,,,,,,,,250.7182,251.7799,a,1,0.4029,,0.4029,1,251.7799,252.2795,,,,,,105,FEM,WORD,AGR,150,sopa,,la,,252.2796,252.2797,0.269444444,-0.173611111,0,0,0,,0,104,104,104,1,vina,,,,
,,,,,,651aeac562599893a66f28cc,676192165fb32c2e1fb7aee6,67d1ab83b2c7d3f95cede32a,2025-03-12_16h43.08.611,Tarea de decisión léxica,2024.2.5,Win32,144.9275362,,,,,,,,,,,,,,,,,,,,,,,252.2799,253.5507,l,1,0.6112,,0.6112,1,253.5507,254.0507,,,,,,366,FEM,NOWORD,AGR,150,gulla,,la,,254.0507,254.0508,0.269444444,-0.173611111,0,0,0,,0,105,105,365,1,ducha,,,,
,,,,,,651aeac562599893a66f28cc,676192165fb32c2e1fb7aee6,67d1ab83b2c7d3f95cede32a,2025-03-12_16h43.08.611,Tarea de decisión léxica,2024.2.5,Win32,144.9275362,,,,,,,,,,,,,,,,,,,,,,,254.0512,255.12,l,1,0.4099,,0.4099,1,255.12,255.6198,,,,,,198,MAS,NOWORD,AGR,150,dade,,el,,255.6198,255.6198,0.269444444,-0.173611111,0,0,0,,0,106,106,197,1,bate,,,,
,,,,,,651aeac562599893a66f28cc,676192165fb32c2e1fb7aee6,67d1ab83b2c7d3f95cede32a,2025-03-12_16h43.08.611,Tarea de decisión léxica,2024.2.5,Win32,144.9275362,,,,,,,,,,,,,,,,,,,,,,,255.6202,256.704,l,1,0.4293,,0.4293,1,256.704,257.2033,,,,,,250,FEM,NOWORD,AGR,150,plane,,la,,257.2037,257.2041,0.269444444,-0.173611111,0,0,0,,0,107,107,249,1,clase,,,,
,,,,,,651aeac562599893a66f28cc,676192165fb32c2e1fb7aee6,67d1ab83b2c7d3f95cede32a,2025-03-12_16h43.08.611,Tarea de decisión léxica,2024.2.5,Win32,144.9275362,,,,,,,,,,,,,,,,,,,,,,,257.2046,258.3018,a,1,0.4442,,0.4442,1,258.3019,258.8017,,,,,,477,MAS,WORD,AGR,150,botón,,el,,258.8018,258.8018,0.269444444,-0.173611111,0,0,0,,0,108,108,476,1,hocon,,,,
,,,,,,651aeac562599893a66f28cc,676192165fb32c2e1fb7aee6,67d1ab83b2c7d3f95cede32a,2025-03-12_16h43.08.611,Tarea de decisión léxica,2024.2.5,Win32,144.9275362,,,,,,,,,,,,,,,,,,,,,,,258.8022,259.7938,a,1,0.3325,,0.3325,1,259.7938,260.2936,,,,,,427,FEM,WORD,DIS,150,oreja,,el,,260.2936,260.2937,0.269444444,-0.173611111,0,0,0,,0,109,109,426,1,oseva,,,,
,,,,,,651aeac562599893a66f28cc,676192165fb32c2e1fb7aee6,67d1ab83b2c7d3f95cede32a,2025-03-12_16h43.08.611,Tarea de decisión léxica,2024.2.5,Win32,144.9275362,,,,,,,,,,,,,,,,,,,,,,,260.294,261.3016,a,1,0.3482,,0.3482,1,261.3017,261.8002,,,,,,305,MAS,WORD,AGR,150,avión,,el,,261.8002,261.8002,0.269444444,-0.173611111,0,0,0,,0,110,110,304,1,adiol,,,,
,,,,,,651aeac562599893a66f28cc,676192165fb32c2e1fb7aee6,67d1ab83b2c7d3f95cede32a,2025-03-12_16h43.08.611,Tarea de decisión léxica,2024.2.5,Win32,144.9275362,,,,,,,,,,,,,,,,,,,,,,,261.8007,262.9051,l,1,0.4444,,0.4444,1,262.9051,263.4049,,,,,,224,FEM,NOWORD,DIS,150,cira,,el,,263.4049,263.4049,0.269444444,-0.173611111,0,0,0,,0,111,111,223,1,cera,,,,
,,,,,,651aeac562599893a66f28cc,676192165fb32c2e1fb7aee6,67d1ab83b2c7d3f95cede32a,2025-03-12_16h43.08.611,Tarea de decisión léxica,2024.2.5,Win32,144.9275362,,,,,,,,,,,,,,,,,,,,,,,263.4054,264.6966,a,1,0.6316,,0.6316,1,264.6967,265.1965,,,,,,125,MAS,WORD,AGR,150,lujo,,el,,265.1969,265.1972,0.269444444,-0.173611111,0,0,0,,0,112,112,124,1,vudo,,,,
,,,,,,651aeac562599893a66f28cc,676192165fb32c2e1fb7aee6,67d1ab83b2c7d3f95cede32a,2025-03-12_16h43.08.611,Tarea de decisión léxica,2024.2.5,Win32,144.9275362,,,,,,,,,,,,,,,,,,,,,,,265.1974,266.2799,a,1,0.4286,,0.4286,1,266.28,266.7798,,,,,,213,FEM,WORD,AGR,150,rama,,la,,266.7798,266.7799,0.269444444,-0.173611111,0,0,0,,0,113,113,212,1,bana,,,,
,,,,,,651aeac562599893a66f28cc,676192165fb32c2e1fb7aee6,67d1ab83b2c7d3f95cede32a,2025-03-12_16h43.08.611,Tarea de decisión léxica,2024.2.5,Win32,144.9275362,,,,,,,,,,,,,,,,,,,,,,,266.7802,267.7731,a,1,0.3333,,0.3333,1,267.7731,268.2703,,,,,,193,FEM,WORD,AGR,150,loca,,la,,268.2703,268.2704,0.269444444,-0.173611111,0,0,0,,0,114,114,192,1,foda,,,,
,,,,,,651aeac562599893a66f28cc,676192165fb32c2e1fb7aee6,67d1ab83b2c7d3f95cede32a,2025-03-12_16h43.08.611,Tarea de decisión léxica,2024.2.5,Win32,144.9275362,,,,,,,,,,,,,,,,,,,,,,,268.2708,269.2453,a,1,0.3126,,0.3126,1,269.2453,269.7452,,,,,,23,FEM,WORD,DIS,150,hija,,el,,269.7453,269.7454,0.269444444,-0.173611111,0,0,0,,0,115,115,22,1,giva,,,,
,,,,,,651aeac562599893a66f28cc,676192165fb32c2e1fb7aee6,67d1ab83b2c7d3f95cede32a,2025-03-12_16h43.08.611,Tarea de decisión léxica,2024.2.5,Win32,144.9275362,,,,,,,,,,,,,,,,,,,,,,,269.7457,270.912,l,1,0.5074,,0.5074,1,270.912,271.4118,,,,,,204,FEM,NOWORD,DIS,150,beja,,el,,271.4118,271.4119,0.269444444,-0.173611111,0,0,0,,0,116,116,203,1,leña,,,,
,,,,,,651aeac562599893a66f28cc,676192165fb32c2e1fb7aee6,67d1ab83b2c7d3f95cede32a,2025-03-12_16h43.08.611,Tarea de decisión léxica,2024.2.5,Win32,144.9275362,,,,,,,,,,,,,,,,,,,,,,,271.4122,272.5093,l,1,0.4377,,0.4377,1,272.5094,273.0092,,,,,,192,FEM,NOWORD,DIS,150,bila,,el,,273.0096,273.01,0.269444444,-0.173611111,0,0,0,,0,117,117,191,1,pila,,,,
,,,,,,651aeac562599893a66f28cc,676192165fb32c2e1fb7aee6,67d1ab83b2c7d3f95cede32a,2025-03-12_16h43.08.611,Tarea de decisión léxica,2024.2.5,Win32,144.9275362,,,,,,,,,,,,,,,,,,,,,,,273.0102,274.127,l,1,0.4581,,0.4581,1,274.1271,274.6271,,,,,,42,FEM,NOWORD,AGR,150,haje,,la,,274.6271,274.6273,0.269444444,-0.173611111,0,0,0,,0,118,118,41,1,nave,,,,
,,,,,,651aeac562599893a66f28cc,676192165fb32c2e1fb7aee6,67d1ab83b2c7d3f95cede32a,2025-03-12_16h43.08.611,Tarea de decisión léxica,2024.2.5,Win32,144.9275362,,,,,,,,,,,,,,,,,,,,,,,274.6276,275.7387,l,1,0.4518,,0.4518,1,275.7388,276.2388,,,,,,264,FEM,NOWORD,DIS,150,dosta,,el,,276.2388,276.2389,0.269444444,-0.173611111,0,0,0,,0,119,119,263,1,vista,,,,
,,,,,,651aeac562599893a66f28cc,676192165fb32c2e1fb7aee6,67d1ab83b2c7d3f95cede32a,2025-03-12_16h43.08.611,Tarea de decisión léxica,2024.2.5,Win32,144.9275362,,,,,,,,,,,,,,,,,,,,,,,276.2392,277.3426,l,1,0.4441,,0.4441,1,277.3427,277.8425,,,,,,390,MAS,NOWORD,AGR,150,cenco,,el,,277.8425,277.8427,0.269444444,-0.173611111,0,0,0,,0,120,120,389,1,cerdo,,,,
,,,,,,651aeac562599893a66f28cc,676192165fb32c2e1fb7aee6,67d1ab83b2c7d3f95cede32a,2025-03-12_16h43.08.611,Tarea de decisión léxica,2024.2.5,Win32,144.9275362,,,,,,,,,,,,,,,,,,,,,,,277.8431,279.0511,l,1,0.5488,,0.5488,1,279.0511,279.5509,,,,,,130,MAS,NOWORD,AGR,150,pima,,el,,279.5509,279.5509,0.269444444,-0.173611111,0,0,0,,0,121,121,129,1,oído,,,,
,,,,,,651aeac562599893a66f28cc,676192165fb32c2e1fb7aee6,67d1ab83b2c7d3f95cede32a,2025-03-12_16h43.08.611,Tarea de decisión léxica,2024.2.5,Win32,144.9275362,,,,,,,,,,,,,,,,,,,,,,,279.5513,280.808,a,1,0.5973,,0.5973,1,280.808,281.3079,,,,,,151,MAS,WORD,DIS,150,tomo,,la,,281.3084,281.3088,0.269444444,-0.173611111,0,0,0,,0,122,122,150,1,sogo,,,,
,,,,,,651aeac562599893a66f28cc,676192165fb32c2e1fb7aee6,67d1ab83b2c7d3f95cede32a,2025-03-12_16h43.08.611,Tarea de decisión léxica,2024.2.5,Win32,144.9275362,,,,,,,,,,,,,,,,,,,,,,,281.3091,282.4399,a,1,0.4775,,0.4775,1,282.44,282.9398,,,,,,5,FEM,WORD,AGR,150,cosa,,la,,282.9398,282.9398,0.269444444,-0.173611111,0,0,0,,0,123,123,4,1,poga,,,,
,,,,,,651aeac562599893a66f28cc,676192165fb32c2e1fb7aee6,67d1ab83b2c7d3f95cede32a,2025-03-12_16h43.08.611,Tarea de decisión léxica,2024.2.5,Win32,144.9275362,,,,,,,,,,,,,,,,,,,,,,,282.9402,283.9399,a,1,0.3401,,0.3401,1,283.94,284.44,,,,,,37,MAS,WORD,AGR,150,rato,,el,,284.4401,284.4401,0.269444444,-0.173611111,0,0,0,,0,124,124,36,1,gaco,,,,
,,,,,,651aeac562599893a66f28cc,676192165fb32c2e1fb7aee6,67d1ab83b2c7d3f95cede32a,2025-03-12_16h43.08.611,Tarea de decisión léxica,2024.2.5,Win32,144.9275362,,,,,,,,,,,,,,,,,,,,,,,284.4404,285.5442,l,1,0.4448,,0.4448,1,285.5443,286.044,,,,,,352,MAS,NOWORD,DIS,150,duepo,,la,,286.044,286.0441,0.269444444,-0.173611111,0,0,0,,0,125,125,351,1,vuelo,,,,
,,,,,,651aeac562599893a66f28cc,676192165fb32c2e1fb7aee6,67d1ab83b2c7d3f95cede32a,2025-03-12_16h43.08.611,Tarea de decisión léxica,2024.2.5,Win32,144.9275362,,,,,,,,,,,,,,,,,,,,,,,286.0445,287.1526,a,1,0.4488,,0.4488,1,287.1526,287.6484,,,,,,25,FEM,WORD,AGR,150,cama,,la,,287.6484,287.6485,0.269444444,-0.173611111,0,0,0,,0,126,126,24,1,paza,,,,
,,,,,,651aeac562599893a66f28cc,676192165fb32c2e1fb7aee6,67d1ab83b2c7d3f95cede32a,2025-03-12_16h43.08.611,Tarea de decisión léxica,2024.2.5,Win32,144.9275362,,,,,,,,,,,,,,,,,,,,,,,287.6489,288.7289,l,1,0.419,,0.419,1,288.729,289.2248,,,,,,320,MAS,NOWORD,DIS,150,tuero,,la,,289.2252,289.2255,0.269444444,-0.173611111,0,0,0,,0,127,127,319,1,suelo,,,,
,,,,,,651aeac562599893a66f28cc,676192165fb32c2e1fb7aee6,67d1ab83b2c7d3f95cede32a,2025-03-12_16h43.08.611,Tarea de decisión léxica,2024.2.5,Win32,144.9275362,,,,,,,,,,,,,,,,,,,,,,,289.2258,290.4608,a,1,0.5684,,0.5684,1,290.4608,290.961,,,,,,13,FEM,WORD,AGR,150,hora,,la,,290.961,290.961,0.269444444,-0.173611111,0,0,0,,0,128,128,12,1,nola,,,,
,,,,,,651aeac562599893a66f28cc,676192165fb32c2e1fb7aee6,67d1ab83b2c7d3f95cede32a,2025-03-12_16h43.08.611,Tarea de decisión léxica,2024.2.5,Win32,144.9275362,,,,,,,,,,,,,,,,,,,,,,,290.9614,292.1277,l,1,0.5071,,0.5071,1,292.1278,292.6275,,,,,,152,MAS,NOWORD,DIS,150,sogo,,la,,292.6275,292.6276,0.269444444,-0.173611111,0,0,0,,0,129,129,151,1,tomo,,,,
,,,,,,651aeac562599893a66f28cc,676192165fb32c2e1fb7aee6,67d1ab83b2c7d3f95cede32a,2025-03-12_16h43.08.611,Tarea de decisión léxica,2024.2.5,Win32,144.9275362,,,,,,,,,,,,,,,,,,,,,,,292.6279,293.6485,a,1,0.3612,,0.3612,1,293.6485,294.1504,,,,,,255,MAS,WORD,DIS,150,miedo,,la,,294.1504,294.1504,0.269444444,-0.173611111,0,0,0,,0,130,130,254,1,mauco,,,,
,,,,,,651aeac562599893a66f28cc,676192165fb32c2e1fb7aee6,67d1ab83b2c7d3f95cede32a,2025-03-12_16h43.08.611,Tarea de decisión léxica,2024.2.5,Win32,144.9275362,,,,,,,,,,,,,,,,,,,,,,,294.1508,295.33,l,1,0.5271,,0.5271,1,295.3301,295.8298,,,,,,226,MAS,NOWORD,AGR,150,boco,,el,,295.8302,295.8306,0.269444444,-0.173611111,0,0,0,,0,131,131,225,1,lodo,,,,
,,,,,,651aeac562599893a66f28cc,676192165fb32c2e1fb7aee6,67d1ab83b2c7d3f95cede32a,2025-03-12_16h43.08.611,Tarea de decisión léxica,2024.2.5,Win32,144.9275362,,,,,,,,,,,,,,,,,,,,,,,295.8309,296.9194,a,1,0.4297,,0.4297,1,296.9195,297.4194,,,,,,343,FEM,WORD,DIS,150,plata,,el,,297.4194,297.4194,0.269444444,-0.173611111,0,0,0,,0,132,132,342,1,trada,,,,
,,,,,,651aeac562599893a66f28cc,676192165fb32c2e1fb7aee6,67d1ab83b2c7d3f95cede32a,2025-03-12_16h43.08.611,Tarea de decisión léxica,2024.2.5,Win32,144.9275362,,,,,,,,,,,,,,,,,,,,,,,297.4198,298.3984,a,1,0.3195,,0.3195,1,298.3985,298.8986,,,,,,29,MAS,WORD,AGR,150,modo,,el,,298.8986,298.8987,0.269444444,-0.173611111,0,0,0,,0,133,133,28,1,pono,,,,
,,,,,,651aeac562599893a66f28cc,676192165fb32c2e1fb7aee6,67d1ab83b2c7d3f95cede32a,2025-03-12_16h43.08.611,Tarea de decisión léxica,2024.2.5,Win32,144.9275362,,,,,,,,,,,,,,,,,,,,,,,298.899,300.1209,a,1,0.5627,,0.5627,1,300.121,300.6207,,,,,,101,MAS,WORD,AGR,150,tono,,el,,300.6207,300.6208,0.269444444,-0.173611111,0,0,0,,0,134,134,100,1,gito,,,,
,,,,,,651aeac562599893a66f28cc,676192165fb32c2e1fb7aee6,67d1ab83b2c7d3f95cede32a,2025-03-12_16h43.08.611,Tarea de decisión léxica,2024.2.5,Win32,144.9275362,,,,,,,,,,,,,,,,,,,,,,,300.6212,301.6557,a,1,0.3753,,0.3753,1,301.6557,302.1554,,,,,,333,FEM,WORD,AGR,150,tarea,,la,,302.1554,302.1555,0.269444444,-0.173611111,0,0,0,,0,135,135,332,1,dalea,,,,
,,,,,,651aeac562599893a66f28cc,676192165fb32c2e1fb7aee6,67d1ab83b2c7d3f95cede32a,2025-03-12_16h43.08.611,Tarea de decisión léxica,2024.2.5,Win32,144.9275362,,,,,,,,,,,,,,,,,,,,,,,302.1558,303.121,a,1,0.3058,,0.3058,1,303.121,303.6208,,,,,,463,FEM,WORD,DIS,150,cabra,,el,,303.6212,303.6216,0.269444444,-0.173611111,0,0,0,,0,136,136,462,1,matla,,,,
,,,,,,651aeac562599893a66f28cc,676192165fb32c2e1fb7aee6,67d1ab83b2c7d3f95cede32a,2025-03-12_16h43.08.611,Tarea de decisión léxica,2024.2.5,Win32,144.9275362,,,,,,,,,,,,,,,,,,,,,,,303.6218,304.7363,l,1,0.4592,,0.4592,1,304.7364,305.2389,,,,,,312,MAS,NOWORD,DIS,150,nosor,,la,,305.2389,305.239,0.269444444,-0.173611111,0,0,0,,0,137,137,311,1,honor,,,,
,,,,,,651aeac562599893a66f28cc,676192165fb32c2e1fb7aee6,67d1ab83b2c7d3f95cede32a,2025-03-12_16h43.08.611,Tarea de decisión léxica,2024.2.5,Win32,144.9275362,,,,,,,,,,,,,,,,,,,,,,,305.2393,306.3711,l,1,0.4725,,0.4725,1,306.3711,306.8713,,,,,,26,FEM,NOWORD,AGR,150,paza,,la,,306.8713,306.8714,0.269444444,-0.173611111,0,0,0,,0,138,138,25,1,cama,,,,
,,,,,,651aeac562599893a66f28cc,676192165fb32c2e1fb7aee6,67d1ab83b2c7d3f95cede32a,2025-03-12_16h43.08.611,Tarea de decisión léxica,2024.2.5,Win32,144.9275362,,,,,,,,,,,,,,,,,,,,,,,306.8717,307.9683,l,1,0.441,,0.441,1,307.9684,308.4654,,,,,,270,MAS,NOWORD,AGR,150,mello,,el,,308.4654,308.4655,0.269444444,-0.173611111,0,0,0,,0,139,139,269,1,perro,,,,
,,,,,,651aeac562599893a66f28cc,676192165fb32c2e1fb7aee6,67d1ab83b2c7d3f95cede32a,2025-03-12_16h43.08.611,Tarea de decisión léxica,2024.2.5,Win32,144.9275362,,,,,,,,,,,,,,,,,,,,,,,308.4658,309.6493,l,1,0.5203,,0.5203,1,309.6494,310.1492,,,,,,106,FEM,NOWORD,AGR,150,vina,,la,,310.1493,310.1493,0.269444444,-0.173611111,0,0,0,,0,140,140,105,1,sopa,,,,
,,,,,,651aeac562599893a66f28cc,676192165fb32c2e1fb7aee6,67d1ab83b2c7d3f95cede32a,2025-03-12_16h43.08.611,Tarea de decisión léxica,2024.2.5,Win32,144.9275362,,,,,,,,,,,,,,,,,,,,,,,310.1497,311.2321,l,1,0.4238,,0.4238,1,311.2322,311.7296,,,,,,318,FEM,NOWORD,AGR,150,plaad,,la,,311.73,311.7304,0.269444444,-0.173611111,0,0,0,,0,141,141,317,1,playa,,,,
,,,,,,651aeac562599893a66f28cc,676192165fb32c2e1fb7aee6,67d1ab83b2c7d3f95cede32a,2025-03-12_16h43.08.611,Tarea de decisión léxica,2024.2.5,Win32,144.9275362,,,,,,,,,,,,,,,,,,,,,,,311.7306,313.0699,a,1,0.678,,0.678,1,313.0699,313.5723,,,,,,197,MAS,WORD,AGR,150,bate,,el,,313.5724,313.5724,0.269444444,-0.173611111,0,0,0,,0,142,142,196,1,dade,,,,
,,,,,,651aeac562599893a66f28cc,676192165fb32c2e1fb7aee6,67d1ab83b2c7d3f95cede32a,2025-03-12_16h43.08.611,Tarea de decisión léxica,2024.2.5,Win32,144.9275362,,,,,,,,,,,,,,,,,,,,,,,313.5728,314.7742,l,1,0.542,,0.542,1,314.7742,315.2739,,,,,,282,MAS,NOWORD,AGR,150,cauro,,el,,315.2739,315.274,0.269444444,-0.173611111,0,0,0,,0,143,143,281,1,cielo,,,,
,,,,,,651aeac562599893a66f28cc,676192165fb32c2e1fb7aee6,67d1ab83b2c7d3f95cede32a,2025-03-12_16h43.08.611,Tarea de decisión léxica,2024.2.5,Win32,144.9275362,,,,,,,,,,,,,,,,,,,,,,,315.2744,316.4127,a,1,0.4794,,0.4794,1,316.4127,316.9126,,,,,,159,MAS,WORD,DIS,150,giro,,la,,316.9126,316.9127,0.269444444,-0.173611111,0,0,0,,0,144,144,158,1,bilo,,,,
,,,,,,651aeac562599893a66f28cc,676192165fb32c2e1fb7aee6,67d1ab83b2c7d3f95cede32a,2025-03-12_16h43.08.611,Tarea de decisión léxica,2024.2.5,Win32,144.9275362,,,,,,,,,,,,,,,,,,,,,,,316.9131,318.3365,a,1,0.7642,,0.7642,1,318.3366,318.8363,,,,,,381,MAS,WORD,AGR,150,humor,,el,,318.8364,318.8364,0.269444444,-0.173611111,0,0,0,,0,145,145,380,1,nusor,,,,
,,,,,,651aeac562599893a66f28cc,676192165fb32c2e1fb7aee6,67d1ab83b2c7d3f95cede32a,2025-03-12_16h43.08.611,Tarea de decisión léxica,2024.2.5,Win32,144.9275362,,,,,,,,,,,,,,,,,,,,,,,318.8368,319.8713,a,1,0.3752,,0.3752,1,319.8713,320.3713,,,,,,441,FEM,WORD,AGR,150,selva,,la,,320.3717,320.372,0.269444444,-0.173611111,0,0,0,,0,146,146,440,1,telza,,,,
,,,,,,651aeac562599893a66f28cc,676192165fb32c2e1fb7aee6,67d1ab83b2c7d3f95cede32a,2025-03-12_16h43.08.611,Tarea de decisión léxica,2024.2.5,Win32,144.9275362,,,,,,,,,,,,,,,,,,,,,,,320.3722,321.7435,l,1,0.7109,,0.7109,1,321.7436,322.239,,,,,,62,FEM,NOWORD,AGR,150,efla,,la,,322.239,322.2391,0.269444444,-0.173611111,0,0,0,,0,147,147,61,1,obra,,,,
,,,,,,651aeac562599893a66f28cc,676192165fb32c2e1fb7aee6,67d1ab83b2c7d3f95cede32a,2025-03-12_16h43.08.611,Tarea de decisión léxica,2024.2.5,Win32,144.9275362,,,,,,,,,,,,,,,,,,,,,,,322.2395,323.4007,l,1,0.5018,,0.5018,1,323.4008,323.9007,,,,,,328,MAS,NOWORD,DIS,150,lendo,,la,,323.9007,323.9008,0.269444444,-0.173611111,0,0,0,,0,148,148,327,1,fondo,,,,
,,,,,,651aeac562599893a66f28cc,676192165fb32c2e1fb7aee6,67d1ab83b2c7d3f95cede32a,2025-03-12_16h43.08.611,Tarea de decisión léxica,2024.2.5,Win32,144.9275362,,,,,,,,,,,,,,,,,,,,,,,323.9012,325.0309,a,1,0.4722,,0.4722,1,325.031,325.5301,,,,,,161,MAS,WORD,AGR,150,coro,,el,,325.5301,325.5301,0.269444444,-0.173611111,0,0,0,,0,149,149,160,1,bopo,,,,
,,,,,,651aeac562599893a66f28cc,676192165fb32c2e1fb7aee6,67d1ab83b2c7d3f95cede32a,2025-03-12_16h43.08.611,Tarea de decisión léxica,2024.2.5,Win32,144.9275362,,,,,,,,,,,,,,,,,,,,,,,325.5306,326.6769,l,1,0.4863,,0.4863,1,326.677,327.1768,,,,,,134,FEM,NOWORD,AGR,150,vesa,,la,,327.1768,327.1769,0.269444444,-0.173611111,0,0,0,,0,150,150,133,1,vaca,,,,
,,,,,,651aeac562599893a66f28cc,676192165fb32c2e1fb7aee6,67d1ab83b2c7d3f95cede32a,2025-03-12_16h43.08.611,Tarea de decisión léxica,2024.2.5,Win32,144.9275362,,,,,,,,,,,,,,,,,,,,,,,327.1772,328.295,l,1,0.4585,,0.4585,1,328.295,328.7948,,,,,,392,MAS,NOWORD,DIS,150,dievo,,la,,328.7951,328.7955,0.269444444,-0.173611111,0,0,0,,0,151,151,391,1,dueño,,,,
,,,,,,651aeac562599893a66f28cc,676192165fb32c2e1fb7aee6,67d1ab83b2c7d3f95cede32a,2025-03-12_16h43.08.611,Tarea de decisión léxica,2024.2.5,Win32,144.9275362,,,,,,,,,,,,,,,,,,,,,,,328.7957,329.9132,l,1,0.4637,,0.4637,1,329.9132,330.4128,,,,,,454,FEM,NOWORD,AGR,150,pafia,,la,,330.4128,330.4128,0.269444444,-0.173611111,0,0,0,,0,152,152,453,1,mafia,,,,
,,,,,,651aeac562599893a66f28cc,676192165fb32c2e1fb7aee6,67d1ab83b2c7d3f95cede32a,2025-03-12_16h43.08.611,Tarea de decisión léxica,2024.2.5,Win32,144.9275362,,,,,,,,,,,,,,,,,,,,,,,330.4133,331.4547,a,1,0.3873,,0.3873,1,331.4548,331.9546,,,,,,11,MAS,WORD,DIS,150,lado,,la,,331.9547,331.9547,0.269444444,-0.173611111,0,0,0,,0,153,153,10,1,bapo,,,,
,,,,,,651aeac562599893a66f28cc,676192165fb32c2e1fb7aee6,67d1ab83b2c7d3f95cede32a,2025-03-12_16h43.08.611,Tarea de decisión léxica,2024.2.5,Win32,144.9275362,,,,,,,,,,,,,,,,,,,,,,,331.9551,332.9688,a,1,0.3473,,0.3473,1,332.9688,333.4686,,,,,,27,MAS,WORD,DIS,150,baño,,la,,333.4686,333.4687,0.269444444,-0.173611111,0,0,0,,0,154,154,26,1,ravo,,,,
,,,,,,651aeac562599893a66f28cc,676192165fb32c2e1fb7aee6,67d1ab83b2c7d3f95cede32a,2025-03-12_16h43.08.611,Tarea de decisión léxica,2024.2.5,Win32,144.9275362,,,,,,,,,,,,,,,,,,,,,,,333.4691,334.4728,a,1,0.3408,,0.3408,1,334.4728,334.9682,,,,,,199,MAS,WORD,DIS,150,lazo,,la,,334.9686,334.969,0.269444444,-0.173611111,0,0,0,,0,155,155,198,1,fano,,,,
,,,,,,651aeac562599893a66f28cc,676192165fb32c2e1fb7aee6,67d1ab83b2c7d3f95cede32a,2025-03-12_16h43.08.611,Tarea de decisión léxica,2024.2.5,Win32,144.9275362,,,,,,,,,,,,,,,,,,,,,,,334.9692,336.0216,l,1,0.3916,,0.3916,1,336.0216,336.5173,,,,,,300,FEM,NOWORD,DIS,150,bosga,,el,,336.5173,336.5173,0.269444444,-0.173611111,0,0,0,,0,156,156,299,1,bolsa,,,,
,,,,,,651aeac562599893a66f28cc,676192165fb32c2e1fb7aee6,67d1ab83b2c7d3f95cede32a,2025-03-12_16h43.08.611,Tarea de decisión léxica,2024.2.5,Win32,144.9275362,,,,,,,,,,,,,,,,,,,,,,,336.5178,338.0659,a,1,0.8886,,0.8886,1,338.066,338.5658,,,,,,59,FEM,WORD,DIS,150,sala,,el,,338.5658,338.566,0.269444444,-0.173611111,0,0,0,,0,157,157,58,1,tafa,,,,
,,,,,,651aeac562599893a66f28cc,676192165fb32c2e1fb7aee6,67d1ab83b2c7d3f95cede32a,2025-03-12_16h43.08.611,Tarea de decisión léxica,2024.2.5,Win32,144.9275362,,,,,,,,,,,,,,,,,,,,,,,338.5664,339.5595,a,1,0.3338,,0.3338,1,339.5595,340.0595,,,,,,71,FEM,WORD,DIS,150,isla,,el,,340.0595,340.0595,0.269444444,-0.173611111,0,0,0,,0,158,158,70,1,urla,,,,
,,,,,,651aeac562599893a66f28cc,676192165fb32c2e1fb7aee6,67d1ab83b2c7d3f95cede32a,2025-03-12_16h43.08.611,Tarea de decisión léxica,2024.2.5,Win32,144.9275362,,,,,,,,,,,,,,,,,,,,,,,340.0599,341.0959,l,1,0.3772,,0.3772,1,341.0959,341.5948,,,,,,170,MAS,NOWORD,AGR,150,mibo,,el,,341.5948,341.5949,0.269444444,-0.173611111,0,0,0,,0,159,159,169,1,cubo,,,,
,,,,,,651aeac562599893a66f28cc,676192165fb32c2e1fb7aee6,67d1ab83b2c7d3f95cede32a,2025-03-12_16h43.08.611,Tarea de decisión léxica,2024.2.5,Win32,144.9275362,,,,,,,,,,,,,,,,,,,,,,,341.5952,342.6354,a,1,0.3873,,0.3873,1,342.6355,343.1353,,,,,,399,MAS,WORD,DIS,150,techo,,la,,343.1357,349.5871,0.269444444,-0.173611111,0,0,0,space,0,160,160,398,1,serro,6.4419,,,
,,,,,,651aeac562599893a66f28cc,676192165fb32c2e1fb7aee6,67d1ab83b2c7d3f95cede32a,2025-03-12_16h43.08.611,Tarea de decisión léxica,2024.2.5,Win32,144.9275362,,,,,,,,,,,,,,,,,,,,,,,349.5876,350.7259,l,1,0.4793,,0.4793,1,350.7259,351.2231,,,,,,190,MAS,NOWORD,AGR,150,muvo,,el,,351.2231,351.2232,0.269444444,-0.173611111,0,0,0,,0,161,161,189,1,puño,,,,
,,,,,,651aeac562599893a66f28cc,676192165fb32c2e1fb7aee6,67d1ab83b2c7d3f95cede32a,2025-03-12_16h43.08.611,Tarea de decisión léxica,2024.2.5,Win32,144.9275362,,,,,,,,,,,,,,,,,,,,,,,351.2235,352.323,l,1,0.4424,,0.4424,1,352.323,352.8229,,,,,,420,MAS,NOWORD,DIS,150,chudo,,la,,352.8229,352.823,0.269444444,-0.173611111,0,0,0,,0,162,162,419,1,truco,,,,
,,,,,,651aeac562599893a66f28cc,676192165fb32c2e1fb7aee6,67d1ab83b2c7d3f95cede32a,2025-03-12_16h43.08.611,Tarea de decisión léxica,2024.2.5,Win32,144.9275362,,,,,,,,,,,,,,,,,,,,,,,352.8234,353.8509,a,1,0.3683,,0.3683,1,353.851,354.3508,,,,,,187,MAS,WORD,DIS,150,mito,,la,,354.3509,354.3509,0.269444444,-0.173611111,0,0,0,,0,163,163,186,1,suto,,,,
,,,,,,651aeac562599893a66f28cc,676192165fb32c2e1fb7aee6,67d1ab83b2c7d3f95cede32a,2025-03-12_16h43.08.611,Tarea de decisión léxica,2024.2.5,Win32,144.9275362,,,,,,,,,,,,,,,,,,,,,,,354.3514,355.2954,a,1,0.2849,,0.2849,1,355.2954,355.7952,,,,,,179,MAS,WORD,DIS,150,toro,,la,,355.7953,355.7953,0.269444444,-0.173611111,0,0,0,,0,164,164,178,1,sono,,,,
,,,,,,651aeac562599893a66f28cc,676192165fb32c2e1fb7aee6,67d1ab83b2c7d3f95cede32a,2025-03-12_16h43.08.611,Tarea de decisión léxica,2024.2.5,Win32,144.9275362,,,,,,,,,,,,,,,,,,,,,,,355.7957,356.8308,l,1,0.3757,,0.3757,1,356.8308,357.33,,,,,,316,FEM,NOWORD,DIS,150,riosa,,el,,357.3304,357.3308,0.269444444,-0.173611111,0,0,0,,0,165,165,315,1,reina,,,,
,,,,,,651aeac562599893a66f28cc,676192165fb32c2e1fb7aee6,67d1ab83b2c7d3f95cede32a,2025-03-12_16h43.08.611,Tarea de decisión léxica,2024.2.5,Win32,144.9275362,,,,,,,,,,,,,,,,,,,,,,,357.331,358.362,l,1,0.3704,,0.3704,1,358.362,358.8581,,,,,,368,MAS,NOWORD,DIS,150,rerob,,la,,358.8581,358.8581,0.269444444,-0.173611111,0,0,0,,0,166,166,367,1,reloj,,,,
,,,,,,651aeac562599893a66f28cc,676192165fb32c2e1fb7aee6,67d1ab83b2c7d3f95cede32a,2025-03-12_16h43.08.611,Tarea de decisión léxica,2024.2.5,Win32,144.9275362,,,,,,,,,,,,,,,,,,,,,,,358.8585,359.8651,a,1,0.3474,,0.3474,1,359.8651,360.3649,,,,,,395,FEM,WORD,DIS,150,caída,,el,,360.3649,360.3649,0.269444444,-0.173611111,0,0,0,,0,167,167,394,1,paeda,,,,
,,,,,,651aeac562599893a66f28cc,676192165fb32c2e1fb7aee6,67d1ab83b2c7d3f95cede32a,2025-03-12_16h43.08.611,Tarea de decisión léxica,2024.2.5,Win32,144.9275362,,,,,,,,,,,,,,,,,,,,,,,360.3653,361.3164,a,1,0.2919,,0.2919,1,361.3164,361.8162,,,,,,287,FEM,WORD,DIS,150,lista,,el,,361.8163,361.8163,0.269444444,-0.173611111,0,0,0,,0,168,168,286,1,fosta,,,,
,,,,,,651aeac562599893a66f28cc,676192165fb32c2e1fb7aee6,67d1ab83b2c7d3f95cede32a,2025-03-12_16h43.08.611,Tarea de decisión léxica,2024.2.5,Win32,144.9275362,,,,,,,,,,,,,,,,,,,,,,,361.8166,362.7954,l,1,0.3195,,0.3195,1,362.7954,363.2929,,,,,,6,FEM,NOWORD,AGR,150,poga,,la,,363.2929,363.2929,0.269444444,-0.173611111,0,0,0,,0,169,169,5,1,cosa,,,,
,,,,,,651aeac562599893a66f28cc,676192165fb32c2e1fb7aee6,67d1ab83b2c7d3f95cede32a,2025-03-12_16h43.08.611,Tarea de decisión léxica,2024.2.5,Win32,144.9275362,,,,,,,,,,,,,,,,,,,,,,,363.2934,364.49,l,1,0.5349,,0.5349,1,364.49,364.9898,,,,,,474,FEM,NOWORD,AGR,150,felia,,la,,364.9902,364.9906,0.269444444,-0.173611111,0,0,0,,0,170,170,473,1,feria,,,,
,,,,,,651aeac562599893a66f28cc,676192165fb32c2e1fb7aee6,67d1ab83b2c7d3f95cede32a,2025-03-12_16h43.08.611,Tarea de decisión léxica,2024.2.5,Win32,144.9275362,,,,,,,,,,,,,,,,,,,,,,,364.9907,366.1846,a,1,0.5344,,0.5344,1,366.1847,366.6816,,,,,,469,MAS,WORD,AGR,150,patio,,el,,366.6816,366.6817,0.269444444,-0.173611111,0,0,0,,0,171,171,468,1,matia,,,,
,,,,,,651aeac562599893a66f28cc,676192165fb32c2e1fb7aee6,67d1ab83b2c7d3f95cede32a,2025-03-12_16h43.08.611,Tarea de decisión léxica,2024.2.5,Win32,144.9275362,,,,,,,,,,,,,,,,,,,,,,,366.6821,367.7609,l,1,0.4169,,0.4169,1,367.761,368.2608,,,,,,456,MAS,NOWORD,DIS,150,riaso,,la,,368.2608,368.2608,0.269444444,-0.173611111,0,0,0,,0,172,172,455,1,reino,,,,
,,,,,,651aeac562599893a66f28cc,676192165fb32c2e1fb7aee6,67d1ab83b2c7d3f95cede32a,2025-03-12_16h43.08.611,Tarea de decisión léxica,2024.2.5,Win32,144.9275362,,,,,,,,,,,,,,,,,,,,,,,368.2612,369.3444,a,1,0.424,,0.424,1,369.3445,369.8442,,,,,,107,MAS,WORD,DIS,150,saco,,la,,369.8442,369.8443,0.269444444,-0.173611111,0,0,0,,0,173,173,106,1,raot,,,,
,,,,,,651aeac562599893a66f28cc,676192165fb32c2e1fb7aee6,67d1ab83b2c7d3f95cede32a,2025-03-12_16h43.08.611,Tarea de decisión léxica,2024.2.5,Win32,144.9275362,,,,,,,,,,,,,,,,,,,,,,,369.8446,370.8999,l,1,0.3951,,0.3951,1,370.8999,371.3996,,,,,,400,MAS,NOWORD,DIS,150,serro,,la,,371.3996,371.3997,0.269444444,-0.173611111,0,0,0,,0,174,174,399,1,techo,,,,
,,,,,,651aeac562599893a66f28cc,676192165fb32c2e1fb7aee6,67d1ab83b2c7d3f95cede32a,2025-03-12_16h43.08.611,Tarea de decisión léxica,2024.2.5,Win32,144.9275362,,,,,,,,,,,,,,,,,,,,,,,371.4001,372.4697,l,1,0.4101,,0.4101,1,372.4697,372.9695,,,,,,310,FEM,NOWORD,AGR,150,tirra,,la,,372.97,372.9704,0.269444444,-0.173611111,0,0,0,,0,175,175,309,1,silla,,,,
,,,,,,651aeac562599893a66f28cc,676192165fb32c2e1fb7aee6,67d1ab83b2c7d3f95cede32a,2025-03-12_16h43.08.611,Tarea de decisión léxica,2024.2.5,Win32,144.9275362,,,,,,,,,,,,,,,,,,,,,,,372.9706,373.9899,a,1,0.3611,,0.3611,1,373.99,374.4899,,,,,,265,FEM,WORD,AGR,150,mitad,,la,,374.4899,374.4901,0.269444444,-0.173611111,0,0,0,,0,176,176,264,1,pitat,,,,
,,,,,,651aeac562599893a66f28cc,676192165fb32c2e1fb7aee6,67d1ab83b2c7d3f95cede32a,2025-03-12_16h43.08.611,Tarea de decisión léxica,2024.2.5,Win32,144.9275362,,,,,,,,,,,,,,,,,,,,,,,374.4905,375.5804,a,1,0.4306,,0.4306,1,375.5804,376.0803,,,,,,417,FEM,WORD,AGR,150,barba,,la,,376.0803,376.0804,0.269444444,-0.173611111,0,0,0,,0,177,177,416,1,banja,,,,
,,,,,,651aeac562599893a66f28cc,676192165fb32c2e1fb7aee6,67d1ab83b2c7d3f95cede32a,2025-03-12_16h43.08.611,Tarea de decisión léxica,2024.2.5,Win32,144.9275362,,,,,,,,,,,,,,,,,,,,,,,376.0807,377.0389,a,1,0.2989,,0.2989,1,377.0389,377.5387,,,,,,413,FEM,WORD,AGR,150,rueda,,la,,377.5387,377.5388,0.269444444,-0.173611111,0,0,0,,0,178,178,412,1,bieda,,,,
,,,,,,651aeac562599893a66f28cc,676192165fb32c2e1fb7aee6,67d1ab83b2c7d3f95cede32a,2025-03-12_16h43.08.611,Tarea de decisión léxica,2024.2.5,Win32,144.9275362,,,,,,,,,,,,,,,,,,,,,,,377.5392,378.6126,l,1,0.4113,,0.4113,1,378.6126,379.108,,,,,,18,FEM,NOWORD,AGR,150,paba,,la,,379.1085,379.109,0.269444444,-0.173611111,0,0,0,,0,179,179,17,1,mamá,,,,
,,,,,,651aeac562599893a66f28cc,676192165fb32c2e1fb7aee6,67d1ab83b2c7d3f95cede32a,2025-03-12_16h43.08.611,Tarea de decisión léxica,2024.2.5,Win32,144.9275362,,,,,,,,,,,,,,,,,,,,,,,379.1092,380.1749,l,1,0.4049,,0.4049,1,380.1749,380.6706,,,,,,350,MAS,NOWORD,AGR,150,cosir,,el,,380.6707,380.6707,0.269444444,-0.173611111,0,0,0,,0,180,180,349,1,color,,,,
,,,,,,651aeac562599893a66f28cc,676192165fb32c2e1fb7aee6,67d1ab83b2c7d3f95cede32a,2025-03-12_16h43.08.611,Tarea de decisión léxica,2024.2.5,Win32,144.9275362,,,,,,,,,,,,,,,,,,,,,,,380.671,381.7333,l,1,0.4028,,0.4028,1,381.7333,382.2306,,,,,,76,MAS,NOWORD,DIS,150,ocer,,la,,382.2306,382.2307,0.269444444,-0.173611111,0,0,0,,0,181,181,75,1,olor,,,,
,,,,,,651aeac562599893a66f28cc,676192165fb32c2e1fb7aee6,67d1ab83b2c7d3f95cede32a,2025-03-12_16h43.08.611,Tarea de decisión léxica,2024.2.5,Win32,144.9275362,,,,,,,,,,,,,,,,,,,,,,,382.231,383.5813,a,1,0.6885,,0.6885,1,383.5813,384.0815,,,,,,191,FEM,WORD,DIS,150,pila,,el,,384.0815,384.0816,0.269444444,-0.173611111,0,0,0,,0,182,182,190,1,bila,,,,
,,,,,,651aeac562599893a66f28cc,676192165fb32c2e1fb7aee6,67d1ab83b2c7d3f95cede32a,2025-03-12_16h43.08.611,Tarea de decisión léxica,2024.2.5,Win32,144.9275362,,,,,,,,,,,,,,,,,,,,,,,384.082,385.2205,l,1,0.4803,,0.4803,1,385.2205,385.7193,,,,,,32,FEM,NOWORD,DIS,150,bova,,el,,385.7193,385.7194,0.269444444,-0.173611111,0,0,0,,0,183,183,31,1,ropa,,,,
,,,,,,651aeac562599893a66f28cc,676192165fb32c2e1fb7aee6,67d1ab83b2c7d3f95cede32a,2025-03-12_16h43.08.611,Tarea de decisión léxica,2024.2.5,Win32,144.9275362,,,,,,,,,,,,,,,,,,,,,,,385.7198,386.8239,l,1,0.4431,,0.4431,1,386.824,387.3234,,,,,,298,MAS,NOWORD,AGR,150,brubo,,el,,387.3239,387.3243,0.269444444,-0.173611111,0,0,0,,0,184,184,297,1,grupo,,,,
,,,,,,651aeac562599893a66f28cc,676192165fb32c2e1fb7aee6,67d1ab83b2c7d3f95cede32a,2025-03-12_16h43.08.611,Tarea de decisión léxica,2024.2.5,Win32,144.9275362,,,,,,,,,,,,,,,,,,,,,,,387.3245,388.262,a,1,0.2789,,0.2789,1,388.262,388.7616,,,,,,171,MAS,WORD,DIS,150,hilo,,la,,388.7616,388.7617,0.269444444,-0.173611111,0,0,0,,0,185,185,170,1,niro,,,,
,,,,,,651aeac562599893a66f28cc,676192165fb32c2e1fb7aee6,67d1ab83b2c7d3f95cede32a,2025-03-12_16h43.08.611,Tarea de decisión léxica,2024.2.5,Win32,144.9275362,,,,,,,,,,,,,,,,,,,,,,,388.762,389.6999,a,1,0.2791,,0.2791,1,389.7,390.1994,,,,,,127,MAS,WORD,DIS,150,pico,,la,,390.1994,390.1995,0.269444444,-0.173611111,0,0,0,,0,186,186,126,1,itio,,,,
,,,,,,651aeac562599893a66f28cc,676192165fb32c2e1fb7aee6,67d1ab83b2c7d3f95cede32a,2025-03-12_16h43.08.611,Tarea de decisión léxica,2024.2.5,Win32,144.9275362,,,,,,,,,,,,,,,,,,,,,,,390.1999,391.1584,a,1,0.2994,,0.2994,1,391.1585,391.6581,,,,,,131,FEM,WORD,DIS,150,mina,,el,,391.6581,391.6582,0.269444444,-0.173611111,0,0,0,,0,187,187,130,1,fada,,,,
,,,,,,651aeac562599893a66f28cc,676192165fb32c2e1fb7aee6,67d1ab83b2c7d3f95cede32a,2025-03-12_16h43.08.611,Tarea de decisión léxica,2024.2.5,Win32,144.9275362,,,,,,,,,,,,,,,,,,,,,,,391.6585,392.6153,a,1,0.3039,,0.3039,1,392.6154,393.1154,,,,,,347,FEM,WORD,DIS,150,pieza,,el,,393.1154,393.1156,0.269444444,-0.173611111,0,0,0,,0,188,188,346,1,mueza,,,,
,,,,,,651aeac562599893a66f28cc,676192165fb32c2e1fb7aee6,67d1ab83b2c7d3f95cede32a,2025-03-12_16h43.08.611,Tarea de decisión léxica,2024.2.5,Win32,144.9275362,,,,,,,,,,,,,,,,,,,,,,,393.1159,394.171,l,1,0.396,,0.396,1,394.1711,394.6709,,,,,,232,FEM,NOWORD,DIS,150,heta,,el,,394.6713,394.6717,0.269444444,-0.173611111,0,0,0,,0,189,189,231,1,bota,,,,
,,,,,,651aeac562599893a66f28cc,676192165fb32c2e1fb7aee6,67d1ab83b2c7d3f95cede32a,2025-03-12_16h43.08.611,Tarea de decisión léxica,2024.2.5,Win32,144.9275362,,,,,,,,,,,,,,,,,,,,,,,394.6721,395.706,l,1,0.3753,,0.3753,1,395.706,396.2056,,,,,,208,MAS,NOWORD,DIS,150,kedo,,la,,396.2056,396.2056,0.269444444,-0.173611111,0,0,0,,0,190,190,207,1,kilo,,,,
,,,,,,651aeac562599893a66f28cc,676192165fb32c2e1fb7aee6,67d1ab83b2c7d3f95cede32a,2025-03-12_16h43.08.611,Tarea de decisión léxica,2024.2.5,Win32,144.9275362,,,,,,,,,,,,,,,,,,,,,,,396.206,397.5391,l,1,0.6737,,0.6737,1,397.5391,398.039,,,,,,116,FEM,NOWORD,DIS,150,haca,,el,,398.039,398.0391,0.269444444,-0.173611111,0,0,0,,0,191,191,115,1,pata,,,,
,,,,,,651aeac562599893a66f28cc,676192165fb32c2e1fb7aee6,67d1ab83b2c7d3f95cede32a,2025-03-12_16h43.08.611,Tarea de decisión léxica,2024.2.5,Win32,144.9275362,,,,,,,,,,,,,,,,,,,,,,,398.0396,399.0879,a,1,0.389,,0.389,1,399.0879,399.5876,,,,,,443,MAS,WORD,DIS,150,salón,,la,,399.5877,399.5877,0.269444444,-0.173611111,0,0,0,,0,192,192,442,1,taron,,,,
,,,,,,651aeac562599893a66f28cc,676192165fb32c2e1fb7aee6,67d1ab83b2c7d3f95cede32a,2025-03-12_16h43.08.611,Tarea de decisión léxica,2024.2.5,Win32,144.9275362,,,,,,,,,,,,,,,,,,,,,,,399.588,400.8031,l,1,0.5557,,0.5557,1,400.8032,401.3029,,,,,,288,FEM,NOWORD,DIS,150,fosta,,el,,401.3029,401.303,0.269444444,-0.173611111,0,0,0,,0,193,193,287,1,lista,,,,
,,,,,,651aeac562599893a66f28cc,676192165fb32c2e1fb7aee6,67d1ab83b2c7d3f95cede32a,2025-03-12_16h43.08.611,Tarea de decisión léxica,2024.2.5,Win32,144.9275362,,,,,,,,,,,,,,,,,,,,,,,401.3034,402.7336,l,1,0.7711,,0.7711,1,402.7337,403.2336,,,,,,432,MAS,NOWORD,DIS,150,tetor,,la,,403.2339,403.2343,0.269444444,-0.173611111,0,0,0,,0,194,194,431,1,motor,,,,
,,,,,,651aeac562599893a66f28cc,676192165fb32c2e1fb7aee6,67d1ab83b2c7d3f95cede32a,2025-03-12_16h43.08.611,Tarea de decisión léxica,2024.2.5,Win32,144.9275362,,,,,,,,,,,,,,,,,,,,,,,403.2345,404.2819,a,1,0.3887,,0.3887,1,404.282,404.7823,,,,,,335,FEM,WORD,DIS,150,costa,,el,,404.7823,404.7824,0.269444444,-0.173611111,0,0,0,,0,195,195,334,1,pesta,,,,
,,,,,,651aeac562599893a66f28cc,676192165fb32c2e1fb7aee6,67d1ab83b2c7d3f95cede32a,2025-03-12_16h43.08.611,Tarea de decisión léxica,2024.2.5,Win32,144.9275362,,,,,,,,,,,,,,,,,,,,,,,404.7827,405.7615,a,1,0.3197,,0.3197,1,405.7616,406.2588,,,,,,217,MAS,WORD,AGR,150,luto,,el,,406.2589,406.2589,0.269444444,-0.173611111,0,0,0,,0,196,196,216,1,budo,,,,
,,,,,,651aeac562599893a66f28cc,676192165fb32c2e1fb7aee6,67d1ab83b2c7d3f95cede32a,2025-03-12_16h43.08.611,Tarea de decisión léxica,2024.2.5,Win32,144.9275362,,,,,,,,,,,,,,,,,,,,,,,406.2594,407.2406,a,1,0.3195,,0.3195,1,407.2407,407.7404,,,,,,475,FEM,WORD,DIS,150,manta,,el,,407.7405,407.7405,0.269444444,-0.173611111,0,0,0,,0,197,197,474,1,mucta,,,,
,,,,,,651aeac562599893a66f28cc,676192165fb32c2e1fb7aee6,67d1ab83b2c7d3f95cede32a,2025-03-12_16h43.08.611,Tarea de decisión léxica,2024.2.5,Win32,144.9275362,,,,,,,,,,,,,,,,,,,,,,,407.7409,408.8726,l,1,0.4724,,0.4724,1,408.8728,409.3731,,,,,,52,FEM,NOWORD,DIS,150,mava,,el,,409.3732,409.3732,0.269444444,-0.173611111,0,0,0,,0,198,198,51,1,caja,,,,
,,,,,,651aeac562599893a66f28cc,676192165fb32c2e1fb7aee6,67d1ab83b2c7d3f95cede32a,2025-03-12_16h43.08.611,Tarea de decisión léxica,2024.2.5,Win32,144.9275362,,,,,,,,,,,,,,,,,,,,,,,409.3737,410.4073,l,1,0.375,,0.375,1,410.4073,410.9072,,,,,,314,MAS,NOWORD,AGR,150,govio,,el,,410.9076,410.908,0.269444444,-0.173611111,0,0,0,,0,199,199,313,1,novio,,,,
,,,,,,651aeac562599893a66f28cc,676192165fb32c2e1fb7aee6,67d1ab83b2c7d3f95cede32a,2025-03-12_16h43.08.611,Tarea de decisión léxica,2024.2.5,Win32,144.9275362,,,,,,,,,,,,,,,,,,,,,,,410.9082,411.9421,a,1,0.3751,,0.3751,1,411.9422,412.442,,,,,,433,MAS,WORD,AGR,150,disco,,el,,412.4421,412.4421,0.269444444,-0.173611111,0,0,0,,0,200,200,432,1,durco,,,,
,,,,,,651aeac562599893a66f28cc,676192165fb32c2e1fb7aee6,67d1ab83b2c7d3f95cede32a,2025-03-12_16h43.08.611,Tarea de decisión léxica,2024.2.5,Win32,144.9275362,,,,,,,,,,,,,,,,,,,,,,,412.4425,413.6644,l,1,0.5627,,0.5627,1,413.6645,414.1641,,,,,,38,MAS,NOWORD,AGR,150,gaco,,el,,414.1641,414.1642,0.269444444,-0.173611111,0,0,0,,0,201,201,37,1,rato,,,,
,,,,,,651aeac562599893a66f28cc,676192165fb32c2e1fb7aee6,67d1ab83b2c7d3f95cede32a,2025-03-12_16h43.08.611,Tarea de decisión léxica,2024.2.5,Win32,144.9275362,,,,,,,,,,,,,,,,,,,,,,,414.1646,415.1923,a,1,0.3684,,0.3684,1,415.1923,415.692,,,,,,49,FEM,WORD,AGR,150,edad,,la,,415.6921,415.6921,0.269444444,-0.173611111,0,0,0,,0,202,202,48,1,ecat,,,,
,,,,,,651aeac562599893a66f28cc,676192165fb32c2e1fb7aee6,67d1ab83b2c7d3f95cede32a,2025-03-12_16h43.08.611,Tarea de decisión léxica,2024.2.5,Win32,144.9275362,,,,,,,,,,,,,,,,,,,,,,,415.6925,416.6854,a,1,0.3335,,0.3335,1,416.6855,417.1852,,,,,,75,MAS,WORD,DIS,150,olor,,la,,417.1855,417.1859,0.269444444,-0.173611111,0,0,0,,0,203,203,74,1,ocer,,,,
,,,,,,651aeac562599893a66f28cc,676192165fb32c2e1fb7aee6,67d1ab83b2c7d3f95cede32a,2025-03-12_16h43.08.611,Tarea de decisión léxica,2024.2.5,Win32,144.9275362,,,,,,,,,,,,,,,,,,,,,,,417.1862,418.213,l,1,0.3731,,0.3731,1,418.213,418.7136,,,,,,362,FEM,NOWORD,AGR,150,solle,,la,,418.7136,418.7137,0.269444444,-0.173611111,0,0,0,,0,204,204,361,1,torre,,,,
,,,,,,651aeac562599893a66f28cc,676192165fb32c2e1fb7aee6,67d1ab83b2c7d3f95cede32a,2025-03-12_16h43.08.611,Tarea de decisión léxica,2024.2.5,Win32,144.9275362,,,,,,,,,,,,,,,,,,,,,,,418.7141,419.7347,a,1,0.3551,,0.3551,1,419.7348,420.2338,,,,,,307,MAS,WORD,DIS,150,hotel,,la,,420.2338,420.2338,0.269444444,-0.173611111,0,0,0,,0,205,205,306,1,holol,,,,
,,,,,,651aeac562599893a66f28cc,676192165fb32c2e1fb7aee6,67d1ab83b2c7d3f95cede32a,2025-03-12_16h43.08.611,Tarea de decisión léxica,2024.2.5,Win32,144.9275362,,,,,,,,,,,,,,,,,,,,,,,420.2342,421.2897,l,1,0.3962,,0.3962,1,421.2897,421.7896,,,,,,444,MAS,NOWORD,DIS,150,taron,,la,,421.7896,421.7897,0.269444444,-0.173611111,0,0,0,,0,206,206,443,1,salón,,,,
,,,,,,651aeac562599893a66f28cc,676192165fb32c2e1fb7aee6,67d1ab83b2c7d3f95cede32a,2025-03-12_16h43.08.611,Tarea de decisión léxica,2024.2.5,Win32,144.9275362,,,,,,,,,,,,,,,,,,,,,,,421.79,422.9217,l,1,0.4722,,0.4722,1,422.9217,423.4215,,,,,,60,FEM,NOWORD,DIS,150,tafa,,el,,423.4215,423.4215,0.269444444,-0.173611111,0,0,0,,0,207,207,59,1,sala,,,,
,,,,,,651aeac562599893a66f28cc,676192165fb32c2e1fb7aee6,67d1ab83b2c7d3f95cede32a,2025-03-12_16h43.08.611,Tarea de decisión léxica,2024.2.5,Win32,144.9275362,,,,,,,,,,,,,,,,,,,,,,,423.4219,424.4423,a,1,0.3612,,0.3612,1,424.4423,424.9422,,,,,,297,MAS,WORD,AGR,150,grupo,,el,,424.9426,424.943,0.269444444,-0.173611111,0,0,0,,0,208,208,296,1,brubo,,,,
,,,,,,651aeac562599893a66f28cc,676192165fb32c2e1fb7aee6,67d1ab83b2c7d3f95cede32a,2025-03-12_16h43.08.611,Tarea de decisión léxica,2024.2.5,Win32,144.9275362,,,,,,,,,,,,,,,,,,,,,,,424.9432,425.984,a,1,0.3821,,0.3821,1,425.9841,426.4813,,,,,,167,FEM,WORD,DIS,150,jefa,,el,,426.4813,426.4814,0.269444444,-0.173611111,0,0,0,,0,209,209,166,1,zifa,,,,
,,,,,,651aeac562599893a66f28cc,676192165fb32c2e1fb7aee6,67d1ab83b2c7d3f95cede32a,2025-03-12_16h43.08.611,Tarea de decisión léxica,2024.2.5,Win32,144.9275362,,,,,,,,,,,,,,,,,,,,,,,426.4817,427.4076,a,1,0.2639,,0.2639,1,427.4078,427.9074,,,,,,341,MAS,WORD,AGR,150,valor,,el,,427.9074,427.9075,0.269444444,-0.173611111,0,0,0,,0,210,210,340,1,daror,,,,
,,,,,,651aeac562599893a66f28cc,676192165fb32c2e1fb7aee6,67d1ab83b2c7d3f95cede32a,2025-03-12_16h43.08.611,Tarea de decisión léxica,2024.2.5,Win32,144.9275362,,,,,,,,,,,,,,,,,,,,,,,427.9079,428.8384,a,1,0.271,,0.271,1,428.8384,429.3382,,,,,,387,FEM,WORD,DIS,150,crema,,el,,429.3382,429.3383,0.269444444,-0.173611111,0,0,0,,0,211,211,386,1,bresa,,,,
,,,,,,651aeac562599893a66f28cc,676192165fb32c2e1fb7aee6,67d1ab83b2c7d3f95cede32a,2025-03-12_16h43.08.611,Tarea de decisión léxica,2024.2.5,Win32,144.9275362,,,,,,,,,,,,,,,,,,,,,,,429.3387,430.3802,a,1,0.3823,,0.3823,1,430.3802,430.8799,,,,,,141,FEM,WORD,AGR,150,cruz,,la,,430.8799,430.88,0.269444444,-0.173611111,0,0,0,,0,212,212,140,1,sina,,,,
,,,,,,651aeac562599893a66f28cc,676192165fb32c2e1fb7aee6,67d1ab83b2c7d3f95cede32a,2025-03-12_16h43.08.611,Tarea de decisión léxica,2024.2.5,Win32,144.9275362,,,,,,,,,,,,,,,,,,,,,,,430.8805,431.7965,a,1,0.2569,,0.2569,1,431.7966,432.2965,,,,,,175,FEM,WORD,DIS,150,goma,,el,,432.2968,432.2972,0.269444444,-0.173611111,0,0,0,,0,213,213,174,1,hosa,,,,
,,,,,,651aeac562599893a66f28cc,676192165fb32c2e1fb7aee6,67d1ab83b2c7d3f95cede32a,2025-03-12_16h43.08.611,Tarea de decisión léxica,2024.2.5,Win32,144.9275362,,,,,,,,,,,,,,,,,,,,,,,432.2975,433.3313,a,1,0.3751,,0.3751,1,433.3313,433.8315,,,,,,315,FEM,WORD,DIS,150,reina,,el,,433.8315,433.8316,0.269444444,-0.173611111,0,0,0,,0,214,214,314,1,riosa,,,,
,,,,,,651aeac562599893a66f28cc,676192165fb32c2e1fb7aee6,67d1ab83b2c7d3f95cede32a,2025-03-12_16h43.08.611,Tarea de decisión léxica,2024.2.5,Win32,144.9275362,,,,,,,,,,,,,,,,,,,,,,,433.8319,434.7622,a,1,0.2712,,0.2712,1,434.7622,435.2592,,,,,,73,MAS,WORD,AGR,150,odio,,el,,435.2592,435.2592,0.269444444,-0.173611111,0,0,0,,0,215,215,72,1,omio,,,,
,,,,,,651aeac562599893a66f28cc,676192165fb32c2e1fb7aee6,67d1ab83b2c7d3f95cede32a,2025-03-12_16h43.08.611,Tarea de decisión léxica,2024.2.5,Win32,144.9275362,,,,,,,,,,,,,,,,,,,,,,,435.2595,436.1446,a,1,0.2222,,0.2222,1,436.1446,436.6439,,,,,,119,MAS,WORD,DIS,150,pozo,,la,,436.6439,436.6439,0.269444444,-0.173611111,0,0,0,,0,216,216,118,1,hooy,,,,
,,,,,,651aeac562599893a66f28cc,676192165fb32c2e1fb7aee6,67d1ab83b2c7d3f95cede32a,2025-03-12_16h43.08.611,Tarea de decisión léxica,2024.2.5,Win32,144.9275362,,,,,,,,,,,,,,,,,,,,,,,436.6443,437.5816,a,1,0.2774,,0.2774,1,437.5816,438.0813,,,,,,249,FEM,WORD,AGR,150,clase,,la,,438.0814,438.0815,0.269444444,-0.173611111,0,0,0,,0,217,217,248,1,plane,,,,
,,,,,,651aeac562599893a66f28cc,676192165fb32c2e1fb7aee6,67d1ab83b2c7d3f95cede32a,2025-03-12_16h43.08.611,Tarea de decisión léxica,2024.2.5,Win32,144.9275362,,,,,,,,,,,,,,,,,,,,,,,438.0818,438.9978,a,1,0.2549,,0.2549,1,438.9978,439.4981,,,,,,465,FEM,WORD,AGR,150,aguja,,la,,439.4984,439.4989,0.269444444,-0.173611111,0,0,0,,0,218,218,464,1,asuba,,,,
,,,,,,651aeac562599893a66f28cc,676192165fb32c2e1fb7aee6,67d1ab83b2c7d3f95cede32a,2025-03-12_16h43.08.611,Tarea de decisión léxica,2024.2.5,Win32,144.9275362,,,,,,,,,,,,,,,,,,,,,,,439.4992,440.658,a,0,0.5053,,0.5053,0,440.6583,441.1577,,,,,,292,FEM,NOWORD,DIS,150,mesta,,el,,441.1577,441.1578,0.269444444,-0.173611111,0,0,0,,0,219,219,291,1,pista,,,,
,,,,,,651aeac562599893a66f28cc,676192165fb32c2e1fb7aee6,67d1ab83b2c7d3f95cede32a,2025-03-12_16h43.08.611,Tarea de decisión léxica,2024.2.5,Win32,144.9275362,,,,,,,,,,,,,,,,,,,,,,,441.1582,442.401,l,1,0.5885,,0.5885,1,442.4013,442.9018,,,,,,92,FEM,NOWORD,DIS,150,sava,,el,,442.9019,442.9019,0.269444444,-0.173611111,0,0,0,,0,220,220,91,1,taza,,,,
,,,,,,651aeac562599893a66f28cc,676192165fb32c2e1fb7aee6,67d1ab83b2c7d3f95cede32a,2025-03-12_16h43.08.611,Tarea de decisión léxica,2024.2.5,Win32,144.9275362,,,,,,,,,,,,,,,,,,,,,,,442.9023,444.0058,l,1,0.4423,,0.4423,1,444.0059,444.5053,,,,,,220,FEM,NOWORD,DIS,150,miva,,el,,444.5053,444.5054,0.269444444,-0.173611111,0,0,0,,0,221,221,219,1,pipa,,,,
,,,,,,651aeac562599893a66f28cc,676192165fb32c2e1fb7aee6,67d1ab83b2c7d3f95cede32a,2025-03-12_16h43.08.611,Tarea de decisión léxica,2024.2.5,Win32,144.9275362,,,,,,,,,,,,,,,,,,,,,,,444.5057,445.6026,a,1,0.4377,,0.4377,1,445.6026,446.1023,,,,,,53,FEM,WORD,AGR,150,boda,,la,,446.1023,446.1023,0.269444444,-0.173611111,0,0,0,,0,222,222,52,1,rora,,,,
,,,,,,651aeac562599893a66f28cc,676192165fb32c2e1fb7aee6,67d1ab83b2c7d3f95cede32a,2025-03-12_16h43.08.611,Tarea de decisión léxica,2024.2.5,Win32,144.9275362,,,,,,,,,,,,,,,,,,,,,,,446.1027,447.1024,a,0,0.3454,,0.3454,0,447.1028,447.6023,,,,,,446,MAS,NOWORD,AGR,150,ascor,,el,,447.6026,447.6029,0.269444444,-0.173611111,0,0,0,,0,223,223,445,1,actor,,,,
,,,,,,651aeac562599893a66f28cc,676192165fb32c2e1fb7aee6,67d1ab83b2c7d3f95cede32a,2025-03-12_16h43.08.611,Tarea de decisión léxica,2024.2.5,Win32,144.9275362,,,,,,,,,,,,,,,,,,,,,,,447.6032,448.6799,a,1,0.4109,,0.4109,1,448.6802,449.1794,,,,,,309,FEM,WORD,AGR,150,silla,,la,,449.1795,449.1796,0.269444444,-0.173611111,0,0,0,,0,224,224,308,1,tirra,,,,
,,,,,,651aeac562599893a66f28cc,676192165fb32c2e1fb7aee6,67d1ab83b2c7d3f95cede32a,2025-03-12_16h43.08.611,Tarea de decisión léxica,2024.2.5,Win32,144.9275362,,,,,,,,,,,,,,,,,,,,,,,449.1799,450.2483,a,1,0.4087,,0.4087,1,450.2484,450.7481,,,,,,261,MAS,WORD,AGR,150,sitio,,el,,450.7482,450.7482,0.269444444,-0.173611111,0,0,0,,0,225,225,260,1,titio,,,,
,,,,,,651aeac562599893a66f28cc,676192165fb32c2e1fb7aee6,67d1ab83b2c7d3f95cede32a,2025-03-12_16h43.08.611,Tarea de decisión léxica,2024.2.5,Win32,144.9275362,,,,,,,,,,,,,,,,,,,,,,,450.7486,451.8601,l,1,0.4521,,0.4521,1,451.8601,452.3595,,,,,,356,FEM,NOWORD,DIS,150,bepla,,el,,452.3595,452.3595,0.269444444,-0.173611111,0,0,0,,0,226,226,355,1,regla,,,,
,,,,,,651aeac562599893a66f28cc,676192165fb32c2e1fb7aee6,67d1ab83b2c7d3f95cede32a,2025-03-12_16h43.08.611,Tarea de decisión léxica,2024.2.5,Win32,144.9275362,,,,,,,,,,,,,,,,,,,,,,,452.3599,453.561,l,1,0.5419,,0.5419,1,453.561,454.0607,,,,,,272,FEM,NOWORD,DIS,150,refal,,el,,454.0611,454.0615,0.269444444,-0.173611111,0,0,0,,0,227,227,271,1,señal,,,,
,,,,,,651aeac562599893a66f28cc,676192165fb32c2e1fb7aee6,67d1ab83b2c7d3f95cede32a,2025-03-12_16h43.08.611,Tarea de decisión léxica,2024.2.5,Win32,144.9275362,,,,,,,,,,,,,,,,,,,,,,,454.0617,455.0887,a,1,0.3675,,0.3675,1,455.0888,455.5886,,,,,,79,FEM,WORD,DIS,150,piel,,el,,455.5886,455.5887,0.269444444,-0.173611111,0,0,0,,0,228,228,78,1,ciel,,,,
,,,,,,651aeac562599893a66f28cc,676192165fb32c2e1fb7aee6,67d1ab83b2c7d3f95cede32a,2025-03-12_16h43.08.611,Tarea de decisión léxica,2024.2.5,Win32,144.9275362,,,,,,,,,,,,,,,,,,,,,,,455.589,456.607,a,1,0.3563,,0.3563,1,456.6071,457.1035,,,,,,215,FEM,WORD,DIS,150,raíz,,el,,457.1035,457.1036,0.269444444,-0.173611111,0,0,0,,0,229,229,214,1,raua,,,,
,,,,,,651aeac562599893a66f28cc,676192165fb32c2e1fb7aee6,67d1ab83b2c7d3f95cede32a,2025-03-12_16h43.08.611,Tarea de decisión léxica,2024.2.5,Win32,144.9275362,,,,,,,,,,,,,,,,,,,,,,,457.104,458.1234,a,1,0.3612,,0.3612,1,458.1235,458.6236,,,,,,451,FEM,WORD,DIS,150,fruta,,el,,458.6236,458.6236,0.269444444,-0.173611111,0,0,0,,0,230,230,450,1,clita,,,,
,,,,,,651aeac562599893a66f28cc,676192165fb32c2e1fb7aee6,67d1ab83b2c7d3f95cede32a,2025-03-12_16h43.08.611,Tarea de decisión léxica,2024.2.5,Win32,144.9275362,,,,,,,,,,,,,,,,,,,,,,,458.624,459.6382,l,1,0.3549,,0.3549,1,459.6382,460.1375,,,,,,108,MAS,NOWORD,DIS,150,raot,,la,,460.1375,460.1375,0.269444444,-0.173611111,0,0,0,,0,231,231,107,1,saco,,,,
,,,,,,651aeac562599893a66f28cc,676192165fb32c2e1fb7aee6,67d1ab83b2c7d3f95cede32a,2025-03-12_16h43.08.611,Tarea de decisión léxica,2024.2.5,Win32,144.9275362,,,,,,,,,,,,,,,,,,,,,,,460.1378,461.1442,a,0,0.3474,,0.3474,0,461.1445,461.6443,,,,,,80,FEM,NOWORD,DIS,150,ciel,,el,,461.6447,461.6451,0.269444444,-0.173611111,0,0,0,,0,232,232,79,1,piel,,,,
,,,,,,651aeac562599893a66f28cc,676192165fb32c2e1fb7aee6,67d1ab83b2c7d3f95cede32a,2025-03-12_16h43.08.611,Tarea de decisión léxica,2024.2.5,Win32,144.9275362,,,,,,,,,,,,,,,,,,,,,,,461.6454,462.6583,a,1,0.3547,,0.3547,1,462.6585,463.1586,,,,,,321,MAS,WORD,AGR,150,banco,,el,,463.1586,463.1587,0.269444444,-0.173611111,0,0,0,,0,233,233,320,1,rarco,,,,
,,,,,,651aeac562599893a66f28cc,676192165fb32c2e1fb7aee6,67d1ab83b2c7d3f95cede32a,2025-03-12_16h43.08.611,Tarea de decisión léxica,2024.2.5,Win32,144.9275362,,,,,,,,,,,,,,,,,,,,,,,463.1591,464.1305,a,1,0.3122,,0.3122,1,464.1306,464.6304,,,,,,55,MAS,WORD,DIS,150,gato,,la,,464.6304,464.6305,0.269444444,-0.173611111,0,0,0,,0,234,234,54,1,jado,,,,
,,,,,,651aeac562599893a66f28cc,676192165fb32c2e1fb7aee6,67d1ab83b2c7d3f95cede32a,2025-03-12_16h43.08.611,Tarea de decisión léxica,2024.2.5,Win32,144.9275362,,,,,,,,,,,,,,,,,,,,,,,464.6308,465.7354,a,1,0.4452,,0.4452,1,465.7354,466.2349,,,,,,9,MAS,WORD,AGR,150,tipo,,el,,466.2349,466.235,0.269444444,-0.173611111,0,0,0,,0,235,235,8,1,sibo,,,,
,,,,,,651aeac562599893a66f28cc,676192165fb32c2e1fb7aee6,67d1ab83b2c7d3f95cede32a,2025-03-12_16h43.08.611,Tarea de decisión léxica,2024.2.5,Win32,144.9275362,,,,,,,,,,,,,,,,,,,,,,,466.2354,467.4223,l,1,0.5279,,0.5279,1,467.4223,467.9221,,,,,,450,FEM,NOWORD,AGR,150,crusa,,la,,467.9221,467.9222,0.269444444,-0.173611111,0,0,0,,0,236,236,449,1,pluma,,,,
,,,,,,651aeac562599893a66f28cc,676192165fb32c2e1fb7aee6,67d1ab83b2c7d3f95cede32a,2025-03-12_16h43.08.611,Tarea de decisión léxica,2024.2.5,Win32,144.9275362,,,,,,,,,,,,,,,,,,,,,,,467.9226,469.0126,l,1,0.4307,,0.4307,1,469.0126,469.5124,,,,,,30,MAS,NOWORD,AGR,150,pono,,el,,469.5128,469.5132,0.269444444,-0.173611111,0,0,0,,0,237,237,29,1,modo,,,,
,,,,,,651aeac562599893a66f28cc,676192165fb32c2e1fb7aee6,67d1ab83b2c7d3f95cede32a,2025-03-12_16h43.08.611,Tarea de decisión léxica,2024.2.5,Win32,144.9275362,,,,,,,,,,,,,,,,,,,,,,,469.5134,470.5963,l,1,0.4234,,0.4234,1,470.5964,471.0963,,,,,,380,MAS,NOWORD,DIS,150,tunso,,la,,471.0963,471.0964,0.269444444,-0.173611111,0,0,0,,0,238,238,379,1,turno,,,,
,,,,,,651aeac562599893a66f28cc,676192165fb32c2e1fb7aee6,67d1ab83b2c7d3f95cede32a,2025-03-12_16h43.08.611,Tarea de decisión léxica,2024.2.5,Win32,144.9275362,,,,,,,,,,,,,,,,,,,,,,,471.0967,472.1727,l,1,0.4172,,0.4172,1,472.1728,472.6727,,,,,,202,FEM,NOWORD,AGR,150,cusa,,la,,472.6727,472.6728,0.269444444,-0.173611111,0,0,0,,0,239,239,201,1,cuna,,,,
,,,,,,651aeac562599893a66f28cc,676192165fb32c2e1fb7aee6,67d1ab83b2c7d3f95cede32a,2025-03-12_16h43.08.611,Tarea de decisión léxica,2024.2.5,Win32,144.9275362,,,,,,,,,,,,,,,,,,,,,,,472.6732,473.846,l,1,0.5135,,0.5135,1,473.846,474.3431,,,,,,186,MAS,NOWORD,AGR,150,raol,,el,,474.3431,474.3432,0.269444444,-0.173611111,0,0,0,,0,240,240,185,1,baúl,,,,
,,,,,,651aeac562599893a66f28cc,676192165fb32c2e1fb7aee6,67d1ab83b2c7d3f95cede32a,2025-03-12_16h43.08.611,Tarea de decisión léxica,2024.2.5,Win32,144.9275362,,,,,,,,,,,,,,,,,,,,,,,474.3435,475.478,l,1,0.4723,,0.4723,1,475.478,475.9777,,,,,,188,MAS,NOWORD,DIS,150,suto,,la,,475.9778,475.9779,0.269444444,-0.173611111,0,0,0,,0,241,241,187,1,mito,,,,
,,,,,,651aeac562599893a66f28cc,676192165fb32c2e1fb7aee6,67d1ab83b2c7d3f95cede32a,2025-03-12_16h43.08.611,Tarea de decisión léxica,2024.2.5,Win32,144.9275362,,,,,,,,,,,,,,,,,,,,,,,475.9783,476.9511,l,1,0.3137,,0.3137,1,476.9511,477.451,,,,,,36,MAS,NOWORD,DIS,150,meno,,la,,477.4515,477.4519,0.269444444,-0.173611111,0,0,0,,0,242,242,35,1,pelo,,,,
,,,,,,651aeac562599893a66f28cc,676192165fb32c2e1fb7aee6,67d1ab83b2c7d3f95cede32a,2025-03-12_16h43.08.611,Tarea de decisión léxica,2024.2.5,Win32,144.9275362,,,,,,,,,,,,,,,,,,,,,,,477.4522,478.6447,l,1,0.5348,,0.5348,1,478.6447,479.1445,,,,,,336,FEM,NOWORD,DIS,150,pesta,,el,,479.1445,479.1446,0.269444444,-0.173611111,0,0,0,,0,243,243,335,1,costa,,,,
,,,,,,651aeac562599893a66f28cc,676192165fb32c2e1fb7aee6,67d1ab83b2c7d3f95cede32a,2025-03-12_16h43.08.611,Tarea de decisión léxica,2024.2.5,Win32,144.9275362,,,,,,,,,,,,,,,,,,,,,,,479.145,480.1727,l,1,0.3683,,0.3683,1,480.1727,480.6726,,,,,,34,FEM,NOWORD,AGR,150,loda,,la,,480.6726,480.6727,0.269444444,-0.173611111,0,0,0,,0,244,244,33,1,boca,,,,
,,,,,,651aeac562599893a66f28cc,676192165fb32c2e1fb7aee6,67d1ab83b2c7d3f95cede32a,2025-03-12_16h43.08.611,Tarea de decisión léxica,2024.2.5,Win32,144.9275362,,,,,,,,,,,,,,,,,,,,,,,480.673,481.6241,a,1,0.2912,,0.2912,1,481.6241,482.1238,,,,,,455,MAS,WORD,DIS,150,reino,,la,,482.1238,482.1238,0.269444444,-0.173611111,0,0,0,,0,245,245,454,1,riaso,,,,
,,,,,,651aeac562599893a66f28cc,676192165fb32c2e1fb7aee6,67d1ab83b2c7d3f95cede32a,2025-03-12_16h43.08.611,Tarea de decisión léxica,2024.2.5,Win32,144.9275362,,,,,,,,,,,,,,,,,,,,,,,482.1241,483.1905,l,1,0.405,,0.405,1,483.1905,483.6862,,,,,,88,MAS,NOWORD,DIS,150,damo,,la,,483.6862,483.6864,0.269444444,-0.173611111,0,0,0,,0,246,246,87,1,vaso,,,,
,,,,,,651aeac562599893a66f28cc,676192165fb32c2e1fb7aee6,67d1ab83b2c7d3f95cede32a,2025-03-12_16h43.08.611,Tarea de decisión léxica,2024.2.5,Win32,144.9275362,,,,,,,,,,,,,,,,,,,,,,,483.6867,484.8682,a,1,0.5229,,0.5229,1,484.8683,485.3667,,,,,,163,FEM,WORD,DIS,150,fama,,el,,485.3672,485.3675,0.269444444,-0.173611111,0,0,0,,0,247,247,162,1,laga,,,,
,,,,,,651aeac562599893a66f28cc,676192165fb32c2e1fb7aee6,67d1ab83b2c7d3f95cede32a,2025-03-12_16h43.08.611,Tarea de decisión léxica,2024.2.5,Win32,144.9275362,,,,,,,,,,,,,,,,,,,,,,,485.3678,486.4226,l,1,0.3951,,0.3951,1,486.4226,486.9224,,,,,,302,FEM,NOWORD,AGR,150,ranga,,la,,486.9224,486.9224,0.269444444,-0.173611111,0,0,0,,0,248,248,301,1,banda,,,,
,,,,,,651aeac562599893a66f28cc,676192165fb32c2e1fb7aee6,67d1ab83b2c7d3f95cede32a,2025-03-12_16h43.08.611,Tarea de decisión léxica,2024.2.5,Win32,144.9275362,,,,,,,,,,,,,,,,,,,,,,,486.9228,487.9711,l,1,0.3891,,0.3891,1,487.9711,488.4709,,,,,,346,FEM,NOWORD,AGR,150,anera,,la,,488.4709,488.471,0.269444444,-0.173611111,0,0,0,,0,249,249,345,1,arena,,,,
,,,,,,651aeac562599893a66f28cc,676192165fb32c2e1fb7aee6,67d1ab83b2c7d3f95cede32a,2025-03-12_16h43.08.611,Tarea de decisión léxica,2024.2.5,Win32,144.9275362,,,,,,,,,,,,,,,,,,,,,,,488.4714,489.5544,a,1,0.429,,0.429,1,489.5545,490.0544,,,,,,173,FEM,WORD,AGR,150,rosa,,la,,490.0544,490.0544,0.269444444,-0.173611111,0,0,0,,0,250,250,172,1,boma,,,,
,,,,,,651aeac562599893a66f28cc,676192165fb32c2e1fb7aee6,67d1ab83b2c7d3f95cede32a,2025-03-12_16h43.08.611,Tarea de decisión léxica,2024.2.5,Win32,144.9275362,,,,,,,,,,,,,,,,,,,,,,,490.0549,491.1667,a,1,0.4524,,0.4524,1,491.1667,491.6668,,,,,,93,FEM,WORD,AGR,150,bola,,la,,491.6672,491.6676,0.269444444,-0.173611111,0,0,0,,0,251,251,92,1,rona,,,,
,,,,,,651aeac562599893a66f28cc,676192165fb32c2e1fb7aee6,67d1ab83b2c7d3f95cede32a,2025-03-12_16h43.08.611,Tarea de decisión léxica,2024.2.5,Win32,144.9275362,,,,,,,,,,,,,,,,,,,,,,,491.6679,492.7908,l,1,0.4648,,0.4648,1,492.7909,493.2906,,,,,,428,FEM,NOWORD,DIS,150,oseva,,el,,493.2906,493.2907,0.269444444,-0.173611111,0,0,0,,0,252,252,427,1,oreja,,,,
,,,,,,651aeac562599893a66f28cc,676192165fb32c2e1fb7aee6,67d1ab83b2c7d3f95cede32a,2025-03-12_16h43.08.611,Tarea de decisión léxica,2024.2.5,Win32,144.9275362,,,,,,,,,,,,,,,,,,,,,,,493.291,494.2769,l,1,0.3266,,0.3266,1,494.277,494.7744,,,,,,290,FEM,NOWORD,AGR,150,bumpa,,la,,494.7744,494.7744,0.269444444,-0.173611111,0,0,0,,0,253,253,289,1,bomba,,,,
,,,,,,651aeac562599893a66f28cc,676192165fb32c2e1fb7aee6,67d1ab83b2c7d3f95cede32a,2025-03-12_16h43.08.611,Tarea de decisión léxica,2024.2.5,Win32,144.9275362,,,,,,,,,,,,,,,,,,,,,,,494.775,495.7699,a,1,0.3334,,0.3334,1,495.7699,496.2698,,,,,,3,FEM,WORD,DIS,150,vida,,el,,496.2698,496.2699,0.269444444,-0.173611111,0,0,0,,0,254,254,2,1,dica,,,,
,,,,,,651aeac562599893a66f28cc,676192165fb32c2e1fb7aee6,67d1ab83b2c7d3f95cede32a,2025-03-12_16h43.08.611,Tarea de decisión léxica,2024.2.5,Win32,144.9275362,,,,,,,,,,,,,,,,,,,,,,,496.2703,497.3464,l,1,0.4168,,0.4168,1,497.3464,497.8462,,,,,,468,MAS,NOWORD,DIS,150,peiso,,la,,497.8462,497.8463,0.269444444,-0.173611111,0,0,0,,0,255,255,467,1,piano,,,,
,,,,,,651aeac562599893a66f28cc,676192165fb32c2e1fb7aee6,67d1ab83b2c7d3f95cede32a,2025-03-12_16h43.08.611,Tarea de decisión léxica,2024.2.5,Win32,144.9275362,,,,,,,,,,,,,,,,,,,,,,,497.8467,498.881,a,1,0.3749,,0.3749,1,498.881,499.3785,,,,,,251,MAS,WORD,DIS,150,señor,,la,,499.3789,499.3793,0.269444444,-0.173611111,0,0,0,,0,256,256,250,1,refor,,,,
,,,,,,651aeac562599893a66f28cc,676192165fb32c2e1fb7aee6,67d1ab83b2c7d3f95cede32a,2025-03-12_16h43.08.611,Tarea de decisión léxica,2024.2.5,Win32,144.9275362,,,,,,,,,,,,,,,,,,,,,,,499.3795,500.4853,l,1,0.4445,,0.4445,1,500.4853,500.9852,,,,,,174,FEM,NOWORD,AGR,150,boma,,la,,500.9853,500.9853,0.269444444,-0.173611111,0,0,0,,0,257,257,173,1,rosa,,,,
,,,,,,651aeac562599893a66f28cc,676192165fb32c2e1fb7aee6,67d1ab83b2c7d3f95cede32a,2025-03-12_16h43.08.611,Tarea de decisión léxica,2024.2.5,Win32,144.9275362,,,,,,,,,,,,,,,,,,,,,,,500.9857,502.0479,l,1,0.4027,,0.4027,1,502.048,502.5476,,,,,,258,FEM,NOWORD,AGR,150,asama,,la,,502.5478,502.5478,0.269444444,-0.173611111,0,0,0,,0,258,258,257,1,amiga,,,,
,,,,,,651aeac562599893a66f28cc,676192165fb32c2e1fb7aee6,67d1ab83b2c7d3f95cede32a,2025-03-12_16h43.08.611,Tarea de decisión léxica,2024.2.5,Win32,144.9275362,,,,,,,,,,,,,,,,,,,,,,,502.5483,503.6816,a,1,0.4741,,0.4741,1,503.6816,504.1799,,,,,,183,FEM,WORD,DIS,150,raya,,el,,504.18,504.18,0.269444444,-0.173611111,0,0,0,,0,259,259,182,1,raad,,,,
,,,,,,651aeac562599893a66f28cc,676192165fb32c2e1fb7aee6,67d1ab83b2c7d3f95cede32a,2025-03-12_16h43.08.611,Tarea de decisión léxica,2024.2.5,Win32,144.9275362,,,,,,,,,,,,,,,,,,,,,,,504.1803,505.1451,l,1,0.3057,,0.3057,1,505.1452,505.6448,,,,,,120,MAS,NOWORD,DIS,150,hooy,,la,,505.6449,505.645,0.269444444,-0.173611111,0,0,0,,0,260,260,119,1,pozo,,,,
,,,,,,651aeac562599893a66f28cc,676192165fb32c2e1fb7aee6,67d1ab83b2c7d3f95cede32a,2025-03-12_16h43.08.611,Tarea de decisión léxica,2024.2.5,Win32,144.9275362,,,,,,,,,,,,,,,,,,,,,,,505.6453,506.791,a,1,0.4861,,0.4861,1,506.7911,507.2911,,,,,,327,MAS,WORD,DIS,150,fondo,,la,,507.2914,507.2918,0.269444444,-0.173611111,0,0,0,,0,261,261,326,1,lendo,,,,
,,,,,,651aeac562599893a66f28cc,676192165fb32c2e1fb7aee6,67d1ab83b2c7d3f95cede32a,2025-03-12_16h43.08.611,Tarea de decisión léxica,2024.2.5,Win32,144.9275362,,,,,,,,,,,,,,,,,,,,,,,507.292,508.3535,l,1,0.4028,,0.4028,1,508.3535,508.8533,,,,,,40,MAS,NOWORD,DIS,150,redo,,la,,508.8533,508.8534,0.269444444,-0.173611111,0,0,0,,0,262,262,39,1,voto,,,,
,,,,,,651aeac562599893a66f28cc,676192165fb32c2e1fb7aee6,67d1ab83b2c7d3f95cede32a,2025-03-12_16h43.08.611,Tarea de decisión léxica,2024.2.5,Win32,144.9275362,,,,,,,,,,,,,,,,,,,,,,,508.8538,509.9368,l,1,0.4237,,0.4237,1,509.9368,510.4367,,,,,,244,MAS,NOWORD,DIS,150,asamo,,la,,510.4367,510.4367,0.269444444,-0.173611111,0,0,0,,0,263,263,243,1,amigo,,,,
,,,,,,651aeac562599893a66f28cc,676192165fb32c2e1fb7aee6,67d1ab83b2c7d3f95cede32a,2025-03-12_16h43.08.611,Tarea de decisión léxica,2024.2.5,Win32,144.9275362,,,,,,,,,,,,,,,,,,,,,,,510.4371,511.4299,l,1,0.3333,,0.3333,1,511.43,511.9299,,,,,,278,MAS,NOWORD,AGR,150,vuemo,,el,,511.9299,511.93,0.269444444,-0.173611111,0,0,0,,0,264,264,277,1,fuego,,,,
