counterbalancing_condition,consent_prescreening.block_1/language_disorder,consent_prescreening.block_1/gender,consent_prescreening.block_1/declare_consent,consent_prescreening.block_1/age_years,consent_prescreening.block_1/first_language,PROLIFIC_PID,STUDY_ID,SESSION_ID,date,expName,psychopyVersion,OS,frameRate,check_prescreening_answers.started,check_prescreening_answers.stopped,Instructions.started,Instructions.stopped,instr_done_keyboard.keys,instr_done_touch.x,instr_done_touch.y,instr_done_touch.leftButton,instr_done_touch.midButton,instr_done_touch.rightButton,instr_done_touch.clicked_name,instruction_pages.thisRepN,instruction_pages.thisTrialN,instruction_pages.thisN,instruction_pages.thisIndex,instruction_pages.ran,pageN,phase,instruct_text,has_image,instruct_image,presentTrial.started,presentTrial.stopped,response.keys,response.corr,response.rt,response.duration,rt,corr,feedback.started,feedback.stopped,practice_trials.thisRepN,practice_trials.thisTrialN,practice_trials.thisN,practice_trials.thisIndex,practice_trials.ran,TrialID,Gender,StimulusType,Condition,PrimeDuration,Prime,len,Flanker,corrAns,Break.started,Break.stopped,break_done_touch.x,break_done_touch.y,break_done_touch.leftButton,break_done_touch.midButton,break_done_touch.rightButton,break_done_keyboard.keys,experiment_trials.thisRepN,experiment_trials.thisTrialN,experiment_trials.thisN,experiment_trials.thisIndex,experiment_trials.ran,PairedWith,break_done_touch.clicked_name,break_done_keyboard.rt,break_done_keyboard.duration,End.started,End.stopped
3,"[""none""]",F,"[""consent_given"",""read_info"",""comfortable"",""over_18""]",29,"[""spanish""]",66cb185ac5d99ffdcc950900,676192165fb32c2e1fb7aee6,67d16b5f342232e9209cc11c,2025-03-12_16h34.32.317,Tarea de decisión léxica,2024.2.5,Win32,60.97560976,,,,,,,,,,,,,,,,,,,,,,,,,,,,,,,,,,,,,,,,,,,,,,,,,,,,,,,,,,,,,,,,
,,,,,,66cb185ac5d99ffdcc950900,676192165fb32c2e1fb7aee6,67d16b5f342232e9209cc11c,2025-03-12_16h34.32.317,Tarea de decisión léxica,2024.2.5,Win32,60.97560976,20.5328,20.5333,,,,,,,,,,,,,,,,,,,,,,,,,,,,,,,,,,,,,,,,,,,,,,,,,,,,,,,,,,,,,,
,,,,,,66cb185ac5d99ffdcc950900,676192165fb32c2e1fb7aee6,67d16b5f342232e9209cc11c,2025-03-12_16h34.32.317,Tarea de decisión léxica,2024.2.5,Win32,60.97560976,,,20.6074,21.5249,,-0.000173632,-0.359259288,1,0,0,instr_done_button,0,0,0,0,1,1,instructions,"INSTRUCCIONES
Va a realizar una prueba de decisión léxica. Desde el comienzo de la prueba mire siempre al centro de la pantalla. Se presentará una serie de cadenas de letras, una a la vez, en la pantalla. Su tarea consiste en determinar si cada cadena de letras constituye una palabra real en español o una no-palabra (una secuencia de letras que no constituye una palabra real). 

Pulse la tecla ESPACIO para continuar.",0,keyboardresponseWN.png,,,,,,,,,,,,,,,,,,,,,,,,,,,,,,,,,,,,,,,,,,,
,,,,,,66cb185ac5d99ffdcc950900,676192165fb32c2e1fb7aee6,67d16b5f342232e9209cc11c,2025-03-12_16h34.32.317,Tarea de decisión léxica,2024.2.5,Win32,60.97560976,,,21.5287,21.7282,,-0.000173632,-0.359259288,1,0,0,instr_done_button,0,1,1,1,1,2,instructions,"El procedimiento es el siguiente: Aparecerán dos barras verticales posicionadas en el centro de la pantalla, separadas por un pequeño espacio.Por favor, enfoque su atención en el espacio entre las barras. Esto preparará sus ojos para la siguiente cadena de letras, que aparecerá entre las dos barras durante un instante.

Pulse la tecla ESPACIO para continuar.",0,keyboardresponseWN.png,,,,,,,,,,,,,,,,,,,,,,,,,,,,,,,,,,,,,,,,,,,
,,,,,,66cb185ac5d99ffdcc950900,676192165fb32c2e1fb7aee6,67d16b5f342232e9209cc11c,2025-03-12_16h34.32.317,Tarea de decisión léxica,2024.2.5,Win32,60.97560976,,,21.7312,21.9054,,-0.000173632,-0.359259288,1,0,0,instr_done_button,0,2,2,2,1,3,instructions,"En el teclado de su dispositivo, pulse la tecla ""A"" si la cadena de letras es una palabra real en español (por ejemplo: ""mano"") y la tecla ""L"" si la cadena de letras es una no-palabra (por ejemplo: ""minu"").
Pulse la tecla ESPACIO para continuar.",1,keyboardresponseWN.png,,,,,,,,,,,,,,,,,,,,,,,,,,,,,,,,,,,,,,,,,,,
,,,,,,66cb185ac5d99ffdcc950900,676192165fb32c2e1fb7aee6,67d16b5f342232e9209cc11c,2025-03-12_16h34.32.317,Tarea de decisión léxica,2024.2.5,Win32,60.97560976,,,21.9134,22.1048,,-0.000173632,-0.359259288,1,0,0,instr_done_button,0,3,3,3,1,4,instructions,"Es muy importante que responda con la mayor rapidez y precisión posibles. Si no responde dentro de 2 segundos, aparecerá el mensaje ""Muy lento"" y el experimento pasará a la siguiente palabra. Inmediatamente después de su respuesta se indicará si fue correcta o no. Los primeros 15 intentos serán de práctica y habrá dos descansos durante la prueba.

Pulse la tecla ESPACIO  para iniciar la parte de práctica.",0,keyboardresponseWN.png,,,,,,,,,,,,,,,,,,,,,,,,,,,,,,,,,,,,,,,,,,,
,,,,,,66cb185ac5d99ffdcc950900,676192165fb32c2e1fb7aee6,67d16b5f342232e9209cc11c,2025-03-12_16h34.32.317,Tarea de decisión léxica,2024.2.5,Win32,60.97560976,,,,,,,,,,,,,,,,,,,,,,22.1457,23.3985,l,1,0.5668,,0.5668,1,23.3998,23.8894,0,0,0,1,1,1002,FEM,NOWORD,DIS,150,mabo,4,el,a,,,,,,,,,,,,,,,,,,,
,,,,,,66cb185ac5d99ffdcc950900,676192165fb32c2e1fb7aee6,67d16b5f342232e9209cc11c,2025-03-12_16h34.32.317,Tarea de decisión léxica,2024.2.5,Win32,60.97560976,,,,,,,,,,,,,,,,,,,,,,23.8966,24.8892,a,0,0.3165,,0.3165,0,24.8918,25.3884,0,1,1,4,1,1005,MAS,NOWORD,DIS,150,nobad,5,la,a,,,,,,,,,,,,,,,,,,,
,,,,,,66cb185ac5d99ffdcc950900,676192165fb32c2e1fb7aee6,67d16b5f342232e9209cc11c,2025-03-12_16h34.32.317,Tarea de decisión léxica,2024.2.5,Win32,60.97560976,,,,,,,,,,,,,,,,,,,,,,25.3919,26.3721,a,1,0.3197,,0.3197,1,26.3744,26.8613,0,2,2,8,1,1009,FEM,WORD,AGR,150,viejo,5,la,l,,,,,,,,,,,,,,,,,,,
,,,,,,66cb185ac5d99ffdcc950900,676192165fb32c2e1fb7aee6,67d16b5f342232e9209cc11c,2025-03-12_16h34.32.317,Tarea de decisión léxica,2024.2.5,Win32,60.97560976,,,,,,,,,,,,,,,,,,,,,,26.8632,27.6755,l,1,0.1468,,0.1468,1,27.6756,28.1753,0,3,3,0,1,1001,FEM,NOWORD,AGR,150,croz,4,la,a,,,,,,,,,,,,,,,,,,,
,,,,,,66cb185ac5d99ffdcc950900,676192165fb32c2e1fb7aee6,67d16b5f342232e9209cc11c,2025-03-12_16h34.32.317,Tarea de decisión léxica,2024.2.5,Win32,60.97560976,,,,,,,,,,,,,,,,,,,,,,28.1783,29.0256,a,0,0.1897,,0.1897,0,29.0289,29.5238,0,4,4,3,1,1004,FEM,NOWORD,AGR,150,bireo,5,la,a,,,,,,,,,,,,,,,,,,,
,,,,,,66cb185ac5d99ffdcc950900,676192165fb32c2e1fb7aee6,67d16b5f342232e9209cc11c,2025-03-12_16h34.32.317,Tarea de decisión léxica,2024.2.5,Win32,60.97560976,,,,,,,,,,,,,,,,,,,,,,29.5289,31.6412,a,1,1.4365,,1.4365,1,31.6422,32.1449,0,5,5,6,1,1007,MAS,WORD,DIS,150,masa,4,la,l,,,,,,,,,,,,,,,,,,,
,,,,,,66cb185ac5d99ffdcc950900,676192165fb32c2e1fb7aee6,67d16b5f342232e9209cc11c,2025-03-12_16h34.32.317,Tarea de decisión léxica,2024.2.5,Win32,60.97560976,,,,,,,,,,,,,,,,,,,,,,32.1482,33.0984,l,1,0.2726,,0.2726,1,33.0988,33.595,0,6,6,2,1,1003,FEM,NOWORD,DIS,150,muvor,5,el,a,,,,,,,,,,,,,,,,,,,
,,,,,,66cb185ac5d99ffdcc950900,676192165fb32c2e1fb7aee6,67d16b5f342232e9209cc11c,2025-03-12_16h34.32.317,Tarea de decisión léxica,2024.2.5,Win32,60.97560976,,,,,,,,,,,,,,,,,,,,,,33.598,34.3897,l,0,0.1095,,0.1095,0,34.3918,34.8954,0,7,7,5,1,1006,FEM,WORD,AGR,150,cara,4,la,l,,,,,,,,,,,,,,,,,,,
,,,,,,66cb185ac5d99ffdcc950900,676192165fb32c2e1fb7aee6,67d16b5f342232e9209cc11c,2025-03-12_16h34.32.317,Tarea de decisión léxica,2024.2.5,Win32,60.97560976,,,,,,,,,,,,,,,,,,,,,,34.9019,35.6393,a,1,0.0699,,0.0699,1,35.6407,36.1377,0,8,8,7,1,1008,MAS,WORD,DIS,150,frío,4,la,l,,,,,,,,,,,,,,,,,,,
,,,,,,66cb185ac5d99ffdcc950900,676192165fb32c2e1fb7aee6,67d16b5f342232e9209cc11c,2025-03-12_16h34.32.317,Tarea de decisión léxica,2024.2.5,Win32,60.97560976,,,,,,,,,,,,,,,,,,,,,,36.1406,37.4806,a,1,0.6527,,0.6527,1,37.4808,37.9732,0,9,9,9,1,1010,MAS,WORD,DIS,150,video,5,la,l,,,,,,,,,,,,,,,,,,,
,,,,,,66cb185ac5d99ffdcc950900,676192165fb32c2e1fb7aee6,67d16b5f342232e9209cc11c,2025-03-12_16h34.32.317,Tarea de decisión léxica,2024.2.5,Win32,60.97560976,,,45.9069,46.5241,,0.038715299,-0.420370356,1,0,0,instr_done_button,,,,,,,,,,,46.6376,47.8537,a,0,0.5404,,0.5404,0,47.8564,48.3538,,,,,,262,MAS,NOWORD,AGR,150,titio,,el,,48.3548,48.3717,0.038715299,-0.420370356,0,0,0,,0,0,0,261,1,sitio,,,,,
,,,,,,66cb185ac5d99ffdcc950900,676192165fb32c2e1fb7aee6,67d16b5f342232e9209cc11c,2025-03-12_16h34.32.317,Tarea de decisión léxica,2024.2.5,Win32,60.97560976,,,,,,,,,,,,,,,,,,,,,,48.3771,49.8535,l,0,0.8019,,0.8019,0,49.854,50.3534,,,,,,389,MAS,WORD,AGR,150,cerdo,,el,,50.3536,50.3541,0.038715299,-0.420370356,0,0,0,,0,1,1,388,1,cenco,,,,,
,,,,,,66cb185ac5d99ffdcc950900,676192165fb32c2e1fb7aee6,67d16b5f342232e9209cc11c,2025-03-12_16h34.32.317,Tarea de decisión léxica,2024.2.5,Win32,60.97560976,,,,,,,,,,,,,,,,,,,,,,50.3593,53.0033,,0,,,0.8019,-1,53.0082,53.5043,,,,,,275,MAS,WORD,DIS,150,punto,,la,,53.5092,53.5116,0.038715299,-0.420370356,0,0,0,,0,2,2,274,1,musto,,,,,
,,,,,,66cb185ac5d99ffdcc950900,676192165fb32c2e1fb7aee6,67d16b5f342232e9209cc11c,2025-03-12_16h34.32.317,Tarea de decisión léxica,2024.2.5,Win32,60.97560976,,,,,,,,,,,,,,,,,,,,,,53.5137,55.3705,l,0,1.1842,,1.1842,0,55.3732,55.8701,,,,,,71,FEM,WORD,DIS,150,isla,,el,,55.8708,55.872,0.038715299,-0.420370356,0,0,0,,0,3,3,70,1,urla,,,,,
,,,,,,66cb185ac5d99ffdcc950900,676192165fb32c2e1fb7aee6,67d16b5f342232e9209cc11c,2025-03-12_16h34.32.317,Tarea de decisión léxica,2024.2.5,Win32,60.97560976,,,,,,,,,,,,,,,,,,,,,,55.8755,56.6441,l,0,0.1003,,0.1003,0,56.6443,57.1363,,,,,,191,FEM,WORD,DIS,150,pila,,el,,57.1369,57.138,0.038715299,-0.420370356,0,0,0,,0,4,4,190,1,bila,,,,,
,,,,,,66cb185ac5d99ffdcc950900,676192165fb32c2e1fb7aee6,67d16b5f342232e9209cc11c,2025-03-12_16h34.32.317,Tarea de decisión léxica,2024.2.5,Win32,60.97560976,,,,,,,,,,,,,,,,,,,,,,57.1405,58.2959,a,0,0.4963,,0.4963,0,58.2962,58.7872,,,,,,124,FEM,NOWORD,DIS,150,maba,,el,,58.7879,58.7888,0.038715299,-0.420370356,0,0,0,,0,5,5,123,1,flor,,,,,
,,,,,,66cb185ac5d99ffdcc950900,676192165fb32c2e1fb7aee6,67d16b5f342232e9209cc11c,2025-03-12_16h34.32.317,Tarea de decisión léxica,2024.2.5,Win32,60.97560976,,,,,,,,,,,,,,,,,,,,,,58.7927,60.171,a,0,0.7058,,0.7058,0,60.172,60.67,,,,,,14,FEM,NOWORD,AGR,150,nola,,la,,60.6709,60.6721,0.038715299,-0.420370356,0,0,0,,0,6,6,13,1,hora,,,,,
,,,,,,66cb185ac5d99ffdcc950900,676192165fb32c2e1fb7aee6,67d16b5f342232e9209cc11c,2025-03-12_16h34.32.317,Tarea de decisión léxica,2024.2.5,Win32,60.97560976,,,,,,,,,,,,,,,,,,,,,,60.6761,61.6693,a,0,0.3182,,0.3182,0,61.6697,62.1708,,,,,,244,MAS,NOWORD,DIS,150,asamo,,la,,62.1767,62.179,0.038715299,-0.420370356,0,0,0,,0,7,7,243,1,amigo,,,,,
,,,,,,66cb185ac5d99ffdcc950900,676192165fb32c2e1fb7aee6,67d16b5f342232e9209cc11c,2025-03-12_16h34.32.317,Tarea de decisión léxica,2024.2.5,Win32,60.97560976,,,,,,,,,,,,,,,,,,,,,,62.181,64.4552,a,1,1.5933,,1.5933,1,64.4574,64.9554,,,,,,463,FEM,WORD,DIS,150,cabra,,el,,64.9556,64.9566,0.038715299,-0.420370356,0,0,0,,0,8,8,462,1,matla,,,,,
,,,,,,66cb185ac5d99ffdcc950900,676192165fb32c2e1fb7aee6,67d16b5f342232e9209cc11c,2025-03-12_16h34.32.317,Tarea de decisión léxica,2024.2.5,Win32,60.97560976,,,,,,,,,,,,,,,,,,,,,,64.9619,66.2854,a,0,0.6563,,0.6563,0,66.2882,66.7857,,,,,,88,MAS,NOWORD,DIS,150,damo,,la,,66.786,66.7866,0.038715299,-0.420370356,0,0,0,,0,9,9,87,1,vaso,,,,,
,,,,,,66cb185ac5d99ffdcc950900,676192165fb32c2e1fb7aee6,67d16b5f342232e9209cc11c,2025-03-12_16h34.32.317,Tarea de decisión léxica,2024.2.5,Win32,60.97560976,,,,,,,,,,,,,,,,,,,,,,66.7891,67.4934,a,0,0.0329,,0.0329,0,67.4936,67.9861,,,,,,366,FEM,NOWORD,AGR,150,gulla,,la,,67.9866,67.9882,0.038715299,-0.420370356,0,0,0,,0,10,10,365,1,ducha,,,,,
,,,,,,66cb185ac5d99ffdcc950900,676192165fb32c2e1fb7aee6,67d16b5f342232e9209cc11c,2025-03-12_16h34.32.317,Tarea de decisión léxica,2024.2.5,Win32,60.97560976,,,,,,,,,,,,,,,,,,,,,,67.9906,69.6915,l,0,1.0175,,1.0175,0,69.6918,70.1845,,,,,,199,MAS,WORD,DIS,150,lazo,,la,,70.1883,70.1891,0.038715299,-0.420370356,0,0,0,,0,11,11,198,1,fano,,,,,
,,,,,,66cb185ac5d99ffdcc950900,676192165fb32c2e1fb7aee6,67d16b5f342232e9209cc11c,2025-03-12_16h34.32.317,Tarea de decisión léxica,2024.2.5,Win32,60.97560976,,,,,,,,,,,,,,,,,,,,,,70.1899,72.8366,,0,,,1.0175,-1,72.8405,73.3351,,,,,,472,FEM,NOWORD,DIS,150,prana,,el,,73.3354,73.3358,0.038715299,-0.420370356,0,0,0,,0,12,12,471,1,grasa,,,,,
,,,,,,66cb185ac5d99ffdcc950900,676192165fb32c2e1fb7aee6,67d16b5f342232e9209cc11c,2025-03-12_16h34.32.317,Tarea de decisión léxica,2024.2.5,Win32,60.97560976,,,,,,,,,,,,,,,,,,,,,,73.3379,75.9858,,0,,,1.0175,-1,75.9864,76.4917,,,,,,119,MAS,WORD,DIS,150,pozo,,la,,76.4919,76.4924,0.038715299,-0.420370356,0,0,0,,0,13,13,118,1,hooy,,,,,
,,,,,,66cb185ac5d99ffdcc950900,676192165fb32c2e1fb7aee6,67d16b5f342232e9209cc11c,2025-03-12_16h34.32.317,Tarea de decisión léxica,2024.2.5,Win32,60.97560976,,,,,,,,,,,,,,,,,,,,,,76.4978,79.1367,,0,,,1.0175,-1,79.1373,79.6419,,,,,,189,MAS,WORD,AGR,150,puño,,el,,79.6421,79.6427,0.038715299,-0.420370356,0,0,0,,0,14,14,188,1,muvo,,,,,
,,,,,,66cb185ac5d99ffdcc950900,676192165fb32c2e1fb7aee6,67d16b5f342232e9209cc11c,2025-03-12_16h34.32.317,Tarea de decisión léxica,2024.2.5,Win32,60.97560976,,,,,,,,,,,,,,,,,,,,,,79.6475,82.2848,,0,,,1.0175,-1,82.2858,82.7849,,,,,,96,FEM,NOWORD,DIS,151,neda,,el,,82.7851,82.7858,0.038715299,-0.420370356,0,0,0,,0,15,15,95,1,moda,,,,,
,,,,,,66cb185ac5d99ffdcc950900,676192165fb32c2e1fb7aee6,67d16b5f342232e9209cc11c,2025-03-12_16h34.32.317,Tarea de decisión léxica,2024.2.5,Win32,60.97560976,,,,,,,,,,,,,,,,,,,,,,82.7896,85.4346,,0,,,1.0175,-1,85.4352,85.9346,,,,,,231,FEM,WORD,DIS,150,bota,,el,,85.9399,85.9426,0.038715299,-0.420370356,0,0,0,,0,16,16,230,1,heta,,,,,
,,,,,,66cb185ac5d99ffdcc950900,676192165fb32c2e1fb7aee6,67d16b5f342232e9209cc11c,2025-03-12_16h34.32.317,Tarea de decisión léxica,2024.2.5,Win32,60.97560976,,,,,,,,,,,,,,,,,,,,,,85.9447,88.5845,,0,,,1.0175,-1,88.5851,89.0845,,,,,,86,MAS,NOWORD,AGR,150,babo,,el,,89.0849,89.0856,0.038715299,-0.420370356,0,0,0,,0,17,17,85,1,lago,,,,,
,,,,,,66cb185ac5d99ffdcc950900,676192165fb32c2e1fb7aee6,67d16b5f342232e9209cc11c,2025-03-12_16h34.32.317,Tarea de decisión léxica,2024.2.5,Win32,60.97560976,,,,,,,,,,,,,,,,,,,,,,89.0918,90.0017,a,1,0.2359,,0.2359,1,90.005,90.5067,,,,,,215,FEM,WORD,DIS,150,raíz,,el,,90.5069,90.5072,0.038715299,-0.420370356,0,0,0,,0,18,18,214,1,raua,,,,,
,,,,,,66cb185ac5d99ffdcc950900,676192165fb32c2e1fb7aee6,67d16b5f342232e9209cc11c,2025-03-12_16h34.32.317,Tarea de decisión léxica,2024.2.5,Win32,60.97560976,,,,,,,,,,,,,,,,,,,,,,90.5102,91.2351,a,0,0.0428,,0.0428,0,91.239,91.7351,,,,,,338,MAS,NOWORD,AGR,150,nuejo,,el,,91.7357,91.7364,0.038715299,-0.420370356,0,0,0,,0,19,19,337,1,huevo,,,,,
,,,,,,66cb185ac5d99ffdcc950900,676192165fb32c2e1fb7aee6,67d16b5f342232e9209cc11c,2025-03-12_16h34.32.317,Tarea de decisión léxica,2024.2.5,Win32,60.97560976,,,,,,,,,,,,,,,,,,,,,,91.7402,92.769,a,0,0.3661,,0.3661,0,92.77,93.2742,,,,,,448,MAS,NOWORD,DIS,150,buaso,,la,,93.2743,93.2747,0.038715299,-0.420370356,0,0,0,,0,20,20,447,1,bolso,,,,,
,,,,,,66cb185ac5d99ffdcc950900,676192165fb32c2e1fb7aee6,67d16b5f342232e9209cc11c,2025-03-12_16h34.32.317,Tarea de decisión léxica,2024.2.5,Win32,60.97560976,,,,,,,,,,,,,,,,,,,,,,93.2782,94.125,a,0,0.1817,,0.1817,0,94.1254,94.6183,,,,,,70,FEM,NOWORD,AGR,150,ñola,,la,,94.6242,94.627,0.038715299,-0.420370356,0,0,0,,0,21,21,69,1,zona,,,,,
,,,,,,66cb185ac5d99ffdcc950900,676192165fb32c2e1fb7aee6,67d16b5f342232e9209cc11c,2025-03-12_16h34.32.317,Tarea de decisión léxica,2024.2.5,Win32,60.97560976,,,,,,,,,,,,,,,,,,,,,,94.6303,97.2678,,0,,,0.1817,-1,97.2715,97.7763,,,,,,238,MAS,NOWORD,AGR,150,huco,,el,,97.7765,97.7769,0.038715299,-0.420370356,0,0,0,,0,22,22,237,1,nudo,,,,,
,,,,,,66cb185ac5d99ffdcc950900,676192165fb32c2e1fb7aee6,67d16b5f342232e9209cc11c,2025-03-12_16h34.32.317,Tarea de decisión léxica,2024.2.5,Win32,60.97560976,,,,,,,,,,,,,,,,,,,,,,97.7796,99.0344,a,1,0.589,,0.589,1,99.037,99.5239,,,,,,107,MAS,WORD,DIS,150,saco,,la,,99.5242,99.5246,0.038715299,-0.420370356,0,0,0,,0,23,23,106,1,raot,,,,,
,,,,,,66cb185ac5d99ffdcc950900,676192165fb32c2e1fb7aee6,67d16b5f342232e9209cc11c,2025-03-12_16h34.32.317,Tarea de decisión léxica,2024.2.5,Win32,60.97560976,,,,,,,,,,,,,,,,,,,,,,99.5277,100.4713,a,0,0.2708,,0.2708,0,100.4744,100.9677,,,,,,76,MAS,NOWORD,DIS,150,ocer,,la,,100.9685,100.9697,0.038715299,-0.420370356,0,0,0,,0,24,24,75,1,olor,,,,,
,,,,,,66cb185ac5d99ffdcc950900,676192165fb32c2e1fb7aee6,67d16b5f342232e9209cc11c,2025-03-12_16h34.32.317,Tarea de decisión léxica,2024.2.5,Win32,60.97560976,,,,,,,,,,,,,,,,,,,,,,100.9738,102.0171,a,1,0.3563,,0.3563,1,102.0204,102.5163,,,,,,43,FEM,WORD,DIS,150,pena,,el,,102.5166,102.517,0.038715299,-0.420370356,0,0,0,,0,25,25,42,1,meda,,,,,
,,,,,,66cb185ac5d99ffdcc950900,676192165fb32c2e1fb7aee6,67d16b5f342232e9209cc11c,2025-03-12_16h34.32.317,Tarea de decisión léxica,2024.2.5,Win32,60.97560976,,,,,,,,,,,,,,,,,,,,,,102.5193,103.7195,a,1,0.53,,0.53,1,103.7196,104.2172,,,,,,11,MAS,WORD,DIS,150,lado,,la,,104.2203,104.2215,0.038715299,-0.420370356,0,0,0,,0,26,26,10,1,bapo,,,,,
,,,,,,66cb185ac5d99ffdcc950900,676192165fb32c2e1fb7aee6,67d16b5f342232e9209cc11c,2025-03-12_16h34.32.317,Tarea de decisión léxica,2024.2.5,Win32,60.97560976,,,,,,,,,,,,,,,,,,,,,,104.2224,105.3509,a,0,0.4538,,0.4538,0,105.3542,105.8503,,,,,,388,FEM,NOWORD,DIS,150,bresa,,el,,105.8509,105.8516,0.038715299,-0.420370356,0,0,0,,0,27,27,387,1,crema,,,,,
,,,,,,66cb185ac5d99ffdcc950900,676192165fb32c2e1fb7aee6,67d16b5f342232e9209cc11c,2025-03-12_16h34.32.317,Tarea de decisión léxica,2024.2.5,Win32,60.97560976,,,,,,,,,,,,,,,,,,,,,,105.8539,108.0361,l,0,1.5127,,1.5127,0,108.0363,108.5331,,,,,,131,FEM,WORD,DIS,150,mina,,el,,108.5337,108.5343,0.038715299,-0.420370356,0,0,0,,0,28,28,130,1,fada,,,,,
,,,,,,66cb185ac5d99ffdcc950900,676192165fb32c2e1fb7aee6,67d16b5f342232e9209cc11c,2025-03-12_16h34.32.317,Tarea de decisión léxica,2024.2.5,Win32,60.97560976,,,,,,,,,,,,,,,,,,,,,,108.5376,109.6555,a,0,0.4584,,0.4584,0,109.656,110.151,,,,,,228,MAS,NOWORD,DIS,150,laro,,la,,110.1512,110.1527,0.038715299,-0.420370356,0,0,0,,0,29,29,227,1,faro,,,,,
,,,,,,66cb185ac5d99ffdcc950900,676192165fb32c2e1fb7aee6,67d16b5f342232e9209cc11c,2025-03-12_16h34.32.317,Tarea de decisión léxica,2024.2.5,Win32,60.97560976,,,,,,,,,,,,,,,,,,,,,,110.1554,111.2888,a,1,0.45,,0.45,1,111.29,111.7824,,,,,,357,FEM,WORD,AGR,150,bruja,,la,,111.7827,111.7833,0.038715299,-0.420370356,0,0,0,,0,30,30,356,1,gruba,,,,,
,,,,,,66cb185ac5d99ffdcc950900,676192165fb32c2e1fb7aee6,67d16b5f342232e9209cc11c,2025-03-12_16h34.32.317,Tarea de decisión léxica,2024.2.5,Win32,60.97560976,,,,,,,,,,,,,,,,,,,,,,111.7855,114.4326,,0,,,0.45,-1,114.4351,114.9322,,,,,,160,MAS,NOWORD,DIS,150,bilo,,la,,114.9369,114.9384,0.038715299,-0.420370356,0,0,0,,0,31,31,159,1,giro,,,,,
,,,,,,66cb185ac5d99ffdcc950900,676192165fb32c2e1fb7aee6,67d16b5f342232e9209cc11c,2025-03-12_16h34.32.317,Tarea de decisión léxica,2024.2.5,Win32,60.97560976,,,,,,,,,,,,,,,,,,,,,,114.9404,117.4989,a,0,1.885,,1.885,0,117.5021,118.0003,,,,,,74,MAS,NOWORD,AGR,150,omio,,el,,118.0008,118.0013,0.038715299,-0.420370356,0,0,0,,0,32,32,73,1,odio,,,,,
,,,,,,66cb185ac5d99ffdcc950900,676192165fb32c2e1fb7aee6,67d16b5f342232e9209cc11c,2025-03-12_16h34.32.317,Tarea de decisión léxica,2024.2.5,Win32,60.97560976,,,,,,,,,,,,,,,,,,,,,,118.004,119.1995,a,1,0.5142,,0.5142,1,119.2034,119.7059,,,,,,399,MAS,WORD,DIS,150,techo,,la,,119.7062,119.7065,0.038715299,-0.420370356,0,0,0,,0,33,33,398,1,serro,,,,,
,,,,,,66cb185ac5d99ffdcc950900,676192165fb32c2e1fb7aee6,67d16b5f342232e9209cc11c,2025-03-12_16h34.32.317,Tarea de decisión léxica,2024.2.5,Win32,60.97560976,,,,,,,,,,,,,,,,,,,,,,119.7096,121.3682,a,1,0.978,,0.978,1,121.3685,121.8653,,,,,,227,MAS,WORD,DIS,150,faro,,la,,121.8657,121.866,0.038715299,-0.420370356,0,0,0,,0,34,34,226,1,laro,,,,,
,,,,,,66cb185ac5d99ffdcc950900,676192165fb32c2e1fb7aee6,67d16b5f342232e9209cc11c,2025-03-12_16h34.32.317,Tarea de decisión léxica,2024.2.5,Win32,60.97560976,,,,,,,,,,,,,,,,,,,,,,121.8693,124.5158,,0,,,0.978,-1,124.52,125.0156,,,,,,21,MAS,WORD,AGR,150,plan,,el,,125.0193,125.0201,0.038715299,-0.420370356,0,0,0,,0,35,35,20,1,blan,,,,,
,,,,,,66cb185ac5d99ffdcc950900,676192165fb32c2e1fb7aee6,67d16b5f342232e9209cc11c,2025-03-12_16h34.32.317,Tarea de decisión léxica,2024.2.5,Win32,60.97560976,,,,,,,,,,,,,,,,,,,,,,125.021,127.6715,,0,,,0.978,-1,127.6718,128.1649,,,,,,326,FEM,NOWORD,AGR,150,mabia,,la,,128.1652,128.1662,0.038715299,-0.420370356,0,0,0,,0,36,36,325,1,magia,,,,,
,,,,,,66cb185ac5d99ffdcc950900,676192165fb32c2e1fb7aee6,67d16b5f342232e9209cc11c,2025-03-12_16h34.32.317,Tarea de decisión léxica,2024.2.5,Win32,60.97560976,,,,,,,,,,,,,,,,,,,,,,128.1691,130.8161,,0,,,0.978,-1,130.8167,131.3158,,,,,,427,FEM,WORD,DIS,150,oreja,,el,,131.3162,131.3169,0.038715299,-0.420370356,0,0,0,,0,37,37,426,1,oseva,,,,,
,,,,,,66cb185ac5d99ffdcc950900,676192165fb32c2e1fb7aee6,67d16b5f342232e9209cc11c,2025-03-12_16h34.32.317,Tarea de decisión léxica,2024.2.5,Win32,60.97560976,,,,,,,,,,,,,,,,,,,,,,131.3201,132.256,l,1,0.2508,,0.2508,1,132.259,132.7474,,,,,,298,MAS,NOWORD,AGR,150,brubo,,el,,132.7476,132.7478,0.038715299,-0.420370356,0,0,0,,0,38,38,297,1,grupo,,,,,
,,,,,,66cb185ac5d99ffdcc950900,676192165fb32c2e1fb7aee6,67d16b5f342232e9209cc11c,2025-03-12_16h34.32.317,Tarea de decisión léxica,2024.2.5,Win32,60.97560976,,,,,,,,,,,,,,,,,,,,,,132.7519,133.4307,a,1,0.0011,,0.0011,1,133.431,133.9314,,,,,,359,MAS,WORD,DIS,150,calor,,la,,133.9316,133.9319,0.038715299,-0.420370356,0,0,0,,0,39,39,358,1,cacer,,,,,
,,,,,,66cb185ac5d99ffdcc950900,676192165fb32c2e1fb7aee6,67d16b5f342232e9209cc11c,2025-03-12_16h34.32.317,Tarea de decisión léxica,2024.2.5,Win32,60.97560976,,,,,,,,,,,,,,,,,,,,,,133.9368,136.5814,,0,,,0.0011,-1,136.5844,137.0826,,,,,,460,MAS,NOWORD,DIS,150,fraco,,la,,137.0933,137.0965,0.038715299,-0.420370356,0,0,0,,0,40,40,459,1,grado,,,,,
,,,,,,66cb185ac5d99ffdcc950900,676192165fb32c2e1fb7aee6,67d16b5f342232e9209cc11c,2025-03-12_16h34.32.317,Tarea de decisión léxica,2024.2.5,Win32,60.97560976,,,,,,,,,,,,,,,,,,,,,,137.102,139.7466,,0,,,0.0011,-1,139.7467,140.2479,,,,,,65,MAS,WORD,AGR,150,dios,,el,,140.2481,140.2484,0.038715299,-0.420370356,0,0,0,,0,41,41,64,1,nios,,,,,
,,,,,,66cb185ac5d99ffdcc950900,676192165fb32c2e1fb7aee6,67d16b5f342232e9209cc11c,2025-03-12_16h34.32.317,Tarea de decisión léxica,2024.2.5,Win32,60.97560976,,,,,,,,,,,,,,,,,,,,,,140.2518,142.8977,,0,,,0.0011,-1,142.898,143.3989,,,,,,184,FEM,NOWORD,DIS,150,raad,,el,,143.3997,143.4004,0.038715299,-0.420370356,0,0,0,,0,42,42,183,1,raya,,,,,
,,,,,,66cb185ac5d99ffdcc950900,676192165fb32c2e1fb7aee6,67d16b5f342232e9209cc11c,2025-03-12_16h34.32.317,Tarea de decisión léxica,2024.2.5,Win32,60.97560976,,,,,,,,,,,,,,,,,,,,,,143.4051,144.9973,l,1,0.9174,,0.9174,1,145.0021,145.4958,,,,,,274,FEM,NOWORD,AGR,150,frosa,,la,,145.4959,145.496,0.038715299,-0.420370356,0,0,0,,0,43,43,273,1,broma,,,,,
,,,,,,66cb185ac5d99ffdcc950900,676192165fb32c2e1fb7aee6,67d16b5f342232e9209cc11c,2025-03-12_16h34.32.317,Tarea de decisión léxica,2024.2.5,Win32,60.97560976,,,,,,,,,,,,,,,,,,,,,,145.4984,146.7642,a,1,0.5936,,0.5936,1,146.7645,147.2624,,,,,,411,MAS,WORD,DIS,150,pollo,,la,,147.2625,147.2626,0.038715299,-0.420370356,0,0,0,,0,44,44,410,1,mobro,,,,,
,,,,,,66cb185ac5d99ffdcc950900,676192165fb32c2e1fb7aee6,67d16b5f342232e9209cc11c,2025-03-12_16h34.32.317,Tarea de decisión léxica,2024.2.5,Win32,60.97560976,,,,,,,,,,,,,,,,,,,,,,147.2645,148.2843,l,1,0.3444,,0.3444,1,148.2849,148.7809,,,,,,360,MAS,NOWORD,DIS,150,cacer,,la,,148.7867,148.7889,0.038715299,-0.420370356,0,0,0,,0,45,45,359,1,calor,,,,,
,,,,,,66cb185ac5d99ffdcc950900,676192165fb32c2e1fb7aee6,67d16b5f342232e9209cc11c,2025-03-12_16h34.32.317,Tarea de decisión léxica,2024.2.5,Win32,60.97560976,,,,,,,,,,,,,,,,,,,,,,148.7912,149.68,a,1,0.2182,,0.2182,1,149.6804,150.1806,,,,,,197,MAS,WORD,AGR,150,bate,,el,,150.1809,150.1813,0.038715299,-0.420370356,0,0,0,,0,46,46,196,1,dade,,,,,
,,,,,,66cb185ac5d99ffdcc950900,676192165fb32c2e1fb7aee6,67d16b5f342232e9209cc11c,2025-03-12_16h34.32.317,Tarea de decisión léxica,2024.2.5,Win32,60.97560976,,,,,,,,,,,,,,,,,,,,,,150.1858,151.1973,l,0,0.3386,,0.3386,0,151.2008,151.6955,,,,,,467,MAS,WORD,DIS,150,piano,,la,,151.6956,151.6957,0.038715299,-0.420370356,0,0,0,,0,47,47,466,1,peiso,,,,,
,,,,,,66cb185ac5d99ffdcc950900,676192165fb32c2e1fb7aee6,67d16b5f342232e9209cc11c,2025-03-12_16h34.32.317,Tarea de decisión léxica,2024.2.5,Win32,60.97560976,,,,,,,,,,,,,,,,,,,,,,151.6978,152.6305,a,1,0.269,,0.269,1,152.6337,153.1303,,,,,,303,MAS,WORD,DIS,150,barco,,la,,153.1305,153.1309,0.038715299,-0.420370356,0,0,0,,0,48,48,302,1,lanco,,,,,
,,,,,,66cb185ac5d99ffdcc950900,676192165fb32c2e1fb7aee6,67d16b5f342232e9209cc11c,2025-03-12_16h34.32.317,Tarea de decisión léxica,2024.2.5,Win32,60.97560976,,,,,,,,,,,,,,,,,,,,,,153.1353,154.0812,a,0,0.2701,,0.2701,0,154.0852,154.5801,,,,,,334,FEM,NOWORD,AGR,150,dalea,,la,,154.5803,154.5807,0.038715299,-0.420370356,0,0,0,,0,49,49,333,1,tarea,,,,,
,,,,,,66cb185ac5d99ffdcc950900,676192165fb32c2e1fb7aee6,67d16b5f342232e9209cc11c,2025-03-12_16h34.32.317,Tarea de decisión léxica,2024.2.5,Win32,60.97560976,,,,,,,,,,,,,,,,,,,,,,154.5868,155.3348,a,1,0.0796,,0.0796,1,155.3364,155.8301,,,,,,317,FEM,WORD,AGR,150,playa,,la,,155.8341,155.8357,0.038715299,-0.420370356,0,0,0,,0,50,50,316,1,plaad,,,,,
,,,,,,66cb185ac5d99ffdcc950900,676192165fb32c2e1fb7aee6,67d16b5f342232e9209cc11c,2025-03-12_16h34.32.317,Tarea de decisión léxica,2024.2.5,Win32,60.97560976,,,,,,,,,,,,,,,,,,,,,,155.8376,158.1492,a,1,1.6419,,1.6419,1,158.1498,158.646,,,,,,223,FEM,WORD,DIS,150,cera,,el,,158.6462,158.6465,0.038715299,-0.420370356,0,0,0,,0,51,51,222,1,cira,,,,,
,,,,,,66cb185ac5d99ffdcc950900,676192165fb32c2e1fb7aee6,67d16b5f342232e9209cc11c,2025-03-12_16h34.32.317,Tarea de decisión léxica,2024.2.5,Win32,60.97560976,,,,,,,,,,,,,,,,,,,,,,158.6507,159.3293,a,0,0.0013,,0.0013,0,159.3329,159.8289,,,,,,78,MAS,NOWORD,AGR,150,fodo,,el,,159.8289,159.8291,0.038715299,-0.420370356,0,0,0,,0,52,52,77,1,loco,,,,,
,,,,,,66cb185ac5d99ffdcc950900,676192165fb32c2e1fb7aee6,67d16b5f342232e9209cc11c,2025-03-12_16h34.32.317,Tarea de decisión léxica,2024.2.5,Win32,60.97560976,,,,,,,,,,,,,,,,,,,,,,159.8329,160.736,l,1,0.2256,,0.2256,1,160.7399,161.2292,,,,,,240,MAS,NOWORD,DIS,150,poño,,la,,161.2295,161.2299,0.038715299,-0.420370356,0,0,0,,0,53,53,239,1,mozo,,,,,
,,,,,,66cb185ac5d99ffdcc950900,676192165fb32c2e1fb7aee6,67d16b5f342232e9209cc11c,2025-03-12_16h34.32.317,Tarea de decisión léxica,2024.2.5,Win32,60.97560976,,,,,,,,,,,,,,,,,,,,,,161.2335,162.3453,a,1,0.4344,,0.4344,1,162.3458,162.8447,,,,,,455,MAS,WORD,DIS,150,reino,,la,,162.8449,162.8451,0.038715299,-0.420370356,0,0,0,,0,54,54,454,1,riaso,,,,,
,,,,,,66cb185ac5d99ffdcc950900,676192165fb32c2e1fb7aee6,67d16b5f342232e9209cc11c,2025-03-12_16h34.32.317,Tarea de decisión léxica,2024.2.5,Win32,60.97560976,,,,,,,,,,,,,,,,,,,,,,162.8475,164.3944,l,0,0.8772,,0.8772,0,164.3956,164.8954,,,,,,51,FEM,WORD,DIS,150,caja,,el,,164.8987,164.9013,0.038715299,-0.420370356,0,0,0,,0,55,55,50,1,mava,,,,,
,,,,,,66cb185ac5d99ffdcc950900,676192165fb32c2e1fb7aee6,67d16b5f342232e9209cc11c,2025-03-12_16h34.32.317,Tarea de decisión léxica,2024.2.5,Win32,60.97560976,,,,,,,,,,,,,,,,,,,,,,164.9033,165.6944,a,0,0.1187,,0.1187,0,165.6946,166.1955,,,,,,348,FEM,NOWORD,DIS,150,mueza,,el,,166.1958,166.1961,0.038715299,-0.420370356,0,0,0,,0,56,56,347,1,pieza,,,,,
,,,,,,66cb185ac5d99ffdcc950900,676192165fb32c2e1fb7aee6,67d16b5f342232e9209cc11c,2025-03-12_16h34.32.317,Tarea de decisión léxica,2024.2.5,Win32,60.97560976,,,,,,,,,,,,,,,,,,,,,,166.1992,167.4618,a,0,0.5909,,0.5909,0,167.4621,167.9618,,,,,,386,FEM,NOWORD,AGR,150,febra,,la,,167.9622,167.9626,0.038715299,-0.420370356,0,0,0,,0,57,57,385,1,letra,,,,,
,,,,,,66cb185ac5d99ffdcc950900,676192165fb32c2e1fb7aee6,67d16b5f342232e9209cc11c,2025-03-12_16h34.32.317,Tarea de decisión léxica,2024.2.5,Win32,60.97560976,,,,,,,,,,,,,,,,,,,,,,167.9665,170.6116,,0,,,0.5909,-1,170.6143,171.1117,,,,,,37,MAS,WORD,AGR,150,rato,,el,,171.1119,171.1122,0.038715299,-0.420370356,0,0,0,,0,58,58,36,1,gaco,,,,,
,,,,,,66cb185ac5d99ffdcc950900,676192165fb32c2e1fb7aee6,67d16b5f342232e9209cc11c,2025-03-12_16h34.32.317,Tarea de decisión léxica,2024.2.5,Win32,60.97560976,,,,,,,,,,,,,,,,,,,,,,171.1158,173.7614,,0,,,0.5909,-1,173.7617,174.2613,,,,,,381,MAS,WORD,AGR,150,humor,,el,,174.266,174.2686,0.038715299,-0.420370356,0,0,0,,0,59,59,380,1,nusor,,,,,
,,,,,,66cb185ac5d99ffdcc950900,676192165fb32c2e1fb7aee6,67d16b5f342232e9209cc11c,2025-03-12_16h34.32.317,Tarea de decisión léxica,2024.2.5,Win32,60.97560976,,,,,,,,,,,,,,,,,,,,,,174.2708,175.877,a,0,0.9377,,0.9377,0,175.8779,176.378,,,,,,256,MAS,NOWORD,DIS,150,mauco,,la,,176.3782,176.3785,0.038715299,-0.420370356,0,0,0,,0,60,60,255,1,miedo,,,,,
,,,,,,66cb185ac5d99ffdcc950900,676192165fb32c2e1fb7aee6,67d16b5f342232e9209cc11c,2025-03-12_16h34.32.317,Tarea de decisión léxica,2024.2.5,Win32,60.97560976,,,,,,,,,,,,,,,,,,,,,,176.382,179.0277,,0,,,0.9377,-1,179.0306,179.5167,,,,,,236,FEM,NOWORD,DIS,150,tria,,el,,179.5169,179.5171,0.038715299,-0.420370356,0,0,0,,0,61,61,235,1,grúa,,,,,
,,,,,,66cb185ac5d99ffdcc950900,676192165fb32c2e1fb7aee6,67d16b5f342232e9209cc11c,2025-03-12_16h34.32.317,Tarea de decisión léxica,2024.2.5,Win32,60.97560976,,,,,,,,,,,,,,,,,,,,,,179.5188,182.1034,a,0,1.9277,,1.9277,0,182.1055,182.5952,,,,,,52,FEM,NOWORD,DIS,150,mava,,el,,182.5953,182.5958,0.038715299,-0.420370356,0,0,0,,0,62,62,51,1,caja,,,,,
,,,,,,66cb185ac5d99ffdcc950900,676192165fb32c2e1fb7aee6,67d16b5f342232e9209cc11c,2025-03-12_16h34.32.317,Tarea de decisión léxica,2024.2.5,Win32,60.97560976,,,,,,,,,,,,,,,,,,,,,,182.6007,183.795,a,1,0.5202,,0.5202,1,183.7982,184.295,,,,,,307,MAS,WORD,DIS,150,hotel,,la,,184.2951,184.2961,0.038715299,-0.420370356,0,0,0,,0,63,63,306,1,holol,,,,,
,,,,,,66cb185ac5d99ffdcc950900,676192165fb32c2e1fb7aee6,67d16b5f342232e9209cc11c,2025-03-12_16h34.32.317,Tarea de decisión léxica,2024.2.5,Win32,60.97560976,,,,,,,,,,,,,,,,,,,,,,184.3019,185.7629,a,0,0.7999,,0.7999,0,185.7673,186.2601,,,,,,332,MAS,NOWORD,DIS,150,erato,,la,,186.2632,186.2647,0.038715299,-0.420370356,0,0,0,,0,64,64,331,1,éxito,,,,,
,,,,,,66cb185ac5d99ffdcc950900,676192165fb32c2e1fb7aee6,67d16b5f342232e9209cc11c,2025-03-12_16h34.32.317,Tarea de decisión léxica,2024.2.5,Win32,60.97560976,,,,,,,,,,,,,,,,,,,,,,186.2662,187.9659,l,0,1.0307,,1.0307,0,187.9661,188.4612,,,,,,297,MAS,WORD,AGR,150,grupo,,el,,188.4614,188.4618,0.038715299,-0.420370356,0,0,0,,0,65,65,296,1,brubo,,,,,
,,,,,,66cb185ac5d99ffdcc950900,676192165fb32c2e1fb7aee6,67d16b5f342232e9209cc11c,2025-03-12_16h34.32.317,Tarea de decisión léxica,2024.2.5,Win32,60.97560976,,,,,,,,,,,,,,,,,,,,,,188.4667,189.7867,l,0,0.6489,,0.6489,0,189.7871,190.2782,,,,,,243,MAS,WORD,DIS,150,amigo,,la,,190.2783,190.2789,0.038715299,-0.420370356,0,0,0,,0,66,66,242,1,asamo,,,,,
,,,,,,66cb185ac5d99ffdcc950900,676192165fb32c2e1fb7aee6,67d16b5f342232e9209cc11c,2025-03-12_16h34.32.317,Tarea de decisión léxica,2024.2.5,Win32,60.97560976,,,,,,,,,,,,,,,,,,,,,,190.283,191.4593,l,0,0.4977,,0.4977,0,191.4594,191.9594,,,,,,405,FEM,WORD,AGR,150,barra,,la,,191.9594,191.9595,0.038715299,-0.420370356,0,0,0,,0,67,67,404,1,rarra,,,,,
,,,,,,66cb185ac5d99ffdcc950900,676192165fb32c2e1fb7aee6,67d16b5f342232e9209cc11c,2025-03-12_16h34.32.317,Tarea de decisión léxica,2024.2.5,Win32,60.97560976,,,,,,,,,,,,,,,,,,,,,,191.9634,192.6758,a,0,0.0368,,0.0368,0,192.6759,193.1757,,,,,,418,FEM,NOWORD,AGR,150,banja,,la,,193.1758,193.1759,0.038715299,-0.420370356,0,0,0,,0,68,68,417,1,barba,,,,,
,,,,,,66cb185ac5d99ffdcc950900,676192165fb32c2e1fb7aee6,67d16b5f342232e9209cc11c,2025-03-12_16h34.32.317,Tarea de decisión léxica,2024.2.5,Win32,60.97560976,,,,,,,,,,,,,,,,,,,,,,193.1777,194.8425,a,1,0.9914,,0.9914,1,194.8435,195.3435,,,,,,13,FEM,WORD,AGR,150,hora,,la,,195.348,195.35,0.038715299,-0.420370356,0,0,0,,0,69,69,12,1,nola,,,,,
,,,,,,66cb185ac5d99ffdcc950900,676192165fb32c2e1fb7aee6,67d16b5f342232e9209cc11c,2025-03-12_16h34.32.317,Tarea de decisión léxica,2024.2.5,Win32,60.97560976,,,,,,,,,,,,,,,,,,,,,,195.3521,196.1936,l,1,0.172,,0.172,1,196.1939,196.6935,,,,,,324,FEM,NOWORD,DIS,150,certa,,el,,196.6937,196.6941,0.038715299,-0.420370356,0,0,0,,0,70,70,323,1,cinta,,,,,
,,,,,,66cb185ac5d99ffdcc950900,676192165fb32c2e1fb7aee6,67d16b5f342232e9209cc11c,2025-03-12_16h34.32.317,Tarea de decisión léxica,2024.2.5,Win32,60.97560976,,,,,,,,,,,,,,,,,,,,,,196.7018,198.198,a,1,0.8269,,0.8269,1,198.1983,198.6934,,,,,,263,FEM,WORD,DIS,150,vista,,el,,198.6935,198.6939,0.038715299,-0.420370356,0,0,0,,0,71,71,262,1,dosta,,,,,
,,,,,,66cb185ac5d99ffdcc950900,676192165fb32c2e1fb7aee6,67d16b5f342232e9209cc11c,2025-03-12_16h34.32.317,Tarea de decisión léxica,2024.2.5,Win32,60.97560976,,,,,,,,,,,,,,,,,,,,,,198.6981,199.6107,l,1,0.2363,,0.2363,1,199.6111,200.1094,,,,,,210,MAS,NOWORD,AGR,150,dero,,el,,200.1095,200.1097,0.038715299,-0.420370356,0,0,0,,0,72,72,209,1,velo,,,,,
,,,,,,66cb185ac5d99ffdcc950900,676192165fb32c2e1fb7aee6,67d16b5f342232e9209cc11c,2025-03-12_16h34.32.317,Tarea de decisión léxica,2024.2.5,Win32,60.97560976,,,,,,,,,,,,,,,,,,,,,,200.113,201.1091,a,0,0.3215,,0.3215,0,201.1117,201.6089,,,,,,384,FEM,NOWORD,DIS,150,brame,,el,,201.609,201.6092,0.038715299,-0.420370356,0,0,0,,0,73,73,383,1,frase,,,,,
,,,,,,66cb185ac5d99ffdcc950900,676192165fb32c2e1fb7aee6,67d16b5f342232e9209cc11c,2025-03-12_16h34.32.317,Tarea de decisión léxica,2024.2.5,Win32,60.97560976,,,,,,,,,,,,,,,,,,,,,,201.6126,203.51,a,0,1.2211,,1.2211,0,203.5104,204.0107,,,,,,322,MAS,NOWORD,AGR,150,rarco,,el,,204.0151,204.0175,0.038715299,-0.420370356,0,0,0,,0,74,74,321,1,banco,,,,,
,,,,,,66cb185ac5d99ffdcc950900,676192165fb32c2e1fb7aee6,67d16b5f342232e9209cc11c,2025-03-12_16h34.32.317,Tarea de decisión léxica,2024.2.5,Win32,60.97560976,,,,,,,,,,,,,,,,,,,,,,204.0197,204.9152,a,1,0.2292,,0.2292,1,204.918,205.4101,,,,,,329,MAS,WORD,AGR,150,hueso,,el,,205.4109,205.4118,0.038715299,-0.420370356,0,0,0,,0,75,75,328,1,nueno,,,,,
,,,,,,66cb185ac5d99ffdcc950900,676192165fb32c2e1fb7aee6,67d16b5f342232e9209cc11c,2025-03-12_16h34.32.317,Tarea de decisión léxica,2024.2.5,Win32,60.97560976,,,,,,,,,,,,,,,,,,,,,,205.4165,206.2927,l,0,0.2166,,0.2166,0,206.2956,206.7824,,,,,,333,FEM,WORD,AGR,150,tarea,,la,,206.7826,206.7829,0.038715299,-0.420370356,0,0,0,,0,76,76,332,1,dalea,,,,,
,,,,,,66cb185ac5d99ffdcc950900,676192165fb32c2e1fb7aee6,67d16b5f342232e9209cc11c,2025-03-12_16h34.32.317,Tarea de decisión léxica,2024.2.5,Win32,60.97560976,,,,,,,,,,,,,,,,,,,,,,206.785,208.144,a,1,0.6905,,0.6905,1,208.1474,208.6428,,,,,,459,MAS,WORD,DIS,150,grado,,la,,208.6431,208.644,0.038715299,-0.420370356,0,0,0,,0,77,77,458,1,fraco,,,,,
,,,,,,66cb185ac5d99ffdcc950900,676192165fb32c2e1fb7aee6,67d16b5f342232e9209cc11c,2025-03-12_16h34.32.317,Tarea de decisión léxica,2024.2.5,Win32,60.97560976,,,,,,,,,,,,,,,,,,,,,,208.6475,209.7104,a,0,0.3886,,0.3886,0,209.7134,210.2093,,,,,,56,MAS,NOWORD,DIS,150,jado,,la,,210.2096,210.2106,0.038715299,-0.420370356,0,0,0,,0,78,78,55,1,gato,,,,,
,,,,,,66cb185ac5d99ffdcc950900,676192165fb32c2e1fb7aee6,67d16b5f342232e9209cc11c,2025-03-12_16h34.32.317,Tarea de decisión léxica,2024.2.5,Win32,60.97560976,,,,,,,,,,,,,,,,,,,,,,210.2145,211.3687,l,1,0.4828,,0.4828,1,211.3714,211.8585,,,,,,106,FEM,NOWORD,AGR,150,vina,,la,,211.8633,211.866,0.038715299,-0.420370356,0,0,0,,0,79,79,105,1,sopa,,,,,
,,,,,,66cb185ac5d99ffdcc950900,676192165fb32c2e1fb7aee6,67d16b5f342232e9209cc11c,2025-03-12_16h34.32.317,Tarea de decisión léxica,2024.2.5,Win32,60.97560976,,,,,,,,,,,,,,,,,,,,,,211.868,212.9182,a,0,0.3842,,0.3842,0,212.9199,213.4094,,,,,,392,MAS,NOWORD,DIS,150,dievo,,la,,213.4096,213.4106,0.038715299,-0.420370356,0,0,0,,0,80,80,391,1,dueño,,,,,
,,,,,,66cb185ac5d99ffdcc950900,676192165fb32c2e1fb7aee6,67d16b5f342232e9209cc11c,2025-03-12_16h34.32.317,Tarea de decisión léxica,2024.2.5,Win32,60.97560976,,,,,,,,,,,,,,,,,,,,,,213.4141,214.2258,a,1,0.124,,0.124,1,214.2291,214.7262,,,,,,471,FEM,WORD,DIS,150,grasa,,el,,214.7266,214.7275,0.038715299,-0.420370356,0,0,0,,0,81,81,470,1,prana,,,,,
,,,,,,66cb185ac5d99ffdcc950900,676192165fb32c2e1fb7aee6,67d16b5f342232e9209cc11c,2025-03-12_16h34.32.317,Tarea de decisión léxica,2024.2.5,Win32,60.97560976,,,,,,,,,,,,,,,,,,,,,,214.7317,215.8006,a,1,0.3989,,0.3989,1,215.8011,216.2916,,,,,,421,MAS,WORD,AGR,150,primo,,el,,216.292,216.2924,0.038715299,-0.420370356,0,0,0,,0,82,82,420,1,griso,,,,,
,,,,,,66cb185ac5d99ffdcc950900,676192165fb32c2e1fb7aee6,67d16b5f342232e9209cc11c,2025-03-12_16h34.32.317,Tarea de decisión léxica,2024.2.5,Win32,60.97560976,,,,,,,,,,,,,,,,,,,,,,216.2948,217.217,a,1,0.2516,,0.2516,1,217.2173,217.7153,,,,,,9,MAS,WORD,AGR,150,tipo,,el,,217.7194,217.7214,0.038715299,-0.420370356,0,0,0,,0,83,83,8,1,sibo,,,,,
,,,,,,66cb185ac5d99ffdcc950900,676192165fb32c2e1fb7aee6,67d16b5f342232e9209cc11c,2025-03-12_16h34.32.317,Tarea de decisión léxica,2024.2.5,Win32,60.97560976,,,,,,,,,,,,,,,,,,,,,,217.725,218.5265,a,0,0.1284,,0.1284,0,218.5314,219.0324,,,,,,214,FEM,NOWORD,AGR,150,bana,,la,,219.0325,219.033,0.038715299,-0.420370356,0,0,0,,0,84,84,213,1,rama,,,,,
,,,,,,66cb185ac5d99ffdcc950900,676192165fb32c2e1fb7aee6,67d16b5f342232e9209cc11c,2025-03-12_16h34.32.317,Tarea de decisión léxica,2024.2.5,Win32,60.97560976,,,,,,,,,,,,,,,,,,,,,,219.0358,219.7762,l,1,0.0564,,0.0564,1,219.7803,220.276,,,,,,154,MAS,NOWORD,AGR,150,tado,,el,,220.2763,220.2771,0.038715299,-0.420370356,0,0,0,,0,85,85,153,1,pato,,,,,
,,,,,,66cb185ac5d99ffdcc950900,676192165fb32c2e1fb7aee6,67d16b5f342232e9209cc11c,2025-03-12_16h34.32.317,Tarea de decisión léxica,2024.2.5,Win32,60.97560976,,,,,,,,,,,,,,,,,,,,,,220.2794,220.9651,l,1,0.0122,,0.0122,1,220.9653,221.4592,,,,,,116,FEM,NOWORD,DIS,150,haca,,el,,221.4594,221.4603,0.038715299,-0.420370356,0,0,0,,0,86,86,115,1,pata,,,,,
,,,,,,66cb185ac5d99ffdcc950900,676192165fb32c2e1fb7aee6,67d16b5f342232e9209cc11c,2025-03-12_16h34.32.317,Tarea de decisión léxica,2024.2.5,Win32,60.97560976,,,,,,,,,,,,,,,,,,,,,,221.4644,223.0468,l,1,0.912,,0.912,1,223.047,223.5429,,,,,,222,FEM,NOWORD,AGR,150,puca,,la,,223.5431,223.5437,0.038715299,-0.420370356,0,0,0,,0,87,87,221,1,mula,,,,,
,,,,,,66cb185ac5d99ffdcc950900,676192165fb32c2e1fb7aee6,67d16b5f342232e9209cc11c,2025-03-12_16h34.32.317,Tarea de decisión léxica,2024.2.5,Win32,60.97560976,,,,,,,,,,,,,,,,,,,,,,223.5474,224.8423,a,0,0.6207,,0.6207,0,224.8454,225.3415,,,,,,300,FEM,NOWORD,DIS,150,bosga,,el,,225.3449,225.3472,0.038715299,-0.420370356,0,0,0,,0,88,88,299,1,bolsa,,,,,
,,,,,,66cb185ac5d99ffdcc950900,676192165fb32c2e1fb7aee6,67d16b5f342232e9209cc11c,2025-03-12_16h34.32.317,Tarea de decisión léxica,2024.2.5,Win32,60.97560976,,,,,,,,,,,,,,,,,,,,,,225.35,226.7588,a,0,0.7397,,0.7397,0,226.759,227.259,,,,,,354,FEM,NOWORD,AGR,150,cezca,,la,,227.2592,227.2595,0.038715299,-0.420370356,0,0,0,,0,89,89,353,1,celda,,,,,
,,,,,,66cb185ac5d99ffdcc950900,676192165fb32c2e1fb7aee6,67d16b5f342232e9209cc11c,2025-03-12_16h34.32.317,Tarea de decisión léxica,2024.2.5,Win32,60.97560976,,,,,,,,,,,,,,,,,,,,,,227.2636,228.0639,a,0,0.1288,,0.1288,0,228.0642,228.5601,,,,,,152,MAS,NOWORD,DIS,150,sogo,,la,,228.5603,228.5611,0.038715299,-0.420370356,0,0,0,,0,90,90,151,1,tomo,,,,,
,,,,,,66cb185ac5d99ffdcc950900,676192165fb32c2e1fb7aee6,67d16b5f342232e9209cc11c,2025-03-12_16h34.32.317,Tarea de decisión léxica,2024.2.5,Win32,60.97560976,,,,,,,,,,,,,,,,,,,,,,228.5655,231.207,,0,,,0.1288,-1,231.2101,231.7065,,,,,,206,FEM,NOWORD,AGR,150,bara,,la,,231.7065,231.7066,0.038715299,-0.420370356,0,0,0,,0,91,91,205,1,rana,,,,,
,,,,,,66cb185ac5d99ffdcc950900,676192165fb32c2e1fb7aee6,67d16b5f342232e9209cc11c,2025-03-12_16h34.32.317,Tarea de decisión léxica,2024.2.5,Win32,60.97560976,,,,,,,,,,,,,,,,,,,,,,231.709,233.973,l,0,1.6018,,1.6018,0,233.9753,234.4729,,,,,,397,FEM,WORD,AGR,150,tribu,,la,,234.4729,234.4731,0.038715299,-0.420370356,0,0,0,,0,92,92,396,1,trigi,,,,,
,,,,,,66cb185ac5d99ffdcc950900,676192165fb32c2e1fb7aee6,67d16b5f342232e9209cc11c,2025-03-12_16h34.32.317,Tarea de decisión léxica,2024.2.5,Win32,60.97560976,,,,,,,,,,,,,,,,,,,,,,234.4755,236.2731,a,0,1.1227,,1.1227,0,236.2731,236.773,,,,,,48,MAS,NOWORD,DIS,150,chub,,la,,236.7766,236.7773,0.038715299,-0.420370356,0,0,0,,0,93,93,47,1,club,,,,,
,,,,,,66cb185ac5d99ffdcc950900,676192165fb32c2e1fb7aee6,67d16b5f342232e9209cc11c,2025-03-12_16h34.32.317,Tarea de decisión léxica,2024.2.5,Win32,60.97560976,,,,,,,,,,,,,,,,,,,,,,236.778,238.074,a,0,0.6197,,0.6197,0,238.0742,238.5746,,,,,,258,FEM,NOWORD,AGR,150,asama,,la,,238.5748,238.5754,0.038715299,-0.420370356,0,0,0,,0,94,94,257,1,amiga,,,,,
,,,,,,66cb185ac5d99ffdcc950900,676192165fb32c2e1fb7aee6,67d16b5f342232e9209cc11c,2025-03-12_16h34.32.317,Tarea de decisión léxica,2024.2.5,Win32,60.97560976,,,,,,,,,,,,,,,,,,,,,,238.5803,239.3241,l,0,0.0694,,0.0694,0,239.3244,239.8295,,,,,,341,MAS,WORD,AGR,150,valor,,el,,239.8299,239.8305,0.038715299,-0.420370356,0,0,0,,0,95,95,340,1,daror,,,,,
,,,,,,66cb185ac5d99ffdcc950900,676192165fb32c2e1fb7aee6,67d16b5f342232e9209cc11c,2025-03-12_16h34.32.317,Tarea de decisión léxica,2024.2.5,Win32,60.97560976,,,,,,,,,,,,,,,,,,,,,,239.8334,240.5085,a,0,0.0018,,0.0018,0,240.5089,241.0073,,,,,,470,MAS,NOWORD,AGR,150,matia,,el,,241.0075,241.0079,0.038715299,-0.420370356,0,0,0,,0,96,96,469,1,patio,,,,,
,,,,,,66cb185ac5d99ffdcc950900,676192165fb32c2e1fb7aee6,67d16b5f342232e9209cc11c,2025-03-12_16h34.32.317,Tarea de decisión léxica,2024.2.5,Win32,60.97560976,,,,,,,,,,,,,,,,,,,,,,241.0122,241.8584,l,0,0.1709,,0.1709,0,241.8592,242.3473,,,,,,177,MAS,WORD,AGR,150,reto,,el,,242.3474,242.348,0.038715299,-0.420370356,0,0,0,,0,97,97,176,1,bito,,,,,
,,,,,,66cb185ac5d99ffdcc950900,676192165fb32c2e1fb7aee6,67d16b5f342232e9209cc11c,2025-03-12_16h34.32.317,Tarea de decisión léxica,2024.2.5,Win32,60.97560976,,,,,,,,,,,,,,,,,,,,,,242.3503,243.2803,l,0,0.251,,0.251,0,243.2804,243.7806,,,,,,117,MAS,WORD,AGR,150,palo,,el,,243.7824,243.7837,0.038715299,-0.420370356,0,0,0,,0,98,98,116,1,movo,,,,,
,,,,,,66cb185ac5d99ffdcc950900,676192165fb32c2e1fb7aee6,67d16b5f342232e9209cc11c,2025-03-12_16h34.32.317,Tarea de decisión léxica,2024.2.5,Win32,60.97560976,,,,,,,,,,,,,,,,,,,,,,243.7853,244.498,a,1,0.0349,,0.0349,1,244.4995,244.9958,,,,,,7,MAS,WORD,DIS,150,hijo,,la,,244.996,244.9963,0.038715299,-0.420370356,0,0,0,,0,99,99,6,1,nivo,,,,,
,,,,,,66cb185ac5d99ffdcc950900,676192165fb32c2e1fb7aee6,67d16b5f342232e9209cc11c,2025-03-12_16h34.32.317,Tarea de decisión léxica,2024.2.5,Win32,60.97560976,,,,,,,,,,,,,,,,,,,,,,244.9981,246.4303,l,0,0.7677,,0.7677,0,246.4313,246.9291,,,,,,369,MAS,WORD,AGR,150,ruido,,el,,246.9291,246.9293,0.038715299,-0.420370356,0,0,0,,0,100,100,368,1,rioco,,,,,
,,,,,,66cb185ac5d99ffdcc950900,676192165fb32c2e1fb7aee6,67d16b5f342232e9209cc11c,2025-03-12_16h34.32.317,Tarea de decisión léxica,2024.2.5,Win32,60.97560976,,,,,,,,,,,,,,,,,,,,,,246.9304,249.5796,,0,,,0.7677,-1,249.5818,250.0802,,,,,,163,FEM,WORD,DIS,150,fama,,el,,250.0804,250.0807,0.038715299,-0.420370356,0,0,0,,0,101,101,162,1,laga,,,,,
,,,,,,66cb185ac5d99ffdcc950900,676192165fb32c2e1fb7aee6,67d16b5f342232e9209cc11c,2025-03-12_16h34.32.317,Tarea de decisión léxica,2024.2.5,Win32,60.97560976,,,,,,,,,,,,,,,,,,,,,,250.0834,251.1825,a,0,0.4193,,0.4193,0,251.1849,251.6794,,,,,,376,FEM,NOWORD,DIS,150,sasna,,el,,251.6796,251.6801,0.038715299,-0.420370356,0,0,0,,0,102,102,375,1,salsa,,,,,
,,,,,,66cb185ac5d99ffdcc950900,676192165fb32c2e1fb7aee6,67d16b5f342232e9209cc11c,2025-03-12_16h34.32.317,Tarea de decisión léxica,2024.2.5,Win32,60.97560976,,,,,,,,,,,,,,,,,,,,,,251.683,252.3626,a,0,0.0008,,0.0008,0,252.3627,252.863,,,,,,440,FEM,NOWORD,DIS,150,prema,,el,,252.8655,252.8672,0.038715299,-0.420370356,0,0,0,,0,103,103,439,1,presa,,,,,
,,,,,,66cb185ac5d99ffdcc950900,676192165fb32c2e1fb7aee6,67d16b5f342232e9209cc11c,2025-03-12_16h34.32.317,Tarea de decisión léxica,2024.2.5,Win32,60.97560976,,,,,,,,,,,,,,,,,,,,,,252.8692,254.0478,a,1,0.5016,,0.5016,1,254.0493,254.5468,,,,,,291,FEM,WORD,DIS,150,pista,,el,,254.5472,254.5475,0.038715299,-0.420370356,0,0,0,,0,104,104,290,1,mesta,,,,,
,,,,,,66cb185ac5d99ffdcc950900,676192165fb32c2e1fb7aee6,67d16b5f342232e9209cc11c,2025-03-12_16h34.32.317,Tarea de decisión léxica,2024.2.5,Win32,60.97560976,,,,,,,,,,,,,,,,,,,,,,254.5499,256.4977,a,1,1.2684,,1.2684,1,256.4977,256.9964,,,,,,217,MAS,WORD,AGR,150,luto,,el,,256.9965,256.9972,0.038715299,-0.420370356,0,0,0,,0,105,105,216,1,budo,,,,,
,,,,,,66cb185ac5d99ffdcc950900,676192165fb32c2e1fb7aee6,67d16b5f342232e9209cc11c,2025-03-12_16h34.32.317,Tarea de decisión léxica,2024.2.5,Win32,60.97560976,,,,,,,,,,,,,,,,,,,,,,257.0001,258.3489,a,0,0.6689,,0.6689,0,258.3512,258.8406,,,,,,8,MAS,NOWORD,DIS,150,nivo,,la,,258.8409,258.8421,0.038715299,-0.420370356,0,0,0,,0,106,106,7,1,hijo,,,,,
,,,,,,66cb185ac5d99ffdcc950900,676192165fb32c2e1fb7aee6,67d16b5f342232e9209cc11c,2025-03-12_16h34.32.317,Tarea de decisión léxica,2024.2.5,Win32,60.97560976,,,,,,,,,,,,,,,,,,,,,,258.8477,259.582,l,0,0.0665,,0.0665,0,259.5822,260.0785,,,,,,477,MAS,WORD,AGR,150,botón,,el,,260.084,260.0872,0.038715299,-0.420370356,0,0,0,,0,107,107,476,1,hocon,,,,,
,,,,,,66cb185ac5d99ffdcc950900,676192165fb32c2e1fb7aee6,67d16b5f342232e9209cc11c,2025-03-12_16h34.32.317,Tarea de decisión léxica,2024.2.5,Win32,60.97560976,,,,,,,,,,,,,,,,,,,,,,260.0922,261.9798,a,0,1.2137,,1.2137,0,261.9799,262.4734,,,,,,462,FEM,NOWORD,AGR,150,pagra,,la,,262.4737,262.4749,0.038715299,-0.420370356,0,0,0,,0,108,108,461,1,tabla,,,,,
,,,,,,66cb185ac5d99ffdcc950900,676192165fb32c2e1fb7aee6,67d16b5f342232e9209cc11c,2025-03-12_16h34.32.317,Tarea de decisión léxica,2024.2.5,Win32,60.97560976,,,,,,,,,,,,,,,,,,,,,,262.4777,265.1301,,0,,,1.2137,-1,265.1342,265.6208,,,,,,465,FEM,WORD,AGR,150,aguja,,la,,265.6208,265.6209,0.038715299,-0.420370356,0,0,0,,0,109,109,464,1,asuba,,,,,
,,,,,,66cb185ac5d99ffdcc950900,676192165fb32c2e1fb7aee6,67d16b5f342232e9209cc11c,2025-03-12_16h34.32.317,Tarea de decisión léxica,2024.2.5,Win32,60.97560976,,,,,,,,,,,,,,,,,,,,,,265.6222,266.6705,a,0,0.3768,,0.3768,0,266.6712,267.1706,,,,,,476,FEM,NOWORD,DIS,150,mucta,,el,,267.1706,267.1707,0.038715299,-0.420370356,0,0,0,,0,110,110,475,1,manta,,,,,
,,,,,,66cb185ac5d99ffdcc950900,676192165fb32c2e1fb7aee6,67d16b5f342232e9209cc11c,2025-03-12_16h34.32.317,Tarea de decisión léxica,2024.2.5,Win32,60.97560976,,,,,,,,,,,,,,,,,,,,,,267.1718,267.8713,a,1,0.0218,,0.0218,1,267.8734,268.3714,,,,,,311,MAS,WORD,DIS,150,honor,,la,,268.3715,268.3718,0.038715299,-0.420370356,0,0,0,,0,111,111,310,1,nosor,,,,,
,,,,,,66cb185ac5d99ffdcc950900,676192165fb32c2e1fb7aee6,67d16b5f342232e9209cc11c,2025-03-12_16h34.32.317,Tarea de decisión léxica,2024.2.5,Win32,60.97560976,,,,,,,,,,,,,,,,,,,,,,268.3748,270.4724,a,0,1.4235,,1.4235,0,270.4753,270.971,,,,,,428,FEM,NOWORD,DIS,150,oseva,,el,,270.975,270.9781,0.038715299,-0.420370356,0,0,0,,0,112,112,427,1,oreja,,,,,
,,,,,,66cb185ac5d99ffdcc950900,676192165fb32c2e1fb7aee6,67d16b5f342232e9209cc11c,2025-03-12_16h34.32.317,Tarea de decisión léxica,2024.2.5,Win32,60.97560976,,,,,,,,,,,,,,,,,,,,,,270.9804,271.7876,a,0,0.1423,,0.1423,0,271.7877,272.2874,,,,,,26,FEM,NOWORD,AGR,150,paza,,la,,272.2875,272.288,0.038715299,-0.420370356,0,0,0,,0,113,113,25,1,cama,,,,,
,,,,,,66cb185ac5d99ffdcc950900,676192165fb32c2e1fb7aee6,67d16b5f342232e9209cc11c,2025-03-12_16h34.32.317,Tarea de decisión léxica,2024.2.5,Win32,60.97560976,,,,,,,,,,,,,,,,,,,,,,272.2916,273.321,a,0,0.3524,,0.3524,0,273.3213,273.8213,,,,,,268,MAS,NOWORD,DIS,150,figro,,la,,273.8214,273.8219,0.038715299,-0.420370356,0,0,0,,0,114,114,267,1,libro,,,,,
,,,,,,66cb185ac5d99ffdcc950900,676192165fb32c2e1fb7aee6,67d16b5f342232e9209cc11c,2025-03-12_16h34.32.317,Tarea de decisión léxica,2024.2.5,Win32,60.97560976,,,,,,,,,,,,,,,,,,,,,,273.8247,276.47,,0,,,0.3524,-1,276.4712,276.97,,,,,,419,MAS,WORD,DIS,150,truco,,la,,276.9701,276.9703,0.038715299,-0.420370356,0,0,0,,0,115,115,418,1,chudo,,,,,
,,,,,,66cb185ac5d99ffdcc950900,676192165fb32c2e1fb7aee6,67d16b5f342232e9209cc11c,2025-03-12_16h34.32.317,Tarea de decisión léxica,2024.2.5,Win32,60.97560976,,,,,,,,,,,,,,,,,,,,,,276.972,279.6206,,0,,,0.3524,-1,279.6209,280.1205,,,,,,221,FEM,WORD,AGR,150,mula,,la,,280.1208,280.1212,0.038715299,-0.420370356,0,0,0,,0,116,116,220,1,puca,,,,,
,,,,,,66cb185ac5d99ffdcc950900,676192165fb32c2e1fb7aee6,67d16b5f342232e9209cc11c,2025-03-12_16h34.32.317,Tarea de decisión léxica,2024.2.5,Win32,60.97560976,,,,,,,,,,,,,,,,,,,,,,280.124,282.1873,a,1,1.3834,,1.3834,1,282.1896,282.6873,,,,,,79,FEM,WORD,DIS,150,piel,,el,,282.6911,282.6938,0.038715299,-0.420370356,0,0,0,,0,117,117,78,1,ciel,,,,,
,,,,,,66cb185ac5d99ffdcc950900,676192165fb32c2e1fb7aee6,67d16b5f342232e9209cc11c,2025-03-12_16h34.32.317,Tarea de decisión léxica,2024.2.5,Win32,60.97560976,,,,,,,,,,,,,,,,,,,,,,282.6957,284.187,l,0,0.8226,,0.8226,0,284.1885,284.6868,,,,,,373,FEM,WORD,AGR,150,pizza,,la,,284.6872,284.6876,0.038715299,-0.420370356,0,0,0,,0,118,118,372,1,pogza,,,,,
,,,,,,66cb185ac5d99ffdcc950900,676192165fb32c2e1fb7aee6,67d16b5f342232e9209cc11c,2025-03-12_16h34.32.317,Tarea de decisión léxica,2024.2.5,Win32,60.97560976,,,,,,,,,,,,,,,,,,,,,,284.6906,286.8366,a,0,1.4733,,1.4733,0,286.8369,287.3358,,,,,,352,MAS,NOWORD,DIS,150,duepo,,la,,287.3359,287.336,0.038715299,-0.420370356,0,0,0,,0,119,119,351,1,vuelo,,,,,
,,,,,,66cb185ac5d99ffdcc950900,676192165fb32c2e1fb7aee6,67d16b5f342232e9209cc11c,2025-03-12_16h34.32.317,Tarea de decisión léxica,2024.2.5,Win32,60.97560976,,,,,,,,,,,,,,,,,,,,,,287.3377,289.9867,,0,,,1.4733,-1,289.9888,290.4867,,,,,,142,FEM,NOWORD,AGR,150,sina,,la,,290.487,290.4875,0.038715299,-0.420370356,0,0,0,,0,120,120,141,1,cruz,,,,,
,,,,,,66cb185ac5d99ffdcc950900,676192165fb32c2e1fb7aee6,67d16b5f342232e9209cc11c,2025-03-12_16h34.32.317,Tarea de decisión léxica,2024.2.5,Win32,60.97560976,,,,,,,,,,,,,,,,,,,,,,290.4905,293.1043,l,0,1.9429,,1.9429,0,293.1078,293.5932,,,,,,323,FEM,WORD,DIS,150,cinta,,el,,293.5934,293.594,0.038715299,-0.420370356,0,0,0,,0,121,121,322,1,certa,,,,,
,,,,,,66cb185ac5d99ffdcc950900,676192165fb32c2e1fb7aee6,67d16b5f342232e9209cc11c,2025-03-12_16h34.32.317,Tarea de decisión léxica,2024.2.5,Win32,60.97560976,,,,,,,,,,,,,,,,,,,,,,293.5967,295.5396,a,1,1.2633,,1.2633,1,295.5411,296.0436,,,,,,461,FEM,WORD,AGR,150,tabla,,la,,296.0475,296.0497,0.038715299,-0.420370356,0,0,0,,0,122,122,460,1,pagra,,,,,
,,,,,,66cb185ac5d99ffdcc950900,676192165fb32c2e1fb7aee6,67d16b5f342232e9209cc11c,2025-03-12_16h34.32.317,Tarea de decisión léxica,2024.2.5,Win32,60.97560976,,,,,,,,,,,,,,,,,,,,,,296.0559,296.7704,a,1,0.0387,,0.0387,1,296.7711,297.2587,,,,,,261,MAS,WORD,AGR,150,sitio,,el,,297.2588,297.2591,0.038715299,-0.420370356,0,0,0,,0,123,123,260,1,titio,,,,,
,,,,,,66cb185ac5d99ffdcc950900,676192165fb32c2e1fb7aee6,67d16b5f342232e9209cc11c,2025-03-12_16h34.32.317,Tarea de decisión léxica,2024.2.5,Win32,60.97560976,,,,,,,,,,,,,,,,,,,,,,297.2614,298.8375,a,0,0.89,,0.89,0,298.8405,299.3371,,,,,,24,FEM,NOWORD,DIS,150,giva,,el,,299.3375,299.3389,0.038715299,-0.420370356,0,0,0,,0,124,124,23,1,hija,,,,,
,,,,,,66cb185ac5d99ffdcc950900,676192165fb32c2e1fb7aee6,67d16b5f342232e9209cc11c,2025-03-12_16h34.32.317,Tarea de decisión léxica,2024.2.5,Win32,60.97560976,,,,,,,,,,,,,,,,,,,,,,299.3419,300.3114,a,1,0.2943,,0.2943,1,300.3133,300.8042,,,,,,19,MAS,WORD,DIS,150,niño,,la,,300.8045,300.8051,0.038715299,-0.420370356,0,0,0,,0,125,125,18,1,himo,,,,,
,,,,,,66cb185ac5d99ffdcc950900,676192165fb32c2e1fb7aee6,67d16b5f342232e9209cc11c,2025-03-12_16h34.32.317,Tarea de decisión léxica,2024.2.5,Win32,60.97560976,,,,,,,,,,,,,,,,,,,,,,300.8079,301.5422,a,0,0.0662,,0.0662,0,301.543,302.0366,,,,,,102,MAS,NOWORD,AGR,150,gito,,el,,302.0368,302.0376,0.038715299,-0.420370356,0,0,0,,0,126,126,101,1,tono,,,,,
,,,,,,66cb185ac5d99ffdcc950900,676192165fb32c2e1fb7aee6,67d16b5f342232e9209cc11c,2025-03-12_16h34.32.317,Tarea de decisión léxica,2024.2.5,Win32,60.97560976,,,,,,,,,,,,,,,,,,,,,,302.0398,302.8033,a,0,0.0819,,0.0819,0,302.8039,303.3026,,,,,,108,MAS,NOWORD,DIS,150,raot,,la,,303.3068,303.3084,0.038715299,-0.420370356,0,0,0,,0,127,127,107,1,saco,,,,,
,,,,,,66cb185ac5d99ffdcc950900,676192165fb32c2e1fb7aee6,67d16b5f342232e9209cc11c,2025-03-12_16h34.32.317,Tarea de decisión léxica,2024.2.5,Win32,60.97560976,,,,,,,,,,,,,,,,,,,,,,303.3097,304.1036,a,1,0.1161,,0.1161,1,304.1065,304.6031,,,,,,171,MAS,WORD,DIS,150,hilo,,la,,304.6035,304.6045,0.038715299,-0.420370356,0,0,0,,0,128,128,170,1,niro,,,,,
,,,,,,66cb185ac5d99ffdcc950900,676192165fb32c2e1fb7aee6,67d16b5f342232e9209cc11c,2025-03-12_16h34.32.317,Tarea de decisión léxica,2024.2.5,Win32,60.97560976,,,,,,,,,,,,,,,,,,,,,,304.6078,305.3366,a,0,0.0522,,0.0522,0,305.34,305.8367,,,,,,112,MAS,NOWORD,DIS,150,siro,,la,,305.8369,305.838,0.038715299,-0.420370356,0,0,0,,0,129,129,111,1,muro,,,,,
,,,,,,66cb185ac5d99ffdcc950900,676192165fb32c2e1fb7aee6,67d16b5f342232e9209cc11c,2025-03-12_16h34.32.317,Tarea de decisión léxica,2024.2.5,Win32,60.97560976,,,,,,,,,,,,,,,,,,,,,,305.8413,306.6418,l,1,0.1342,,0.1342,1,306.6426,307.1364,,,,,,182,FEM,NOWORD,AGR,150,teda,,la,,307.1367,307.1374,0.038715299,-0.420370356,0,0,0,,0,130,130,181,1,seda,,,,,
,,,,,,66cb185ac5d99ffdcc950900,676192165fb32c2e1fb7aee6,67d16b5f342232e9209cc11c,2025-03-12_16h34.32.317,Tarea de decisión léxica,2024.2.5,Win32,60.97560976,,,,,,,,,,,,,,,,,,,,,,307.1395,307.8078,l,1,0.008,,0.008,1,307.8081,308.3035,,,,,,426,FEM,NOWORD,AGR,150,virca,,la,,308.3069,308.3088,0.038715299,-0.420370356,0,0,0,,0,131,131,425,1,viuda,,,,,
,,,,,,66cb185ac5d99ffdcc950900,676192165fb32c2e1fb7aee6,67d16b5f342232e9209cc11c,2025-03-12_16h34.32.317,Tarea de decisión léxica,2024.2.5,Win32,60.97560976,,,,,,,,,,,,,,,,,,,,,,308.3109,308.9862,l,0,0.0017,,0.0017,0,308.9889,309.4861,,,,,,15,FEM,WORD,DIS,150,idea,,el,,309.4866,309.4875,0.038715299,-0.420370356,0,0,0,,0,132,132,14,1,odea,,,,,
,,,,,,66cb185ac5d99ffdcc950900,676192165fb32c2e1fb7aee6,67d16b5f342232e9209cc11c,2025-03-12_16h34.32.317,Tarea de decisión léxica,2024.2.5,Win32,60.97560976,,,,,,,,,,,,,,,,,,,,,,309.4908,310.2759,a,1,0.1008,,0.1008,1,310.2771,310.7697,,,,,,253,MAS,WORD,AGR,150,chico,,el,,310.77,310.7715,0.038715299,-0.420370356,0,0,0,,0,133,133,252,1,trido,,,,,
,,,,,,66cb185ac5d99ffdcc950900,676192165fb32c2e1fb7aee6,67d16b5f342232e9209cc11c,2025-03-12_16h34.32.317,Tarea de decisión léxica,2024.2.5,Win32,60.97560976,,,,,,,,,,,,,,,,,,,,,,310.775,311.5684,l,0,0.1379,,0.1379,0,311.571,312.0683,,,,,,345,FEM,WORD,AGR,150,arena,,la,,312.0686,312.0692,0.038715299,-0.420370356,0,0,0,,0,134,134,344,1,anera,,,,,
,,,,,,66cb185ac5d99ffdcc950900,676192165fb32c2e1fb7aee6,67d16b5f342232e9209cc11c,2025-03-12_16h34.32.317,Tarea de decisión léxica,2024.2.5,Win32,60.97560976,,,,,,,,,,,,,,,,,,,,,,312.0714,312.8693,a,1,0.1203,,0.1203,1,312.8717,313.3695,,,,,,393,FEM,WORD,AGR,150,aldea,,la,,313.3698,313.3705,0.038715299,-0.420370356,0,0,0,,0,135,135,392,1,ashea,,,,,
,,,,,,66cb185ac5d99ffdcc950900,676192165fb32c2e1fb7aee6,67d16b5f342232e9209cc11c,2025-03-12_16h34.32.317,Tarea de decisión léxica,2024.2.5,Win32,60.97560976,,,,,,,,,,,,,,,,,,,,,,313.3741,314.1512,l,0,0.0976,,0.0976,0,314.1539,314.6404,,,,,,67,FEM,WORD,DIS,150,nena,,el,,314.6416,314.6423,0.038715299,-0.420370356,0,0,0,,0,136,136,66,1,gesa,,,,,
,,,,,,66cb185ac5d99ffdcc950900,676192165fb32c2e1fb7aee6,67d16b5f342232e9209cc11c,2025-03-12_16h34.32.317,Tarea de decisión léxica,2024.2.5,Win32,60.97560976,,,,,,,,,,,,,,,,,,,,,,314.6431,315.3758,a,1,0.0672,,0.0672,1,315.3771,315.87,,,,,,157,MAS,WORD,AGR,150,nido,,el,,315.8702,315.8709,0.038715299,-0.420370356,0,0,0,,0,137,137,156,1,hico,,,,,
,,,,,,66cb185ac5d99ffdcc950900,676192165fb32c2e1fb7aee6,67d16b5f342232e9209cc11c,2025-03-12_16h34.32.317,Tarea de decisión léxica,2024.2.5,Win32,60.97560976,,,,,,,,,,,,,,,,,,,,,,315.8735,316.6092,l,0,0.0663,,0.0663,0,316.6108,317.1091,,,,,,371,FEM,WORD,DIS,150,pasta,,el,,317.1093,317.1099,0.038715299,-0.420370356,0,0,0,,0,138,138,370,1,mosta,,,,,
,,,,,,66cb185ac5d99ffdcc950900,676192165fb32c2e1fb7aee6,67d16b5f342232e9209cc11c,2025-03-12_16h34.32.317,Tarea de decisión léxica,2024.2.5,Win32,60.97560976,,,,,,,,,,,,,,,,,,,,,,317.1132,317.7879,a,1,0.0099,,0.0099,1,317.7892,318.2848,,,,,,89,MAS,WORD,AGR,150,humo,,el,,318.285,318.2856,0.038715299,-0.420370356,0,0,0,,0,139,139,88,1,guso,,,,,
,,,,,,66cb185ac5d99ffdcc950900,676192165fb32c2e1fb7aee6,67d16b5f342232e9209cc11c,2025-03-12_16h34.32.317,Tarea de decisión léxica,2024.2.5,Win32,60.97560976,,,,,,,,,,,,,,,,,,,,,,318.2875,319.0431,l,1,0.0824,,0.0824,1,319.0433,319.5397,,,,,,94,FEM,NOWORD,AGR,150,rona,,la,,319.5399,319.5404,0.038715299,-0.420370356,0,0,0,,0,140,140,93,1,bola,,,,,
,,,,,,66cb185ac5d99ffdcc950900,676192165fb32c2e1fb7aee6,67d16b5f342232e9209cc11c,2025-03-12_16h34.32.317,Tarea de decisión léxica,2024.2.5,Win32,60.97560976,,,,,,,,,,,,,,,,,,,,,,319.5437,320.3767,l,1,0.1511,,0.1511,1,320.3768,320.8748,,,,,,304,MAS,NOWORD,DIS,150,lanco,,la,,320.8784,320.8807,0.038715299,-0.420370356,0,0,0,,0,141,141,303,1,barco,,,,,
,,,,,,66cb185ac5d99ffdcc950900,676192165fb32c2e1fb7aee6,67d16b5f342232e9209cc11c,2025-03-12_16h34.32.317,Tarea de decisión léxica,2024.2.5,Win32,60.97560976,,,,,,,,,,,,,,,,,,,,,,320.8842,323.5357,,0,,,0.1511,-1,323.5384,324.0416,,,,,,454,FEM,NOWORD,AGR,150,pafia,,la,,324.0418,324.0425,0.038715299,-0.420370356,0,0,0,,0,142,142,453,1,mafia,,,,,
,,,,,,66cb185ac5d99ffdcc950900,676192165fb32c2e1fb7aee6,67d16b5f342232e9209cc11c,2025-03-12_16h34.32.317,Tarea de decisión léxica,2024.2.5,Win32,60.97560976,,,,,,,,,,,,,,,,,,,,,,324.0462,326.6858,,0,,,0.1511,-1,326.6863,327.192,,,,,,229,MAS,WORD,AGR,150,amor,,el,,327.1921,327.1927,0.038715299,-0.420370356,0,0,0,,0,143,143,228,1,ador,,,,,
,,,,,,66cb185ac5d99ffdcc950900,676192165fb32c2e1fb7aee6,67d16b5f342232e9209cc11c,2025-03-12_16h34.32.317,Tarea de decisión léxica,2024.2.5,Win32,60.97560976,,,,,,,,,,,,,,,,,,,,,,327.1963,329.8346,,0,,,0.1511,-1,329.8352,330.3355,,,,,,127,MAS,WORD,DIS,150,pico,,la,,330.3358,330.3367,0.038715299,-0.420370356,0,0,0,,0,144,144,126,1,itio,,,,,
,,,,,,66cb185ac5d99ffdcc950900,676192165fb32c2e1fb7aee6,67d16b5f342232e9209cc11c,2025-03-12_16h34.32.317,Tarea de decisión léxica,2024.2.5,Win32,60.97560976,,,,,,,,,,,,,,,,,,,,,,330.3394,332.0088,l,0,0.9938,,0.9938,0,332.0107,332.5103,,,,,,257,FEM,WORD,AGR,150,amiga,,la,,332.5105,332.5109,0.047974523,-0.422222201,0,0,0,,0,145,145,256,1,asama,,,,,
,,,,,,66cb185ac5d99ffdcc950900,676192165fb32c2e1fb7aee6,67d16b5f342232e9209cc11c,2025-03-12_16h34.32.317,Tarea de decisión léxica,2024.2.5,Win32,60.97560976,,,,,,,,,,,,,,,,,,,,,,332.5135,333.4513,a,0,0.2709,,0.2709,0,333.4519,333.9512,,,,,,136,MAS,NOWORD,DIS,150,geso,,la,,333.9557,333.9581,0.047974523,-0.422222201,0,0,0,,0,146,146,135,1,tubo,,,,,
,,,,,,66cb185ac5d99ffdcc950900,676192165fb32c2e1fb7aee6,67d16b5f342232e9209cc11c,2025-03-12_16h34.32.317,Tarea de decisión léxica,2024.2.5,Win32,60.97560976,,,,,,,,,,,,,,,,,,,,,,333.9603,334.8571,l,0,0.2326,,0.2326,0,334.8574,335.3505,,,,,,299,FEM,WORD,DIS,150,bolsa,,el,,335.3507,335.3515,0.047974523,-0.422222201,0,0,0,,0,147,147,298,1,bosga,,,,,
,,,,,,66cb185ac5d99ffdcc950900,676192165fb32c2e1fb7aee6,67d16b5f342232e9209cc11c,2025-03-12_16h34.32.317,Tarea de decisión léxica,2024.2.5,Win32,60.97560976,,,,,,,,,,,,,,,,,,,,,,335.3554,337.384,l,0,1.352,,1.352,0,337.3845,337.8848,,,,,,235,FEM,WORD,DIS,150,grúa,,el,,337.8853,337.8864,0.047974523,-0.422222201,0,0,0,,0,148,148,234,1,tria,,,,,
,,,,,,66cb185ac5d99ffdcc950900,676192165fb32c2e1fb7aee6,67d16b5f342232e9209cc11c,2025-03-12_16h34.32.317,Tarea de decisión léxica,2024.2.5,Win32,60.97560976,,,,,,,,,,,,,,,,,,,,,,337.8887,339.7697,l,1,1.1959,,1.1959,1,339.7734,340.2669,,,,,,456,MAS,NOWORD,DIS,150,riaso,,la,,340.267,340.2673,0.047974523,-0.422222201,0,0,0,,0,149,149,455,1,reino,,,,,
,,,,,,66cb185ac5d99ffdcc950900,676192165fb32c2e1fb7aee6,67d16b5f342232e9209cc11c,2025-03-12_16h34.32.317,Tarea de decisión léxica,2024.2.5,Win32,60.97560976,,,,,,,,,,,,,,,,,,,,,,340.2709,341.4212,l,0,0.4771,,0.4771,0,341.4242,341.9174,,,,,,33,FEM,WORD,AGR,150,boca,,la,,341.9178,341.9185,0.047974523,-0.422222201,0,0,0,,0,150,150,32,1,loda,,,,,
,,,,,,66cb185ac5d99ffdcc950900,676192165fb32c2e1fb7aee6,67d16b5f342232e9209cc11c,2025-03-12_16h34.32.317,Tarea de decisión léxica,2024.2.5,Win32,60.97560976,,,,,,,,,,,,,,,,,,,,,,341.9208,343.1428,l,1,0.5638,,0.5638,1,343.1443,343.6326,,,,,,42,FEM,NOWORD,AGR,150,haje,,la,,343.6355,343.6362,0.047974523,-0.422222201,0,0,0,,0,151,151,41,1,nave,,,,,
,,,,,,66cb185ac5d99ffdcc950900,676192165fb32c2e1fb7aee6,67d16b5f342232e9209cc11c,2025-03-12_16h34.32.317,Tarea de decisión léxica,2024.2.5,Win32,60.97560976,,,,,,,,,,,,,,,,,,,,,,343.6368,345.2325,l,1,0.9021,,0.9021,1,345.233,345.7337,,,,,,420,MAS,NOWORD,DIS,150,chudo,,la,,345.7342,345.7351,0.047974523,-0.422222201,0,0,0,,0,152,152,419,1,truco,,,,,
,,,,,,66cb185ac5d99ffdcc950900,676192165fb32c2e1fb7aee6,67d16b5f342232e9209cc11c,2025-03-12_16h34.32.317,Tarea de decisión léxica,2024.2.5,Win32,60.97560976,,,,,,,,,,,,,,,,,,,,,,345.7375,348.3343,l,1,1.9208,,1.9208,1,348.3353,348.8236,,,,,,292,FEM,NOWORD,DIS,150,mesta,,el,,348.8237,348.8241,0.047974523,-0.422222201,0,0,0,,0,153,153,291,1,pista,,,,,
,,,,,,66cb185ac5d99ffdcc950900,676192165fb32c2e1fb7aee6,67d16b5f342232e9209cc11c,2025-03-12_16h34.32.317,Tarea de decisión léxica,2024.2.5,Win32,60.97560976,,,,,,,,,,,,,,,,,,,,,,348.8269,349.8059,l,1,0.3002,,0.3002,1,349.806,350.3011,,,,,,144,MAS,NOWORD,DIS,150,pezo,,la,,350.3016,350.3024,0.047974523,-0.422222201,0,0,0,,0,154,154,143,1,pavo,,,,,
,,,,,,66cb185ac5d99ffdcc950900,676192165fb32c2e1fb7aee6,67d16b5f342232e9209cc11c,2025-03-12_16h34.32.317,Tarea de decisión léxica,2024.2.5,Win32,60.97560976,,,,,,,,,,,,,,,,,,,,,,350.3053,351.4217,l,0,0.4424,,0.4424,0,351.4225,351.9156,,,,,,81,FEM,WORD,AGR,150,dama,,la,,351.9185,351.9194,0.047974523,-0.422222201,0,0,0,,0,155,155,80,1,vasa,,,,,
,,,,,,66cb185ac5d99ffdcc950900,676192165fb32c2e1fb7aee6,67d16b5f342232e9209cc11c,2025-03-12_16h34.32.317,Tarea de decisión léxica,2024.2.5,Win32,60.97560976,,,,,,,,,,,,,,,,,,,,,,351.9203,353.0779,l,0,0.4965,,0.4965,0,353.0781,353.5818,,,,,,295,MAS,WORD,DIS,150,dolor,,la,,353.582,353.5824,0.047974523,-0.422222201,0,0,0,,0,156,156,294,1,goler,,,,,
,,,,,,66cb185ac5d99ffdcc950900,676192165fb32c2e1fb7aee6,67d16b5f342232e9209cc11c,2025-03-12_16h34.32.317,Tarea de decisión léxica,2024.2.5,Win32,60.97560976,,,,,,,,,,,,,,,,,,,,,,353.585,355.682,l,1,1.422,,1.422,1,355.6852,356.1848,,,,,,422,MAS,NOWORD,AGR,150,griso,,el,,356.1848,356.1849,0.047974523,-0.422222201,0,0,0,,0,157,157,421,1,primo,,,,,
,,,,,,66cb185ac5d99ffdcc950900,676192165fb32c2e1fb7aee6,67d16b5f342232e9209cc11c,2025-03-12_16h34.32.317,Tarea de decisión léxica,2024.2.5,Win32,60.97560976,,,,,,,,,,,,,,,,,,,,,,356.1859,357.4227,a,0,0.5516,,0.5516,0,357.4242,357.9163,,,,,,32,FEM,NOWORD,DIS,150,bova,,el,,357.9166,357.9174,0.047974523,-0.422222201,0,0,0,,0,158,158,31,1,ropa,,,,,
,,,,,,66cb185ac5d99ffdcc950900,676192165fb32c2e1fb7aee6,67d16b5f342232e9209cc11c,2025-03-12_16h34.32.317,Tarea de decisión léxica,2024.2.5,Win32,60.97560976,,,,,,,,,,,,,,,,,,,,,,357.9198,358.9997,l,0,0.39,,0.39,0,359.0005,359.4885,,,,,,205,FEM,WORD,AGR,150,rana,,la,,359.4887,359.4893,0.047974523,-0.422222201,0,0,0,,0,159,159,204,1,bara,,,,,
,,,,,,66cb185ac5d99ffdcc950900,676192165fb32c2e1fb7aee6,67d16b5f342232e9209cc11c,2025-03-12_16h34.32.317,Tarea de decisión léxica,2024.2.5,Win32,60.97560976,,,,,,,,,,,,,,,,,,,,,,359.4922,360.1742,a,0,0.0017,,0.0017,0,360.1745,360.6671,,,,,,168,FEM,NOWORD,DIS,150,zifa,,el,,360.6718,362.9227,0.047974523,-0.422222201,1,0,0,,0,160,160,167,1,jefa,break_done_button,,,,
,,,,,,66cb185ac5d99ffdcc950900,676192165fb32c2e1fb7aee6,67d16b5f342232e9209cc11c,2025-03-12_16h34.32.317,Tarea de decisión léxica,2024.2.5,Win32,60.97560976,,,,,,,,,,,,,,,,,,,,,,362.9246,365.1001,l,1,1.5033,,1.5033,1,365.1021,365.5983,,,,,,358,FEM,NOWORD,AGR,150,gruba,,la,,365.5985,365.5991,0.047974523,-0.422222201,0,0,0,,0,161,161,357,1,bruja,,,,,
,,,,,,66cb185ac5d99ffdcc950900,676192165fb32c2e1fb7aee6,67d16b5f342232e9209cc11c,2025-03-12_16h34.32.317,Tarea de decisión léxica,2024.2.5,Win32,60.97560976,,,,,,,,,,,,,,,,,,,,,,365.6015,366.5711,l,1,0.2995,,0.2995,1,366.5712,367.065,,,,,,464,FEM,NOWORD,DIS,150,matla,,el,,367.0655,367.0663,0.047974523,-0.422222201,0,0,0,,0,162,162,463,1,cabra,,,,,
,,,,,,66cb185ac5d99ffdcc950900,676192165fb32c2e1fb7aee6,67d16b5f342232e9209cc11c,2025-03-12_16h34.32.317,Tarea de decisión léxica,2024.2.5,Win32,60.97560976,,,,,,,,,,,,,,,,,,,,,,367.0683,367.9013,l,0,0.1467,,0.1467,0,367.9023,368.4056,,,,,,437,FEM,WORD,AGR,150,plaza,,la,,368.4057,368.4062,0.047974523,-0.422222201,0,0,0,,0,163,163,436,1,glava,,,,,
,,,,,,66cb185ac5d99ffdcc950900,676192165fb32c2e1fb7aee6,67d16b5f342232e9209cc11c,2025-03-12_16h34.32.317,Tarea de decisión léxica,2024.2.5,Win32,60.97560976,,,,,,,,,,,,,,,,,,,,,,368.4099,370.3395,l,1,1.2593,,1.2593,1,370.3416,370.8319,,,,,,264,FEM,NOWORD,DIS,150,dosta,,el,,370.8322,370.8332,0.047974523,-0.422222201,0,0,0,,0,164,164,263,1,vista,,,,,
,,,,,,66cb185ac5d99ffdcc950900,676192165fb32c2e1fb7aee6,67d16b5f342232e9209cc11c,2025-03-12_16h34.32.317,Tarea de decisión léxica,2024.2.5,Win32,60.97560976,,,,,,,,,,,,,,,,,,,,,,370.8371,372.5161,l,1,0.9983,,0.9983,1,372.5165,373.0153,,,,,,444,MAS,NOWORD,DIS,150,taron,,la,,373.0202,373.0231,0.047974523,-0.422222201,0,0,0,,0,165,165,443,1,salón,,,,,
,,,,,,66cb185ac5d99ffdcc950900,676192165fb32c2e1fb7aee6,67d16b5f342232e9209cc11c,2025-03-12_16h34.32.317,Tarea de decisión léxica,2024.2.5,Win32,60.97560976,,,,,,,,,,,,,,,,,,,,,,373.0265,373.7978,l,0,0.1075,,0.1075,0,373.8002,374.2874,,,,,,331,MAS,WORD,DIS,150,éxito,,la,,374.2876,374.288,0.047974523,-0.422222201,0,0,0,,0,166,166,330,1,erato,,,,,
,,,,,,66cb185ac5d99ffdcc950900,676192165fb32c2e1fb7aee6,67d16b5f342232e9209cc11c,2025-03-12_16h34.32.317,Tarea de decisión léxica,2024.2.5,Win32,60.97560976,,,,,,,,,,,,,,,,,,,,,,374.291,375.6393,l,1,0.678,,0.678,1,375.6408,376.1358,,,,,,6,FEM,NOWORD,AGR,150,poga,,la,,376.1359,376.1363,0.047974523,-0.422222201,0,0,0,,0,167,167,5,1,cosa,,,,,
,,,,,,66cb185ac5d99ffdcc950900,676192165fb32c2e1fb7aee6,67d16b5f342232e9209cc11c,2025-03-12_16h34.32.317,Tarea de decisión léxica,2024.2.5,Win32,60.97560976,,,,,,,,,,,,,,,,,,,,,,376.1401,377.536,a,1,0.7228,,0.7228,1,377.5364,378.0314,,,,,,133,FEM,WORD,AGR,150,vaca,,la,,378.0318,378.0328,0.047974523,-0.422222201,0,0,0,,0,168,168,132,1,vesa,,,,,
,,,,,,66cb185ac5d99ffdcc950900,676192165fb32c2e1fb7aee6,67d16b5f342232e9209cc11c,2025-03-12_16h34.32.317,Tarea de decisión léxica,2024.2.5,Win32,60.97560976,,,,,,,,,,,,,,,,,,,,,,378.0353,378.9712,l,0,0.2632,,0.2632,0,378.9737,379.4648,,,,,,145,MAS,WORD,AGR,150,león,,el,,379.4652,379.4664,0.047974523,-0.422222201,0,0,0,,0,169,169,144,1,nobo,,,,,
,,,,,,66cb185ac5d99ffdcc950900,676192165fb32c2e1fb7aee6,67d16b5f342232e9209cc11c,2025-03-12_16h34.32.317,Tarea de decisión léxica,2024.2.5,Win32,60.97560976,,,,,,,,,,,,,,,,,,,,,,379.469,382.1146,,0,,,0.2632,-1,382.1174,382.6037,,,,,,120,MAS,NOWORD,DIS,150,hooy,,la,,382.6069,382.6085,0.049826368,-0.332407443,0,0,0,,0,170,170,119,1,pozo,,,,,
,,,,,,66cb185ac5d99ffdcc950900,676192165fb32c2e1fb7aee6,67d16b5f342232e9209cc11c,2025-03-12_16h34.32.317,Tarea de decisión léxica,2024.2.5,Win32,60.97560976,,,,,,,,,,,,,,,,,,,,,,382.6111,383.4974,l,0,0.2199,,0.2199,0,383.4994,383.9871,,,,,,287,FEM,WORD,DIS,150,lista,,el,,383.9872,383.9877,0.049826368,-0.332407443,0,0,0,,0,171,171,286,1,fosta,,,,,
,,,,,,66cb185ac5d99ffdcc950900,676192165fb32c2e1fb7aee6,67d16b5f342232e9209cc11c,2025-03-12_16h34.32.317,Tarea de decisión léxica,2024.2.5,Win32,60.97560976,,,,,,,,,,,,,,,,,,,,,,383.9911,384.722,a,1,0.066,,0.066,1,384.7239,385.213,,,,,,139,MAS,WORD,DIS,150,mago,,la,,385.2134,385.2141,0.049826368,-0.332407443,0,0,0,,0,172,172,138,1,nila,,,,,
,,,,,,66cb185ac5d99ffdcc950900,676192165fb32c2e1fb7aee6,67d16b5f342232e9209cc11c,2025-03-12_16h34.32.317,Tarea de decisión léxica,2024.2.5,Win32,60.97560976,,,,,,,,,,,,,,,,,,,,,,385.2162,386.3164,l,0,0.4167,,0.4167,0,386.3172,386.8135,,,,,,167,FEM,WORD,DIS,150,jefa,,el,,386.8143,386.8148,0.049826368,-0.332407443,0,0,0,,0,173,173,166,1,zifa,,,,,
,,,,,,66cb185ac5d99ffdcc950900,676192165fb32c2e1fb7aee6,67d16b5f342232e9209cc11c,2025-03-12_16h34.32.317,Tarea de decisión léxica,2024.2.5,Win32,60.97560976,,,,,,,,,,,,,,,,,,,,,,386.8161,387.7527,l,1,0.2536,,0.2536,1,387.7535,388.2529,,,,,,442,FEM,NOWORD,AGR,150,telza,,la,,388.253,388.2532,0.049826368,-0.332407443,0,0,0,,0,174,174,441,1,selva,,,,,
,,,,,,66cb185ac5d99ffdcc950900,676192165fb32c2e1fb7aee6,67d16b5f342232e9209cc11c,2025-03-12_16h34.32.317,Tarea de decisión léxica,2024.2.5,Win32,60.97560976,,,,,,,,,,,,,,,,,,,,,,388.2543,389.1361,l,0,0.2162,,0.2162,0,389.1368,389.6333,,,,,,319,MAS,WORD,DIS,150,suelo,,la,,389.636,389.6377,0.049826368,-0.332407443,0,0,0,,0,175,175,318,1,tuero,,,,,
,,,,,,66cb185ac5d99ffdcc950900,676192165fb32c2e1fb7aee6,67d16b5f342232e9209cc11c,2025-03-12_16h34.32.317,Tarea de decisión léxica,2024.2.5,Win32,60.97560976,,,,,,,,,,,,,,,,,,,,,,389.6395,390.5308,a,1,0.2104,,0.2104,1,390.5334,391.0303,,,,,,305,MAS,WORD,AGR,150,avión,,el,,391.0308,391.0318,0.049826368,-0.332407443,0,0,0,,0,176,176,304,1,adiol,,,,,
,,,,,,66cb185ac5d99ffdcc950900,676192165fb32c2e1fb7aee6,67d16b5f342232e9209cc11c,2025-03-12_16h34.32.317,Tarea de decisión léxica,2024.2.5,Win32,60.97560976,,,,,,,,,,,,,,,,,,,,,,391.035,393.3493,l,0,1.6366,,1.6366,0,393.352,393.8536,,,,,,113,FEM,WORD,AGR,150,miel,,la,,393.8537,393.8542,0.049826368,-0.332407443,0,0,0,,0,177,177,112,1,tada,,,,,
,,,,,,66cb185ac5d99ffdcc950900,676192165fb32c2e1fb7aee6,67d16b5f342232e9209cc11c,2025-03-12_16h34.32.317,Tarea de decisión léxica,2024.2.5,Win32,60.97560976,,,,,,,,,,,,,,,,,,,,,,393.8573,394.7519,l,0,0.2147,,0.2147,0,394.7525,395.249,,,,,,211,FEM,WORD,DIS,150,joya,,el,,395.2492,395.2498,0.049826368,-0.332407443,0,0,0,,0,178,178,210,1,joad,,,,,
,,,,,,66cb185ac5d99ffdcc950900,676192165fb32c2e1fb7aee6,67d16b5f342232e9209cc11c,2025-03-12_16h34.32.317,Tarea de decisión léxica,2024.2.5,Win32,60.97560976,,,,,,,,,,,,,,,,,,,,,,395.2522,397.0293,l,1,1.1022,,1.1022,1,397.0321,397.5299,,,,,,200,MAS,NOWORD,DIS,150,fano,,la,,397.536,397.5389,0.049826368,-0.332407443,0,0,0,,0,179,179,199,1,lazo,,,,,
,,,,,,66cb185ac5d99ffdcc950900,676192165fb32c2e1fb7aee6,67d16b5f342232e9209cc11c,2025-03-12_16h34.32.317,Tarea de decisión léxica,2024.2.5,Win32,60.97560976,,,,,,,,,,,,,,,,,,,,,,397.5411,398.7205,l,1,0.5104,,0.5104,1,398.7206,399.2127,,,,,,254,MAS,NOWORD,AGR,150,trido,,el,,399.2131,399.2139,0.049826368,-0.332407443,0,0,0,,0,180,180,253,1,chico,,,,,
,,,,,,66cb185ac5d99ffdcc950900,676192165fb32c2e1fb7aee6,67d16b5f342232e9209cc11c,2025-03-12_16h34.32.317,Tarea de decisión léxica,2024.2.5,Win32,60.97560976,,,,,,,,,,,,,,,,,,,,,,399.2171,401.0624,l,1,1.1577,,1.1577,1,401.0628,401.5522,,,,,,362,FEM,NOWORD,AGR,150,solle,,la,,401.5523,401.5527,0.049826368,-0.332407443,0,0,0,,0,181,181,361,1,torre,,,,,
,,,,,,66cb185ac5d99ffdcc950900,676192165fb32c2e1fb7aee6,67d16b5f342232e9209cc11c,2025-03-12_16h34.32.317,Tarea de decisión léxica,2024.2.5,Win32,60.97560976,,,,,,,,,,,,,,,,,,,,,,401.5553,402.6333,l,0,0.4099,,0.4099,0,402.6359,403.1294,,,,,,97,MAS,WORD,AGR,150,mono,,el,,403.1299,403.1308,0.049826368,-0.332407443,0,0,0,,0,182,182,96,1,fopo,,,,,
,,,,,,66cb185ac5d99ffdcc950900,676192165fb32c2e1fb7aee6,67d16b5f342232e9209cc11c,2025-03-12_16h34.32.317,Tarea de decisión léxica,2024.2.5,Win32,60.97560976,,,,,,,,,,,,,,,,,,,,,,403.134,404.2709,l,0,0.4736,,0.4736,0,404.2712,404.7645,,,,,,99,MAS,WORD,DIS,150,lobo,,la,,404.7648,404.7658,0.049826368,-0.332407443,0,0,0,,0,183,183,98,1,soro,,,,,
,,,,,,66cb185ac5d99ffdcc950900,676192165fb32c2e1fb7aee6,67d16b5f342232e9209cc11c,2025-03-12_16h34.32.317,Tarea de decisión léxica,2024.2.5,Win32,60.97560976,,,,,,,,,,,,,,,,,,,,,,404.7707,405.6815,l,0,0.2562,,0.2562,0,405.6815,406.1793,,,,,,473,FEM,WORD,AGR,150,feria,,la,,406.1842,406.1865,0.049826368,-0.332407443,0,0,0,,0,184,184,472,1,felia,,,,,
,,,,,,66cb185ac5d99ffdcc950900,676192165fb32c2e1fb7aee6,67d16b5f342232e9209cc11c,2025-03-12_16h34.32.317,Tarea de decisión léxica,2024.2.5,Win32,60.97560976,,,,,,,,,,,,,,,,,,,,,,406.1892,408.1536,l,0,1.2848,,1.2848,0,408.1539,408.6521,,,,,,85,MAS,WORD,AGR,150,lago,,el,,408.6523,408.6528,0.049826368,-0.332407443,0,0,0,,0,185,185,84,1,babo,,,,,
,,,,,,66cb185ac5d99ffdcc950900,676192165fb32c2e1fb7aee6,67d16b5f342232e9209cc11c,2025-03-12_16h34.32.317,Tarea de decisión léxica,2024.2.5,Win32,60.97560976,,,,,,,,,,,,,,,,,,,,,,408.6556,411.2968,,0,,,1.2848,-1,411.2987,411.7948,,,,,,92,FEM,NOWORD,DIS,150,sava,,el,,411.7949,411.7956,0.049826368,-0.332407443,0,0,0,,0,186,186,91,1,taza,,,,,
,,,,,,66cb185ac5d99ffdcc950900,676192165fb32c2e1fb7aee6,67d16b5f342232e9209cc11c,2025-03-12_16h34.32.317,Tarea de decisión léxica,2024.2.5,Win32,60.97560976,,,,,,,,,,,,,,,,,,,,,,411.7977,413.0623,l,0,0.5711,,0.5711,0,413.0657,413.5611,,,,,,325,FEM,WORD,AGR,150,magia,,la,,413.5614,413.5619,0.049826368,-0.332407443,0,0,0,,0,187,187,324,1,mabia,,,,,
,,,,,,66cb185ac5d99ffdcc950900,676192165fb32c2e1fb7aee6,67d16b5f342232e9209cc11c,2025-03-12_16h34.32.317,Tarea de decisión léxica,2024.2.5,Win32,60.97560976,,,,,,,,,,,,,,,,,,,,,,413.5644,414.2625,l,1,0.0139,,0.0139,1,414.2653,414.7622,,,,,,480,MAS,NOWORD,DIS,150,rimpo,,la,,414.7626,414.7635,0.049826368,-0.332407443,0,0,0,,0,188,188,479,1,rumbo,,,,,
,,,,,,66cb185ac5d99ffdcc950900,676192165fb32c2e1fb7aee6,67d16b5f342232e9209cc11c,2025-03-12_16h34.32.317,Tarea de decisión léxica,2024.2.5,Win32,60.97560976,,,,,,,,,,,,,,,,,,,,,,414.7664,417.287,l,0,1.8602,,1.8602,0,417.2892,417.7784,,,,,,435,MAS,WORD,DIS,150,ritmo,,la,,417.7822,417.7836,0.049826368,-0.332407443,0,0,0,,0,189,189,434,1,ricno,,,,,
,,,,,,66cb185ac5d99ffdcc950900,676192165fb32c2e1fb7aee6,67d16b5f342232e9209cc11c,2025-03-12_16h34.32.317,Tarea de decisión léxica,2024.2.5,Win32,60.97560976,,,,,,,,,,,,,,,,,,,,,,417.7855,418.6788,l,1,0.2214,,0.2214,1,418.6824,419.1782,,,,,,344,FEM,NOWORD,DIS,150,trada,,el,,419.1786,419.1794,0.049826368,-0.332407443,0,0,0,,0,190,190,343,1,plata,,,,,
,,,,,,66cb185ac5d99ffdcc950900,676192165fb32c2e1fb7aee6,67d16b5f342232e9209cc11c,2025-03-12_16h34.32.317,Tarea de decisión léxica,2024.2.5,Win32,60.97560976,,,,,,,,,,,,,,,,,,,,,,419.1816,421.8292,,0,,,0.2214,-1,421.8316,422.3175,,,,,,340,MAS,NOWORD,DIS,150,plajo,,la,,422.3176,422.3179,0.049826368,-0.332407443,0,0,0,,0,191,191,339,1,brazo,,,,,
,,,,,,66cb185ac5d99ffdcc950900,676192165fb32c2e1fb7aee6,67d16b5f342232e9209cc11c,2025-03-12_16h34.32.317,Tarea de decisión léxica,2024.2.5,Win32,60.97560976,,,,,,,,,,,,,,,,,,,,,,422.3203,423.3959,a,1,0.3906,,0.3906,1,423.3995,423.9011,,,,,,375,FEM,WORD,DIS,150,salsa,,el,,423.9013,423.9018,0.049826368,-0.332407443,0,0,0,,0,192,192,374,1,sasna,,,,,
,,,,,,66cb185ac5d99ffdcc950900,676192165fb32c2e1fb7aee6,67d16b5f342232e9209cc11c,2025-03-12_16h34.32.317,Tarea de decisión léxica,2024.2.5,Win32,60.97560976,,,,,,,,,,,,,,,,,,,,,,423.9049,425.269,l,0,0.6847,,0.6847,0,425.271,425.7629,,,,,,87,MAS,WORD,DIS,150,vaso,,la,,425.7631,425.764,0.049826368,-0.332407443,0,0,0,,0,193,193,86,1,damo,,,,,
,,,,,,66cb185ac5d99ffdcc950900,676192165fb32c2e1fb7aee6,67d16b5f342232e9209cc11c,2025-03-12_16h34.32.317,Tarea de decisión léxica,2024.2.5,Win32,60.97560976,,,,,,,,,,,,,,,,,,,,,,425.7689,426.6675,a,0,0.2445,,0.2445,0,426.6677,427.1607,,,,,,20,MAS,NOWORD,DIS,150,himo,,la,,427.1634,427.1643,0.049826368,-0.332407443,0,0,0,,0,194,194,19,1,niño,,,,,
,,,,,,66cb185ac5d99ffdcc950900,676192165fb32c2e1fb7aee6,67d16b5f342232e9209cc11c,2025-03-12_16h34.32.317,Tarea de decisión léxica,2024.2.5,Win32,60.97560976,,,,,,,,,,,,,,,,,,,,,,427.1654,427.8826,a,0,0.0468,,0.0468,0,427.8827,428.3784,,,,,,282,MAS,NOWORD,AGR,150,cauro,,el,,428.3788,428.3802,0.049826368,-0.332407443,0,0,0,,0,195,195,281,1,cielo,,,,,
,,,,,,66cb185ac5d99ffdcc950900,676192165fb32c2e1fb7aee6,67d16b5f342232e9209cc11c,2025-03-12_16h34.32.317,Tarea de decisión léxica,2024.2.5,Win32,60.97560976,,,,,,,,,,,,,,,,,,,,,,428.3849,429.1813,l,1,0.1126,,0.1126,1,429.1833,429.6781,,,,,,192,FEM,NOWORD,DIS,150,bila,,el,,429.6786,429.6793,0.049826368,-0.332407443,0,0,0,,0,196,196,191,1,pila,,,,,
,,,,,,66cb185ac5d99ffdcc950900,676192165fb32c2e1fb7aee6,67d16b5f342232e9209cc11c,2025-03-12_16h34.32.317,Tarea de decisión léxica,2024.2.5,Win32,60.97560976,,,,,,,,,,,,,,,,,,,,,,429.6813,430.414,a,0,0.0556,,0.0556,0,430.4178,430.9119,,,,,,416,FEM,NOWORD,DIS,150,juira,,el,,430.9122,430.9137,0.049826368,-0.332407443,0,0,0,,0,197,197,415,1,jaula,,,,,
,,,,,,66cb185ac5d99ffdcc950900,676192165fb32c2e1fb7aee6,67d16b5f342232e9209cc11c,2025-03-12_16h34.32.317,Tarea de decisión léxica,2024.2.5,Win32,60.97560976,,,,,,,,,,,,,,,,,,,,,,430.9165,432.0475,a,1,0.4592,,0.4592,1,432.0502,432.5479,,,,,,111,MAS,WORD,DIS,150,muro,,la,,432.5481,432.5485,0.049826368,-0.332407443,0,0,0,,0,198,198,110,1,siro,,,,,
,,,,,,66cb185ac5d99ffdcc950900,676192165fb32c2e1fb7aee6,67d16b5f342232e9209cc11c,2025-03-12_16h34.32.317,Tarea de decisión léxica,2024.2.5,Win32,60.97560976,,,,,,,,,,,,,,,,,,,,,,432.5517,433.4947,a,0,0.2816,,0.2816,0,433.4975,433.9941,,,,,,202,FEM,NOWORD,AGR,150,cusa,,la,,433.9991,434.0011,0.049826368,-0.332407443,0,0,0,,0,199,199,201,1,cuna,,,,,
,,,,,,66cb185ac5d99ffdcc950900,676192165fb32c2e1fb7aee6,67d16b5f342232e9209cc11c,2025-03-12_16h34.32.317,Tarea de decisión léxica,2024.2.5,Win32,60.97560976,,,,,,,,,,,,,,,,,,,,,,434.0032,434.762,l,1,0.0807,,0.0807,1,434.7646,435.2616,,,,,,350,MAS,NOWORD,AGR,150,cosir,,el,,435.262,435.2628,0.049826368,-0.332407443,0,0,0,,0,200,200,349,1,color,,,,,
,,,,,,66cb185ac5d99ffdcc950900,676192165fb32c2e1fb7aee6,67d16b5f342232e9209cc11c,2025-03-12_16h34.32.317,Tarea de decisión léxica,2024.2.5,Win32,60.97560976,,,,,,,,,,,,,,,,,,,,,,435.2655,436.5943,a,0,0.6489,,0.6489,0,436.5975,437.0847,,,,,,164,FEM,NOWORD,DIS,150,laga,,el,,437.0849,437.0856,0.049826368,-0.332407443,0,0,0,,0,201,201,163,1,fama,,,,,
,,,,,,66cb185ac5d99ffdcc950900,676192165fb32c2e1fb7aee6,67d16b5f342232e9209cc11c,2025-03-12_16h34.32.317,Tarea de decisión léxica,2024.2.5,Win32,60.97560976,,,,,,,,,,,,,,,,,,,,,,437.0888,437.9678,a,1,0.2007,,0.2007,1,437.9702,438.4614,,,,,,313,MAS,WORD,AGR,150,novio,,el,,438.4617,438.4627,0.049826368,-0.332407443,0,0,0,,0,202,202,312,1,govio,,,,,
,,,,,,66cb185ac5d99ffdcc950900,676192165fb32c2e1fb7aee6,67d16b5f342232e9209cc11c,2025-03-12_16h34.32.317,Tarea de decisión léxica,2024.2.5,Win32,60.97560976,,,,,,,,,,,,,,,,,,,,,,438.4657,439.9175,a,0,0.7771,,0.7771,0,439.9209,440.4091,,,,,,252,MAS,NOWORD,DIS,150,refor,,la,,440.4132,440.4154,0.049826368,-0.332407443,0,0,0,,0,203,203,251,1,señor,,,,,
,,,,,,66cb185ac5d99ffdcc950900,676192165fb32c2e1fb7aee6,67d16b5f342232e9209cc11c,2025-03-12_16h34.32.317,Tarea de decisión léxica,2024.2.5,Win32,60.97560976,,,,,,,,,,,,,,,,,,,,,,440.4173,441.2257,a,1,0.1414,,0.1414,1,441.2279,441.725,,,,,,407,FEM,WORD,DIS,150,cueva,,el,,441.7251,441.7252,0.049826368,-0.332407443,0,0,0,,0,204,204,406,1,cauba,,,,,
,,,,,,66cb185ac5d99ffdcc950900,676192165fb32c2e1fb7aee6,67d16b5f342232e9209cc11c,2025-03-12_16h34.32.317,Tarea de decisión léxica,2024.2.5,Win32,60.97560976,,,,,,,,,,,,,,,,,,,,,,441.7263,443.5594,a,1,1.1548,,1.1548,1,443.5597,444.0593,,,,,,479,MAS,WORD,DIS,150,rumbo,,la,,444.0594,444.0599,0.049826368,-0.332407443,0,0,0,,0,205,205,478,1,rimpo,,,,,
,,,,,,66cb185ac5d99ffdcc950900,676192165fb32c2e1fb7aee6,67d16b5f342232e9209cc11c,2025-03-12_16h34.32.317,Tarea de decisión léxica,2024.2.5,Win32,60.97560976,,,,,,,,,,,,,,,,,,,,,,444.0631,444.926,a,1,0.1881,,0.1881,1,444.9262,445.4258,,,,,,401,MAS,WORD,AGR,150,polvo,,el,,445.426,445.4266,0.049826368,-0.332407443,0,0,0,,0,206,206,400,1,pirvo,,,,,
,,,,,,66cb185ac5d99ffdcc950900,676192165fb32c2e1fb7aee6,67d16b5f342232e9209cc11c,2025-03-12_16h34.32.317,Tarea de decisión léxica,2024.2.5,Win32,60.97560976,,,,,,,,,,,,,,,,,,,,,,445.4316,446.1255,l,0,0.0181,,0.0181,0,446.1277,446.6257,,,,,,77,MAS,WORD,AGR,150,loco,,el,,446.626,446.6265,0.049826368,-0.332407443,0,0,0,,0,207,207,76,1,fodo,,,,,
,,,,,,66cb185ac5d99ffdcc950900,676192165fb32c2e1fb7aee6,67d16b5f342232e9209cc11c,2025-03-12_16h34.32.317,Tarea de decisión léxica,2024.2.5,Win32,60.97560976,,,,,,,,,,,,,,,,,,,,,,446.6302,448.2921,a,1,0.9877,,0.9877,1,448.2942,448.7925,,,,,,137,MAS,WORD,AGR,150,nene,,el,,448.7969,448.799,0.049826368,-0.332407443,0,0,0,,0,208,208,136,1,pamo,,,,,
,,,,,,66cb185ac5d99ffdcc950900,676192165fb32c2e1fb7aee6,67d16b5f342232e9209cc11c,2025-03-12_16h34.32.317,Tarea de decisión léxica,2024.2.5,Win32,60.97560976,,,,,,,,,,,,,,,,,,,,,,448.801,450.3754,a,0,0.9028,,0.9028,0,450.3773,450.8754,,,,,,126,MAS,NOWORD,AGR,150,vudo,,el,,450.8755,450.876,0.049826368,-0.332407443,0,0,0,,0,209,209,125,1,lujo,,,,,
,,,,,,66cb185ac5d99ffdcc950900,676192165fb32c2e1fb7aee6,67d16b5f342232e9209cc11c,2025-03-12_16h34.32.317,Tarea de decisión léxica,2024.2.5,Win32,60.97560976,,,,,,,,,,,,,,,,,,,,,,450.8801,451.9086,a,1,0.3529,,0.3529,1,451.9111,452.4088,,,,,,91,FEM,WORD,DIS,150,taza,,el,,452.4089,452.4094,0.049826368,-0.332407443,0,0,0,,0,210,210,90,1,sava,,,,,
,,,,,,66cb185ac5d99ffdcc950900,676192165fb32c2e1fb7aee6,67d16b5f342232e9209cc11c,2025-03-12_16h34.32.317,Tarea de decisión léxica,2024.2.5,Win32,60.97560976,,,,,,,,,,,,,,,,,,,,,,452.4126,453.1419,a,1,0.052,,0.052,1,453.1421,453.6415,,,,,,315,FEM,WORD,DIS,150,reina,,el,,453.6418,453.6423,0.049826368,-0.332407443,0,0,0,,0,211,211,314,1,riosa,,,,,
,,,,,,66cb185ac5d99ffdcc950900,676192165fb32c2e1fb7aee6,67d16b5f342232e9209cc11c,2025-03-12_16h34.32.317,Tarea de decisión léxica,2024.2.5,Win32,60.97560976,,,,,,,,,,,,,,,,,,,,,,453.6454,454.3422,a,1,0.0194,,0.0194,1,454.3426,454.8418,,,,,,61,FEM,WORD,AGR,150,obra,,la,,454.8419,454.8426,0.049826368,-0.332407443,0,0,0,,0,212,212,60,1,efla,,,,,
,,,,,,66cb185ac5d99ffdcc950900,676192165fb32c2e1fb7aee6,67d16b5f342232e9209cc11c,2025-03-12_16h34.32.317,Tarea de decisión léxica,2024.2.5,Win32,60.97560976,,,,,,,,,,,,,,,,,,,,,,454.8453,456.5573,l,1,1.0274,,1.0274,1,456.5574,457.0582,,,,,,10,MAS,NOWORD,AGR,150,sibo,,el,,457.0619,457.0648,0.049826368,-0.332407443,0,0,0,,0,213,213,9,1,tipo,,,,,
,,,,,,66cb185ac5d99ffdcc950900,676192165fb32c2e1fb7aee6,67d16b5f342232e9209cc11c,2025-03-12_16h34.32.317,Tarea de decisión léxica,2024.2.5,Win32,60.97560976,,,,,,,,,,,,,,,,,,,,,,457.0666,457.8914,l,1,0.1542,,0.1542,1,457.8916,458.3916,,,,,,180,MAS,NOWORD,DIS,150,sono,,la,,458.3918,458.3923,0.049826368,-0.332407443,0,0,0,,0,214,214,179,1,toro,,,,,
,,,,,,66cb185ac5d99ffdcc950900,676192165fb32c2e1fb7aee6,67d16b5f342232e9209cc11c,2025-03-12_16h34.32.317,Tarea de decisión léxica,2024.2.5,Win32,60.97560976,,,,,,,,,,,,,,,,,,,,,,458.3963,459.0748,a,0,0.0053,,0.0053,0,459.0805,459.5745,,,,,,468,MAS,NOWORD,DIS,150,peiso,,la,,459.5746,459.5753,0.049826368,-0.332407443,0,0,0,,0,215,215,467,1,piano,,,,,
,,,,,,66cb185ac5d99ffdcc950900,676192165fb32c2e1fb7aee6,67d16b5f342232e9209cc11c,2025-03-12_16h34.32.317,Tarea de decisión léxica,2024.2.5,Win32,60.97560976,,,,,,,,,,,,,,,,,,,,,,459.5794,461.0251,a,0,0.7745,,0.7745,0,461.0254,461.5244,,,,,,302,FEM,NOWORD,AGR,150,ranga,,la,,461.5246,461.5251,0.049826368,-0.332407443,0,0,0,,0,216,216,301,1,banda,,,,,
,,,,,,66cb185ac5d99ffdcc950900,676192165fb32c2e1fb7aee6,67d16b5f342232e9209cc11c,2025-03-12_16h34.32.317,Tarea de decisión léxica,2024.2.5,Win32,60.97560976,,,,,,,,,,,,,,,,,,,,,,461.5285,462.591,a,1,0.387,,0.387,1,462.5929,463.091,,,,,,269,MAS,WORD,AGR,150,perro,,el,,463.0912,463.0917,0.049826368,-0.332407443,0,0,0,,0,217,217,268,1,mello,,,,,
,,,,,,66cb185ac5d99ffdcc950900,676192165fb32c2e1fb7aee6,67d16b5f342232e9209cc11c,2025-03-12_16h34.32.317,Tarea de decisión léxica,2024.2.5,Win32,60.97560976,,,,,,,,,,,,,,,,,,,,,,463.0946,464.4242,a,0,0.6513,,0.6513,0,464.4261,464.9244,,,,,,434,MAS,NOWORD,AGR,150,durco,,el,,464.9275,464.9303,0.049826368,-0.332407443,0,0,0,,0,218,218,433,1,disco,,,,,
,,,,,,66cb185ac5d99ffdcc950900,676192165fb32c2e1fb7aee6,67d16b5f342232e9209cc11c,2025-03-12_16h34.32.317,Tarea de decisión léxica,2024.2.5,Win32,60.97560976,,,,,,,,,,,,,,,,,,,,,,464.932,465.6573,a,0,0.0571,,0.0571,0,465.6576,466.157,,,,,,288,FEM,NOWORD,DIS,150,fosta,,el,,466.1571,466.1575,0.049826368,-0.332407443,0,0,0,,0,219,219,287,1,lista,,,,,
,,,,,,66cb185ac5d99ffdcc950900,676192165fb32c2e1fb7aee6,67d16b5f342232e9209cc11c,2025-03-12_16h34.32.317,Tarea de decisión léxica,2024.2.5,Win32,60.97560976,,,,,,,,,,,,,,,,,,,,,,466.1597,467.3599,l,0,0.5281,,0.5281,0,467.3602,467.8574,,,,,,391,MAS,WORD,DIS,150,dueño,,la,,467.8576,467.8581,0.049826368,-0.332407443,0,0,0,,0,220,220,390,1,dievo,,,,,
,,,,,,66cb185ac5d99ffdcc950900,676192165fb32c2e1fb7aee6,67d16b5f342232e9209cc11c,2025-03-12_16h34.32.317,Tarea de decisión léxica,2024.2.5,Win32,60.97560976,,,,,,,,,,,,,,,,,,,,,,467.8609,469.2242,l,1,0.686,,0.686,1,469.2263,469.7242,,,,,,266,FEM,NOWORD,AGR,150,pitat,,la,,469.7243,469.7252,0.049826368,-0.332407443,0,0,0,,0,221,221,265,1,mitad,,,,,
,,,,,,66cb185ac5d99ffdcc950900,676192165fb32c2e1fb7aee6,67d16b5f342232e9209cc11c,2025-03-12_16h34.32.317,Tarea de decisión léxica,2024.2.5,Win32,60.97560976,,,,,,,,,,,,,,,,,,,,,,469.7283,470.8905,a,1,0.49,,0.49,1,470.8908,471.39,,,,,,361,FEM,WORD,AGR,150,torre,,la,,471.3901,471.3906,0.049826368,-0.332407443,0,0,0,,0,222,222,360,1,solle,,,,,
,,,,,,66cb185ac5d99ffdcc950900,676192165fb32c2e1fb7aee6,67d16b5f342232e9209cc11c,2025-03-12_16h34.32.317,Tarea de decisión léxica,2024.2.5,Win32,60.97560976,,,,,,,,,,,,,,,,,,,,,,471.3937,472.073,l,0,0.0057,,0.0057,0,472.0741,472.574,,,,,,151,MAS,WORD,DIS,150,tomo,,la,,472.5797,472.5816,0.049826368,-0.332407443,0,0,0,,0,223,223,150,1,sogo,,,,,
,,,,,,66cb185ac5d99ffdcc950900,676192165fb32c2e1fb7aee6,67d16b5f342232e9209cc11c,2025-03-12_16h34.32.317,Tarea de decisión léxica,2024.2.5,Win32,60.97560976,,,,,,,,,,,,,,,,,,,,,,472.5832,473.9768,a,0,0.7302,,0.7302,0,473.9769,474.4733,,,,,,396,FEM,NOWORD,DIS,150,paeda,,el,,474.4736,474.4741,0.049826368,-0.332407443,0,0,0,,0,224,224,395,1,caída,,,,,
,,,,,,66cb185ac5d99ffdcc950900,676192165fb32c2e1fb7aee6,67d16b5f342232e9209cc11c,2025-03-12_16h34.32.317,Tarea de decisión léxica,2024.2.5,Win32,60.97560976,,,,,,,,,,,,,,,,,,,,,,474.4764,475.1565,a,1,0.0008,,0.0008,1,475.1592,475.6568,,,,,,385,FEM,WORD,AGR,150,letra,,la,,475.657,475.6576,0.049826368,-0.332407443,0,0,0,,0,225,225,384,1,febra,,,,,
,,,,,,66cb185ac5d99ffdcc950900,676192165fb32c2e1fb7aee6,67d16b5f342232e9209cc11c,2025-03-12_16h34.32.317,Tarea de decisión léxica,2024.2.5,Win32,60.97560976,,,,,,,,,,,,,,,,,,,,,,475.6598,477.0916,a,0,0.756,,0.756,0,477.0934,477.5941,,,,,,4,FEM,NOWORD,DIS,150,dica,,el,,477.5942,477.5947,0.049826368,-0.332407443,0,0,0,,0,226,226,3,1,vida,,,,,
,,,,,,66cb185ac5d99ffdcc950900,676192165fb32c2e1fb7aee6,67d16b5f342232e9209cc11c,2025-03-12_16h34.32.317,Tarea de decisión léxica,2024.2.5,Win32,60.97560976,,,,,,,,,,,,,,,,,,,,,,477.5967,479.5297,a,1,1.2497,,1.2497,1,479.5313,480.0241,,,,,,403,FEM,WORD,DIS,150,prima,,el,,480.0278,480.0295,0.049826368,-0.332407443,0,0,0,,0,227,227,402,1,grisa,,,,,
,,,,,,66cb185ac5d99ffdcc950900,676192165fb32c2e1fb7aee6,67d16b5f342232e9209cc11c,2025-03-12_16h34.32.317,Tarea de decisión léxica,2024.2.5,Win32,60.97560976,,,,,,,,,,,,,,,,,,,,,,480.0309,481.2488,l,1,0.5492,,0.5492,1,481.2491,481.7476,,,,,,140,MAS,NOWORD,DIS,150,nila,,la,,481.7478,481.7483,0.049826368,-0.332407443,0,0,0,,0,228,228,139,1,mago,,,,,
,,,,,,66cb185ac5d99ffdcc950900,676192165fb32c2e1fb7aee6,67d16b5f342232e9209cc11c,2025-03-12_16h34.32.317,Tarea de decisión léxica,2024.2.5,Win32,60.97560976,,,,,,,,,,,,,,,,,,,,,,481.751,482.5745,a,1,0.1563,,0.1563,1,482.5752,483.0637,,,,,,475,FEM,WORD,DIS,150,manta,,el,,483.0639,483.0645,0.049826368,-0.332407443,0,0,0,,0,229,229,474,1,mucta,,,,,
,,,,,,66cb185ac5d99ffdcc950900,676192165fb32c2e1fb7aee6,67d16b5f342232e9209cc11c,2025-03-12_16h34.32.317,Tarea de decisión léxica,2024.2.5,Win32,60.97560976,,,,,,,,,,,,,,,,,,,,,,483.0678,484.5748,l,1,0.8363,,0.8363,1,484.5756,485.0732,,,,,,452,FEM,NOWORD,DIS,150,clita,,el,,485.0734,485.0746,0.049826368,-0.332407443,0,0,0,,0,230,230,451,1,fruta,,,,,
,,,,,,66cb185ac5d99ffdcc950900,676192165fb32c2e1fb7aee6,67d16b5f342232e9209cc11c,2025-03-12_16h34.32.317,Tarea de decisión léxica,2024.2.5,Win32,60.97560976,,,,,,,,,,,,,,,,,,,,,,485.0786,486.1736,a,0,0.4153,,0.4153,0,486.1761,486.6753,,,,,,172,MAS,NOWORD,DIS,150,niro,,la,,486.6754,486.6755,0.049826368,-0.332407443,0,0,0,,0,231,231,171,1,hilo,,,,,
,,,,,,66cb185ac5d99ffdcc950900,676192165fb32c2e1fb7aee6,67d16b5f342232e9209cc11c,2025-03-12_16h34.32.317,Tarea de decisión léxica,2024.2.5,Win32,60.97560976,,,,,,,,,,,,,,,,,,,,,,486.6765,487.3572,l,1,0.0036,,0.0036,1,487.3597,487.8573,,,,,,242,MAS,NOWORD,AGR,150,mirdo,,el,,487.8611,487.8627,0.049826368,-0.332407443,0,0,0,,0,232,232,241,1,mundo,,,,,
,,,,,,66cb185ac5d99ffdcc950900,676192165fb32c2e1fb7aee6,67d16b5f342232e9209cc11c,2025-03-12_16h34.32.317,Tarea de decisión léxica,2024.2.5,Win32,60.97560976,,,,,,,,,,,,,,,,,,,,,,487.8645,489.5634,l,0,1.0274,,1.0274,0,489.5657,490.0568,,,,,,425,FEM,WORD,AGR,150,viuda,,la,,490.0568,490.0575,0.049826368,-0.332407443,0,0,0,,0,233,233,424,1,virca,,,,,
,,,,,,66cb185ac5d99ffdcc950900,676192165fb32c2e1fb7aee6,67d16b5f342232e9209cc11c,2025-03-12_16h34.32.317,Tarea de decisión léxica,2024.2.5,Win32,60.97560976,,,,,,,,,,,,,,,,,,,,,,490.0614,491.5073,a,1,0.7619,,0.7619,1,491.5111,492.0103,,,,,,183,FEM,WORD,DIS,150,raya,,el,,492.0105,492.0109,0.049826368,-0.332407443,0,0,0,,0,234,234,182,1,raad,,,,,
,,,,,,66cb185ac5d99ffdcc950900,676192165fb32c2e1fb7aee6,67d16b5f342232e9209cc11c,2025-03-12_16h34.32.317,Tarea de decisión léxica,2024.2.5,Win32,60.97560976,,,,,,,,,,,,,,,,,,,,,,492.014,492.7249,a,0,0.0413,,0.0413,0,492.7276,493.2133,,,,,,178,MAS,NOWORD,AGR,150,bito,,el,,493.2135,493.2139,0.049826368,-0.332407443,0,0,0,,0,235,235,177,1,reto,,,,,
,,,,,,66cb185ac5d99ffdcc950900,676192165fb32c2e1fb7aee6,67d16b5f342232e9209cc11c,2025-03-12_16h34.32.317,Tarea de decisión léxica,2024.2.5,Win32,60.97560976,,,,,,,,,,,,,,,,,,,,,,493.2167,494.8318,a,0,0.9498,,0.9498,0,494.8321,495.3237,,,,,,430,FEM,NOWORD,AGR,150,tenta,,la,,495.324,495.3248,0.049826368,-0.332407443,0,0,0,,0,236,236,429,1,tarta,,,,,
,,,,,,66cb185ac5d99ffdcc950900,676192165fb32c2e1fb7aee6,67d16b5f342232e9209cc11c,2025-03-12_16h34.32.317,Tarea de decisión léxica,2024.2.5,Win32,60.97560976,,,,,,,,,,,,,,,,,,,,,,495.3281,496.2125,l,0,0.2143,,0.2143,0,496.2128,496.7073,,,,,,347,FEM,WORD,DIS,150,pieza,,el,,496.7118,496.7142,0.049826368,-0.332407443,0,0,0,,0,237,237,346,1,mueza,,,,,
,,,,,,66cb185ac5d99ffdcc950900,676192165fb32c2e1fb7aee6,67d16b5f342232e9209cc11c,2025-03-12_16h34.32.317,Tarea de decisión léxica,2024.2.5,Win32,60.97560976,,,,,,,,,,,,,,,,,,,,,,496.7168,498.0284,a,1,0.6319,,0.6319,1,498.0304,498.5295,,,,,,363,FEM,WORD,DIS,150,deuda,,el,,498.5296,498.5303,0.049826368,-0.332407443,0,0,0,,0,238,238,362,1,veida,,,,,
,,,,,,66cb185ac5d99ffdcc950900,676192165fb32c2e1fb7aee6,67d16b5f342232e9209cc11c,2025-03-12_16h34.32.317,Tarea de decisión léxica,2024.2.5,Win32,60.97560976,,,,,,,,,,,,,,,,,,,,,,498.5341,499.2631,l,0,0.0626,,0.0626,0,499.2654,499.7624,,,,,,181,FEM,WORD,AGR,150,seda,,la,,499.7625,499.7635,0.049826368,-0.332407443,0,0,0,,0,239,239,180,1,teda,,,,,
,,,,,,66cb185ac5d99ffdcc950900,676192165fb32c2e1fb7aee6,67d16b5f342232e9209cc11c,2025-03-12_16h34.32.317,Tarea de decisión léxica,2024.2.5,Win32,60.97560976,,,,,,,,,,,,,,,,,,,,,,499.768,501.323,a,0,0.8881,,0.8881,0,501.3236,501.8219,,,,,,22,MAS,NOWORD,AGR,150,blan,,el,,501.8222,501.823,0.049826368,-0.332407443,0,0,0,,0,240,240,21,1,plan,,,,,
,,,,,,66cb185ac5d99ffdcc950900,676192165fb32c2e1fb7aee6,67d16b5f342232e9209cc11c,2025-03-12_16h34.32.317,Tarea de decisión léxica,2024.2.5,Win32,60.97560976,,,,,,,,,,,,,,,,,,,,,,501.8247,502.5116,a,0,0.0016,,0.0016,0,502.5119,503.0066,,,,,,196,FEM,NOWORD,DIS,150,sira,,el,,503.007,503.0078,0.049826368,-0.332407443,0,0,0,,0,241,241,195,1,tela,,,,,
,,,,,,66cb185ac5d99ffdcc950900,676192165fb32c2e1fb7aee6,67d16b5f342232e9209cc11c,2025-03-12_16h34.32.317,Tarea de decisión léxica,2024.2.5,Win32,60.97560976,,,,,,,,,,,,,,,,,,,,,,503.0108,503.8385,a,0,0.1536,,0.1536,0,503.8388,504.343,,,,,,46,FEM,NOWORD,AGR,150,pema,,la,,504.3466,504.3485,0.049826368,-0.332407443,0,0,0,,0,242,242,45,1,mesa,,,,,
,,,,,,66cb185ac5d99ffdcc950900,676192165fb32c2e1fb7aee6,67d16b5f342232e9209cc11c,2025-03-12_16h34.32.317,Tarea de decisión léxica,2024.2.5,Win32,60.97560976,,,,,,,,,,,,,,,,,,,,,,504.3505,505.1071,l,0,0.0768,,0.0768,0,505.1072,505.6061,,,,,,123,FEM,WORD,DIS,150,flor,,el,,505.6065,505.6072,0.049826368,-0.332407443,0,0,0,,0,243,243,122,1,maba,,,,,
,,,,,,66cb185ac5d99ffdcc950900,676192165fb32c2e1fb7aee6,67d16b5f342232e9209cc11c,2025-03-12_16h34.32.317,Tarea de decisión léxica,2024.2.5,Win32,60.97560976,,,,,,,,,,,,,,,,,,,,,,505.609,507.2459,a,1,0.9676,,0.9676,1,507.2482,507.7396,,,,,,281,MAS,WORD,AGR,150,cielo,,el,,507.7398,507.7406,0.049826368,-0.332407443,0,0,0,,0,244,244,280,1,cauro,,,,,
,,,,,,66cb185ac5d99ffdcc950900,676192165fb32c2e1fb7aee6,67d16b5f342232e9209cc11c,2025-03-12_16h34.32.317,Tarea de decisión léxica,2024.2.5,Win32,60.97560976,,,,,,,,,,,,,,,,,,,,,,507.7425,508.638,l,0,0.2059,,0.2059,0,508.6407,509.1281,,,,,,285,MAS,WORD,AGR,150,error,,el,,509.1283,509.1289,0.049826368,-0.332407443,0,0,0,,0,245,245,284,1,echor,,,,,
,,,,,,66cb185ac5d99ffdcc950900,676192165fb32c2e1fb7aee6,67d16b5f342232e9209cc11c,2025-03-12_16h34.32.317,Tarea de decisión léxica,2024.2.5,Win32,60.97560976,,,,,,,,,,,,,,,,,,,,,,509.1325,510.9059,a,1,1.1051,,1.1051,1,510.9085,511.4115,,,,,,259,MAS,WORD,DIS,150,juego,,la,,511.4117,511.4123,0.049826368,-0.332407443,0,0,0,,0,246,246,258,1,jaumo,,,,,
,,,,,,66cb185ac5d99ffdcc950900,676192165fb32c2e1fb7aee6,67d16b5f342232e9209cc11c,2025-03-12_16h34.32.317,Tarea de decisión léxica,2024.2.5,Win32,60.97560976,,,,,,,,,,,,,,,,,,,,,,511.4152,512.1224,a,0,0.0352,,0.0352,0,512.1251,512.6113,,,,,,128,MAS,NOWORD,DIS,150,itio,,la,,512.6145,512.6162,0.049826368,-0.332407443,0,0,0,,0,247,247,127,1,pico,,,,,
,,,,,,66cb185ac5d99ffdcc950900,676192165fb32c2e1fb7aee6,67d16b5f342232e9209cc11c,2025-03-12_16h34.32.317,Tarea de decisión léxica,2024.2.5,Win32,60.97560976,,,,,,,,,,,,,,,,,,,,,,512.6179,514.1222,a,0,0.8366,,0.8366,0,514.1229,514.6223,,,,,,186,MAS,NOWORD,AGR,150,raol,,el,,514.6227,514.6236,0.049826368,-0.332407443,0,0,0,,0,248,248,185,1,baúl,,,,,
,,,,,,66cb185ac5d99ffdcc950900,676192165fb32c2e1fb7aee6,67d16b5f342232e9209cc11c,2025-03-12_16h34.32.317,Tarea de decisión léxica,2024.2.5,Win32,60.97560976,,,,,,,,,,,,,,,,,,,,,,514.6271,515.655,a,1,0.3508,,0.3508,1,515.6575,516.1553,,,,,,277,MAS,WORD,AGR,150,fuego,,el,,516.1555,516.1565,0.049826368,-0.332407443,0,0,0,,0,249,249,276,1,vuemo,,,,,
,,,,,,66cb185ac5d99ffdcc950900,676192165fb32c2e1fb7aee6,67d16b5f342232e9209cc11c,2025-03-12_16h34.32.317,Tarea de decisión léxica,2024.2.5,Win32,60.97560976,,,,,,,,,,,,,,,,,,,,,,516.1595,516.9043,l,1,0.0616,,0.0616,1,516.9049,517.4049,,,,,,220,FEM,NOWORD,DIS,150,miva,,el,,517.4052,517.406,0.049826368,-0.332407443,0,0,0,,0,250,250,219,1,pipa,,,,,
,,,,,,66cb185ac5d99ffdcc950900,676192165fb32c2e1fb7aee6,67d16b5f342232e9209cc11c,2025-03-12_16h34.32.317,Tarea de decisión léxica,2024.2.5,Win32,60.97560976,,,,,,,,,,,,,,,,,,,,,,517.4087,518.2714,a,1,0.1733,,0.1733,1,518.272,518.7773,,,,,,39,MAS,WORD,DIS,150,voto,,la,,518.7829,518.7847,0.049826368,-0.332407443,0,0,0,,0,251,251,38,1,redo,,,,,
,,,,,,66cb185ac5d99ffdcc950900,676192165fb32c2e1fb7aee6,67d16b5f342232e9209cc11c,2025-03-12_16h34.32.317,Tarea de decisión léxica,2024.2.5,Win32,60.97560976,,,,,,,,,,,,,,,,,,,,,,518.7887,520.1896,l,0,0.7392,,0.7392,0,520.1929,520.6941,,,,,,245,FEM,WORD,AGR,150,madre,,la,,520.6942,520.695,0.049826368,-0.332407443,0,0,0,,0,252,252,244,1,pafle,,,,,
,,,,,,66cb185ac5d99ffdcc950900,676192165fb32c2e1fb7aee6,67d16b5f342232e9209cc11c,2025-03-12_16h34.32.317,Tarea de decisión léxica,2024.2.5,Win32,60.97560976,,,,,,,,,,,,,,,,,,,,,,520.6983,521.6254,a,1,0.2574,,0.2574,1,521.6279,522.1208,,,,,,155,FEM,WORD,DIS,150,fuga,,el,,522.1211,522.1221,0.049826368,-0.332407443,0,0,0,,0,253,253,154,1,luma,,,,,
,,,,,,66cb185ac5d99ffdcc950900,676192165fb32c2e1fb7aee6,67d16b5f342232e9209cc11c,2025-03-12_16h34.32.317,Tarea de decisión léxica,2024.2.5,Win32,60.97560976,,,,,,,,,,,,,,,,,,,,,,522.1257,523.3538,a,0,0.5508,,0.5508,0,523.3568,523.8544,,,,,,278,MAS,NOWORD,AGR,150,vuemo,,el,,523.8547,523.8562,0.049826368,-0.332407443,0,0,0,,0,254,254,277,1,fuego,,,,,
,,,,,,66cb185ac5d99ffdcc950900,676192165fb32c2e1fb7aee6,67d16b5f342232e9209cc11c,2025-03-12_16h34.32.317,Tarea de decisión léxica,2024.2.5,Win32,60.97560976,,,,,,,,,,,,,,,,,,,,,,523.8596,525.8699,a,0,1.3307,,1.3307,0,525.8703,526.3712,,,,,,132,FEM,NOWORD,DIS,150,fada,,el,,526.3715,526.3726,0.049826368,-0.332407443,0,0,0,,0,255,255,131,1,mina,,,,,
,,,,,,66cb185ac5d99ffdcc950900,676192165fb32c2e1fb7aee6,67d16b5f342232e9209cc11c,2025-03-12_16h34.32.317,Tarea de decisión léxica,2024.2.5,Win32,60.97560976,,,,,,,,,,,,,,,,,,,,,,526.3764,527.0799,a,0,0.0324,,0.0324,0,527.0802,527.5715,,,,,,54,FEM,NOWORD,AGR,150,rora,,la,,527.5753,527.5776,0.049826368,-0.332407443,0,0,0,,0,256,256,53,1,boda,,,,,
,,,,,,66cb185ac5d99ffdcc950900,676192165fb32c2e1fb7aee6,67d16b5f342232e9209cc11c,2025-03-12_16h34.32.317,Tarea de decisión léxica,2024.2.5,Win32,60.97560976,,,,,,,,,,,,,,,,,,,,,,527.5803,528.6118,l,1,0.3648,,0.3648,1,528.6146,529.104,,,,,,346,FEM,NOWORD,AGR,150,anera,,la,,529.1042,529.1049,0.049826368,-0.332407443,0,0,0,,0,257,257,345,1,arena,,,,,
,,,,,,66cb185ac5d99ffdcc950900,676192165fb32c2e1fb7aee6,67d16b5f342232e9209cc11c,2025-03-12_16h34.32.317,Tarea de decisión léxica,2024.2.5,Win32,60.97560976,,,,,,,,,,,,,,,,,,,,,,529.1106,530.0532,l,1,0.2665,,0.2665,1,530.0533,530.5537,,,,,,398,FEM,NOWORD,AGR,150,trigi,,la,,530.5539,530.5545,0.049826368,-0.332407443,0,0,0,,0,258,258,397,1,tribu,,,,,
,,,,,,66cb185ac5d99ffdcc950900,676192165fb32c2e1fb7aee6,67d16b5f342232e9209cc11c,2025-03-12_16h34.32.317,Tarea de decisión léxica,2024.2.5,Win32,60.97560976,,,,,,,,,,,,,,,,,,,,,,530.5582,532.5707,l,0,1.336,,1.336,0,532.5748,533.0711,,,,,,413,FEM,WORD,AGR,150,rueda,,la,,533.0713,533.0721,0.049826368,-0.332407443,0,0,0,,0,259,259,412,1,bieda,,,,,
,,,,,,66cb185ac5d99ffdcc950900,676192165fb32c2e1fb7aee6,67d16b5f342232e9209cc11c,2025-03-12_16h34.32.317,Tarea de decisión léxica,2024.2.5,Win32,60.97560976,,,,,,,,,,,,,,,,,,,,,,533.0773,534.3878,a,0,0.6227,,0.6227,0,534.3882,534.8906,,,,,,450,FEM,NOWORD,AGR,150,crusa,,la,,534.8908,534.8913,0.049826368,-0.332407443,0,0,0,,0,260,260,449,1,pluma,,,,,
,,,,,,66cb185ac5d99ffdcc950900,676192165fb32c2e1fb7aee6,67d16b5f342232e9209cc11c,2025-03-12_16h34.32.317,Tarea de decisión léxica,2024.2.5,Win32,60.97560976,,,,,,,,,,,,,,,,,,,,,,534.8946,535.9272,a,0,0.3512,,0.3512,0,535.9274,536.4208,,,,,,38,MAS,NOWORD,AGR,150,gaco,,el,,536.4246,536.4262,0.049826368,-0.332407443,0,0,0,,0,261,261,37,1,rato,,,,,
,,,,,,66cb185ac5d99ffdcc950900,676192165fb32c2e1fb7aee6,67d16b5f342232e9209cc11c,2025-03-12_16h34.32.317,Tarea de decisión léxica,2024.2.5,Win32,60.97560976,,,,,,,,,,,,,,,,,,,,,,536.428,538.6917,a,0,1.582,,1.582,0,538.6919,539.1872,,,,,,382,MAS,NOWORD,AGR,150,nusor,,el,,539.1877,539.1887,0.049826368,-0.332407443,0,0,0,,0,262,262,381,1,humor,,,,,
,,,,,,66cb185ac5d99ffdcc950900,676192165fb32c2e1fb7aee6,67d16b5f342232e9209cc11c,2025-03-12_16h34.32.317,Tarea de decisión léxica,2024.2.5,Win32,60.97560976,,,,,,,,,,,,,,,,,,,,,,539.192,540.3782,a,0,0.5272,,0.5272,0,540.3784,540.8704,,,,,,272,FEM,NOWORD,DIS,150,refal,,el,,540.8708,540.8723,0.049826368,-0.332407443,0,0,0,,0,263,263,271,1,señal,,,,,
,,,,,,66cb185ac5d99ffdcc950900,676192165fb32c2e1fb7aee6,67d16b5f342232e9209cc11c,2025-03-12_16h34.32.317,Tarea de decisión léxica,2024.2.5,Win32,60.97560976,,,,,,,,,,,,,,,,,,,,,,540.8755,541.5529,a,0,0.001,,0.001,0,541.5533,542.0431,,,,,,246,FEM,NOWORD,AGR,150,pafle,,la,,542.0432,542.044,0.049826368,-0.332407443,0,0,0,,0,264,264,245,1,madre,,,,,
