counterbalancing_condition,consent_prescreening.block_1/age_years,consent_prescreening.block_1/declare_consent,consent_prescreening.block_1/gender,consent_prescreening.block_1/language_disorder,consent_prescreening.block_1/first_language,PROLIFIC_PID,STUDY_ID,SESSION_ID,date,expName,psychopyVersion,OS,frameRate,check_prescreening_answers.started,check_prescreening_answers.stopped,Instructions.started,Instructions.stopped,instr_done_keyboard.keys,instr_done_touch.x,instr_done_touch.y,instr_done_touch.leftButton,instr_done_touch.midButton,instr_done_touch.rightButton,instr_done_touch.clicked_name,instruction_pages.thisRepN,instruction_pages.thisTrialN,instruction_pages.thisN,instruction_pages.thisIndex,instruction_pages.ran,pageN,phase,instruct_text,has_image,instruct_image,presentTrial.started,presentTrial.stopped,response.keys,response.corr,response.rt,response.duration,rt,corr,feedback.started,feedback.stopped,practice_trials.thisRepN,practice_trials.thisTrialN,practice_trials.thisN,practice_trials.thisIndex,practice_trials.ran,TrialID,Gender,StimulusType,Condition,PrimeDuration,Prime,len,Flanker,corrAns,Break.started,Break.stopped,break_done_touch.x,break_done_touch.y,break_done_touch.leftButton,break_done_touch.midButton,break_done_touch.rightButton,break_done_keyboard.keys,experiment_trials.thisRepN,experiment_trials.thisTrialN,experiment_trials.thisN,experiment_trials.thisIndex,experiment_trials.ran,PairedWith,break_done_touch.clicked_name,End.started,End.stopped
3,22,"[""over_18"",""comfortable"",""read_info"",""consent_given""]",M,"[""none""]","[""spanish""]",671d5ea81949155edb553545,676192165fb32c2e1fb7aee6,67d16971c23d6a12c409eb49,2025-03-12_16h16.24.228,Tarea de decisión léxica,2024.2.5,Win32,59.52380952,,,,,,,,,,,,,,,,,,,,,,,,,,,,,,,,,,,,,,,,,,,,,,,,,,,,,,,,,,,,,,
,,,,,,671d5ea81949155edb553545,676192165fb32c2e1fb7aee6,67d16971c23d6a12c409eb49,2025-03-12_16h16.24.228,Tarea de decisión léxica,2024.2.5,Win32,59.52380952,17.7825,17.7827,,,,,,,,,,,,,,,,,,,,,,,,,,,,,,,,,,,,,,,,,,,,,,,,,,,,,,,,,,,,
,,,,,,671d5ea81949155edb553545,676192165fb32c2e1fb7aee6,67d16971c23d6a12c409eb49,2025-03-12_16h16.24.228,Tarea de decisión léxica,2024.2.5,Win32,59.52380952,,,17.8514,21.4659,,0.073148176,-0.410185242,1,0,0,instr_done_button,0,0,0,0,1,1,instructions,"INSTRUCCIONES
Va a realizar una prueba de decisión léxica. Desde el comienzo de la prueba mire siempre al centro de la pantalla. Se presentará una serie de cadenas de letras, una a la vez, en la pantalla. Su tarea consiste en determinar si cada cadena de letras constituye una palabra real en español o una no-palabra (una secuencia de letras que no constituye una palabra real). 

Pulse la tecla ESPACIO para continuar.",0,keyboardresponseWN.png,,,,,,,,,,,,,,,,,,,,,,,,,,,,,,,,,,,,,,,,,
,,,,,,671d5ea81949155edb553545,676192165fb32c2e1fb7aee6,67d16971c23d6a12c409eb49,2025-03-12_16h16.24.228,Tarea de decisión léxica,2024.2.5,Win32,59.52380952,,,21.4692,21.8746,,0.073148176,-0.410185242,1,0,0,instr_done_button,0,1,1,1,1,2,instructions,"El procedimiento es el siguiente: Aparecerán dos barras verticales posicionadas en el centro de la pantalla, separadas por un pequeño espacio.Por favor, enfoque su atención en el espacio entre las barras. Esto preparará sus ojos para la siguiente cadena de letras, que aparecerá entre las dos barras durante un instante.

Pulse la tecla ESPACIO para continuar.",0,keyboardresponseWN.png,,,,,,,,,,,,,,,,,,,,,,,,,,,,,,,,,,,,,,,,,
,,,,,,671d5ea81949155edb553545,676192165fb32c2e1fb7aee6,67d16971c23d6a12c409eb49,2025-03-12_16h16.24.228,Tarea de decisión léxica,2024.2.5,Win32,59.52380952,,,21.8854,22.4803,,0.073148176,-0.410185242,1,0,0,instr_done_button,0,2,2,2,1,3,instructions,"En el teclado de su dispositivo, pulse la tecla ""A"" si la cadena de letras es una palabra real en español (por ejemplo: ""mano"") y la tecla ""L"" si la cadena de letras es una no-palabra (por ejemplo: ""minu"").
Pulse la tecla ESPACIO para continuar.",1,keyboardresponseWN.png,,,,,,,,,,,,,,,,,,,,,,,,,,,,,,,,,,,,,,,,,
,,,,,,671d5ea81949155edb553545,676192165fb32c2e1fb7aee6,67d16971c23d6a12c409eb49,2025-03-12_16h16.24.228,Tarea de decisión léxica,2024.2.5,Win32,59.52380952,,,22.4918,23.3557,,0.073148176,-0.410185242,1,0,0,instr_done_button,0,3,3,3,1,4,instructions,"Es muy importante que responda con la mayor rapidez y precisión posibles. Si no responde dentro de 2 segundos, aparecerá el mensaje ""Muy lento"" y el experimento pasará a la siguiente palabra. Inmediatamente después de su respuesta se indicará si fue correcta o no. Los primeros 15 intentos serán de práctica y habrá dos descansos durante la prueba.

Pulse la tecla ESPACIO  para iniciar la parte de práctica.",0,keyboardresponseWN.png,,,,,,,,,,,,,,,,,,,,,,,,,,,,,,,,,,,,,,,,,
,,,,,,671d5ea81949155edb553545,676192165fb32c2e1fb7aee6,67d16971c23d6a12c409eb49,2025-03-12_16h16.24.228,Tarea de decisión léxica,2024.2.5,Win32,59.52380952,,,,,,,,,,,,,,,,,,,,,,23.3958,24.8079,a,1,0.7323,,0.7323,1,24.8094,25.306,0,0,0,9,1,1010,MAS,WORD,DIS,150,video,5,la,l,,,,,,,,,,,,,,,,,
,,,,,,671d5ea81949155edb553545,676192165fb32c2e1fb7aee6,67d16971c23d6a12c409eb49,2025-03-12_16h16.24.228,Tarea de decisión léxica,2024.2.5,Win32,59.52380952,,,,,,,,,,,,,,,,,,,,,,25.3104,26.4554,a,0,0.4688,,0.4688,0,26.4585,26.9549,0,1,1,0,1,1001,FEM,NOWORD,AGR,150,croz,4,la,a,,,,,,,,,,,,,,,,,
,,,,,,671d5ea81949155edb553545,676192165fb32c2e1fb7aee6,67d16971c23d6a12c409eb49,2025-03-12_16h16.24.228,Tarea de decisión léxica,2024.2.5,Win32,59.52380952,,,,,,,,,,,,,,,,,,,,,,26.9595,28.1222,l,1,0.4893,,0.4893,1,28.1276,28.6207,0,2,2,1,1,1002,FEM,NOWORD,DIS,150,mabo,4,el,a,,,,,,,,,,,,,,,,,
,,,,,,671d5ea81949155edb553545,676192165fb32c2e1fb7aee6,67d16971c23d6a12c409eb49,2025-03-12_16h16.24.228,Tarea de decisión léxica,2024.2.5,Win32,59.52380952,,,,,,,,,,,,,,,,,,,,,,28.6245,29.7041,a,0,0.4076,,0.4076,0,29.7064,30.2047,0,3,3,4,1,1005,MAS,NOWORD,DIS,150,nobad,5,la,a,,,,,,,,,,,,,,,,,
,,,,,,671d5ea81949155edb553545,676192165fb32c2e1fb7aee6,67d16971c23d6a12c409eb49,2025-03-12_16h16.24.228,Tarea de decisión léxica,2024.2.5,Win32,59.52380952,,,,,,,,,,,,,,,,,,,,,,30.2125,31.1881,l,0,0.3022,,0.3022,0,31.1885,31.6882,0,4,4,7,1,1008,MAS,WORD,DIS,150,frío,4,la,l,,,,,,,,,,,,,,,,,
,,,,,,671d5ea81949155edb553545,676192165fb32c2e1fb7aee6,67d16971c23d6a12c409eb49,2025-03-12_16h16.24.228,Tarea de decisión léxica,2024.2.5,Win32,59.52380952,,,,,,,,,,,,,,,,,,,,,,31.6911,32.6382,a,0,0.2697,,0.2697,0,32.6397,33.1436,0,5,5,3,1,1004,FEM,NOWORD,AGR,150,bireo,5,la,a,,,,,,,,,,,,,,,,,
,,,,,,671d5ea81949155edb553545,676192165fb32c2e1fb7aee6,67d16971c23d6a12c409eb49,2025-03-12_16h16.24.228,Tarea de decisión léxica,2024.2.5,Win32,59.52380952,,,,,,,,,,,,,,,,,,,,,,33.1462,34.0453,a,1,0.2248,,0.2248,1,34.0481,34.5378,0,6,6,8,1,1009,FEM,WORD,AGR,150,viejo,5,la,l,,,,,,,,,,,,,,,,,
,,,,,,671d5ea81949155edb553545,676192165fb32c2e1fb7aee6,67d16971c23d6a12c409eb49,2025-03-12_16h16.24.228,Tarea de decisión léxica,2024.2.5,Win32,59.52380952,,,,,,,,,,,,,,,,,,,,,,34.5419,35.4545,l,0,0.2421,,0.2421,0,35.4576,35.9547,0,7,7,6,1,1007,MAS,WORD,DIS,150,masa,4,la,l,,,,,,,,,,,,,,,,,
,,,,,,671d5ea81949155edb553545,676192165fb32c2e1fb7aee6,67d16971c23d6a12c409eb49,2025-03-12_16h16.24.228,Tarea de decisión léxica,2024.2.5,Win32,59.52380952,,,,,,,,,,,,,,,,,,,,,,35.9578,36.9045,l,0,0.2725,,0.2725,0,36.9049,37.3934,0,8,8,5,1,1006,FEM,WORD,AGR,150,cara,4,la,l,,,,,,,,,,,,,,,,,
,,,,,,671d5ea81949155edb553545,676192165fb32c2e1fb7aee6,67d16971c23d6a12c409eb49,2025-03-12_16h16.24.228,Tarea de decisión léxica,2024.2.5,Win32,59.52380952,,,,,,,,,,,,,,,,,,,,,,37.3964,38.2708,l,1,0.2013,,0.2013,1,38.2738,38.7707,0,9,9,2,1,1003,FEM,NOWORD,DIS,150,muvor,5,el,a,,,,,,,,,,,,,,,,,
,,,,,,671d5ea81949155edb553545,676192165fb32c2e1fb7aee6,67d16971c23d6a12c409eb49,2025-03-12_16h16.24.228,Tarea de decisión léxica,2024.2.5,Win32,59.52380952,,,41.03,43.4408,,0.047222222,-0.428703732,1,0,0,instr_done_button,,,,,,,,,,,43.5404,44.721,a,0,0.4989,,0.4989,0,44.7226,45.2197,,,,,,330,MAS,NOWORD,AGR,150,nueno,,el,,45.2207,45.2307,0.047222222,-0.428703732,0,0,0,,0,0,0,329,1,hueso,,,
,,,,,,671d5ea81949155edb553545,676192165fb32c2e1fb7aee6,67d16971c23d6a12c409eb49,2025-03-12_16h16.24.228,Tarea de decisión léxica,2024.2.5,Win32,59.52380952,,,,,,,,,,,,,,,,,,,,,,45.2318,46.3033,l,0,0.395,,0.395,0,46.3036,46.8032,,,,,,441,FEM,WORD,AGR,150,selva,,la,,46.8032,46.8039,0.047222222,-0.428703732,0,0,0,,0,1,1,440,1,telza,,,
,,,,,,671d5ea81949155edb553545,676192165fb32c2e1fb7aee6,67d16971c23d6a12c409eb49,2025-03-12_16h16.24.228,Tarea de decisión léxica,2024.2.5,Win32,59.52380952,,,,,,,,,,,,,,,,,,,,,,46.8073,47.8204,a,0,0.3476,,0.3476,0,47.8207,48.3093,,,,,,334,FEM,NOWORD,AGR,150,dalea,,la,,48.3121,48.3147,0.047222222,-0.428703732,0,0,0,,0,2,2,333,1,tarea,,,
,,,,,,671d5ea81949155edb553545,676192165fb32c2e1fb7aee6,67d16971c23d6a12c409eb49,2025-03-12_16h16.24.228,Tarea de decisión léxica,2024.2.5,Win32,59.52380952,,,,,,,,,,,,,,,,,,,,,,48.3164,49.244,a,0,0.2625,,0.2625,0,49.2442,49.737,,,,,,324,FEM,NOWORD,DIS,150,certa,,el,,49.7373,49.739,0.047222222,-0.428703732,0,0,0,,0,3,3,323,1,cinta,,,
,,,,,,671d5ea81949155edb553545,676192165fb32c2e1fb7aee6,67d16971c23d6a12c409eb49,2025-03-12_16h16.24.228,Tarea de decisión léxica,2024.2.5,Win32,59.52380952,,,,,,,,,,,,,,,,,,,,,,49.741,50.5869,l,0,0.1691,,0.1691,0,50.5872,51.0865,,,,,,133,FEM,WORD,AGR,150,vaca,,la,,51.087,51.0887,0.047222222,-0.428703732,0,0,0,,0,4,4,132,1,vesa,,,
,,,,,,671d5ea81949155edb553545,676192165fb32c2e1fb7aee6,67d16971c23d6a12c409eb49,2025-03-12_16h16.24.228,Tarea de decisión léxica,2024.2.5,Win32,59.52380952,,,,,,,,,,,,,,,,,,,,,,51.091,51.8605,a,0,0.0963,,0.0963,0,51.8606,52.3535,,,,,,418,FEM,NOWORD,AGR,150,banja,,la,,52.3539,52.355,0.047222222,-0.428703732,0,0,0,,0,5,5,417,1,barba,,,
,,,,,,671d5ea81949155edb553545,676192165fb32c2e1fb7aee6,67d16971c23d6a12c409eb49,2025-03-12_16h16.24.228,Tarea de decisión léxica,2024.2.5,Win32,59.52380952,,,,,,,,,,,,,,,,,,,,,,52.3572,53.4043,a,0,0.3653,,0.3653,0,53.4047,53.9084,,,,,,288,FEM,NOWORD,DIS,150,fosta,,el,,53.9085,53.9089,0.047222222,-0.428703732,0,0,0,,0,6,6,287,1,lista,,,
,,,,,,671d5ea81949155edb553545,676192165fb32c2e1fb7aee6,67d16971c23d6a12c409eb49,2025-03-12_16h16.24.228,Tarea de decisión léxica,2024.2.5,Win32,59.52380952,,,,,,,,,,,,,,,,,,,,,,53.9104,54.7891,l,1,0.2094,,0.2094,1,54.7908,55.2871,,,,,,256,MAS,NOWORD,DIS,150,mauco,,la,,55.2926,55.2956,0.047222222,-0.428703732,0,0,0,,0,7,7,255,1,miedo,,,
,,,,,,671d5ea81949155edb553545,676192165fb32c2e1fb7aee6,67d16971c23d6a12c409eb49,2025-03-12_16h16.24.228,Tarea de decisión léxica,2024.2.5,Win32,59.52380952,,,,,,,,,,,,,,,,,,,,,,55.2974,56.341,a,1,0.3772,,0.3772,1,56.3412,56.8368,,,,,,197,MAS,WORD,AGR,150,bate,,el,,56.8372,56.8377,0.047222222,-0.428703732,0,0,0,,0,8,8,196,1,dade,,,
,,,,,,671d5ea81949155edb553545,676192165fb32c2e1fb7aee6,67d16971c23d6a12c409eb49,2025-03-12_16h16.24.228,Tarea de decisión léxica,2024.2.5,Win32,59.52380952,,,,,,,,,,,,,,,,,,,,,,56.8426,57.853,l,1,0.3343,,0.3343,1,57.8536,58.353,,,,,,126,MAS,NOWORD,AGR,150,vudo,,el,,58.3534,58.3542,0.047222222,-0.428703732,0,0,0,,0,9,9,125,1,lujo,,,
,,,,,,671d5ea81949155edb553545,676192165fb32c2e1fb7aee6,67d16971c23d6a12c409eb49,2025-03-12_16h16.24.228,Tarea de decisión léxica,2024.2.5,Win32,59.52380952,,,,,,,,,,,,,,,,,,,,,,58.3589,59.3027,a,1,0.2725,,0.2725,1,59.303,59.8026,,,,,,211,FEM,WORD,DIS,150,joya,,el,,59.8028,59.8029,0.047222222,-0.428703732,0,0,0,,0,10,10,210,1,joad,,,
,,,,,,671d5ea81949155edb553545,676192165fb32c2e1fb7aee6,67d16971c23d6a12c409eb49,2025-03-12_16h16.24.228,Tarea de decisión léxica,2024.2.5,Win32,59.52380952,,,,,,,,,,,,,,,,,,,,,,59.8086,60.7568,l,1,0.2758,,0.2758,1,60.7571,61.2538,,,,,,222,FEM,NOWORD,AGR,150,puca,,la,,61.2584,61.2605,0.047222222,-0.428703732,0,0,0,,0,11,11,221,1,mula,,,
,,,,,,671d5ea81949155edb553545,676192165fb32c2e1fb7aee6,67d16971c23d6a12c409eb49,2025-03-12_16h16.24.228,Tarea de decisión léxica,2024.2.5,Win32,59.52380952,,,,,,,,,,,,,,,,,,,,,,61.2622,62.2524,a,0,0.317,,0.317,0,62.2559,62.7527,,,,,,438,FEM,NOWORD,AGR,150,glava,,la,,62.7527,62.7534,0.047222222,-0.428703732,0,0,0,,0,12,12,437,1,plaza,,,
,,,,,,671d5ea81949155edb553545,676192165fb32c2e1fb7aee6,67d16971c23d6a12c409eb49,2025-03-12_16h16.24.228,Tarea de decisión léxica,2024.2.5,Win32,59.52380952,,,,,,,,,,,,,,,,,,,,,,62.7572,63.8024,a,0,0.3695,,0.3695,0,63.8025,64.3019,,,,,,154,MAS,NOWORD,AGR,150,tado,,el,,64.3022,64.3026,0.047222222,-0.428703732,0,0,0,,0,13,13,153,1,pato,,,
,,,,,,671d5ea81949155edb553545,676192165fb32c2e1fb7aee6,67d16971c23d6a12c409eb49,2025-03-12_16h16.24.228,Tarea de decisión léxica,2024.2.5,Win32,59.52380952,,,,,,,,,,,,,,,,,,,,,,64.3069,65.2689,a,0,0.2865,,0.2865,0,65.2692,65.7688,,,,,,384,FEM,NOWORD,DIS,150,brame,,el,,65.7688,65.769,0.047222222,-0.428703732,0,0,0,,0,14,14,383,1,frase,,,
,,,,,,671d5ea81949155edb553545,676192165fb32c2e1fb7aee6,67d16971c23d6a12c409eb49,2025-03-12_16h16.24.228,Tarea de decisión léxica,2024.2.5,Win32,59.52380952,,,,,,,,,,,,,,,,,,,,,,65.773,66.6362,a,0,0.1836,,0.1836,0,66.6366,67.1354,,,,,,62,FEM,NOWORD,AGR,150,efla,,la,,67.1356,67.136,0.047222222,-0.428703732,0,0,0,,0,15,15,61,1,obra,,,
,,,,,,671d5ea81949155edb553545,676192165fb32c2e1fb7aee6,67d16971c23d6a12c409eb49,2025-03-12_16h16.24.228,Tarea de decisión léxica,2024.2.5,Win32,59.52380952,,,,,,,,,,,,,,,,,,,,,,67.1401,67.9358,l,0,0.1185,,0.1185,0,67.9363,68.4352,,,,,,185,MAS,WORD,AGR,150,baúl,,el,,68.4411,68.4432,0.047222222,-0.428703732,0,0,0,,0,16,16,184,1,raol,,,
,,,,,,671d5ea81949155edb553545,676192165fb32c2e1fb7aee6,67d16971c23d6a12c409eb49,2025-03-12_16h16.24.228,Tarea de decisión léxica,2024.2.5,Win32,59.52380952,,,,,,,,,,,,,,,,,,,,,,68.4443,69.3686,l,1,0.249,,0.249,1,69.3721,69.8682,,,,,,228,MAS,NOWORD,DIS,150,laro,,la,,69.8686,69.8688,0.047222222,-0.428703732,0,0,0,,0,17,17,227,1,faro,,,
,,,,,,671d5ea81949155edb553545,676192165fb32c2e1fb7aee6,67d16971c23d6a12c409eb49,2025-03-12_16h16.24.228,Tarea de decisión léxica,2024.2.5,Win32,59.52380952,,,,,,,,,,,,,,,,,,,,,,69.8733,70.8351,l,0,0.2837,,0.2837,0,70.838,71.3347,,,,,,207,MAS,WORD,DIS,150,kilo,,la,,71.335,71.3352,0.047222222,-0.428703732,0,0,0,,0,18,18,206,1,kedo,,,
,,,,,,671d5ea81949155edb553545,676192165fb32c2e1fb7aee6,67d16971c23d6a12c409eb49,2025-03-12_16h16.24.228,Tarea de decisión léxica,2024.2.5,Win32,59.52380952,,,,,,,,,,,,,,,,,,,,,,71.3392,72.2721,a,1,0.2598,,0.2598,1,72.2747,72.7683,,,,,,295,MAS,WORD,DIS,150,dolor,,la,,72.7684,72.7686,0.047222222,-0.428703732,0,0,0,,0,19,19,294,1,goler,,,
,,,,,,671d5ea81949155edb553545,676192165fb32c2e1fb7aee6,67d16971c23d6a12c409eb49,2025-03-12_16h16.24.228,Tarea de decisión léxica,2024.2.5,Win32,59.52380952,,,,,,,,,,,,,,,,,,,,,,72.7729,73.8851,l,1,0.4379,,0.4379,1,73.8856,74.3846,,,,,,44,FEM,NOWORD,DIS,150,meda,,el,,74.3848,74.3849,0.047222222,-0.428703732,0,0,0,,0,20,20,43,1,pena,,,
,,,,,,671d5ea81949155edb553545,676192165fb32c2e1fb7aee6,67d16971c23d6a12c409eb49,2025-03-12_16h16.24.228,Tarea de decisión léxica,2024.2.5,Win32,59.52380952,,,,,,,,,,,,,,,,,,,,,,74.3904,75.4718,a,1,0.4106,,0.4106,1,75.4719,75.9683,,,,,,75,MAS,WORD,DIS,150,olor,,la,,75.9739,75.9751,0.047222222,-0.428703732,0,0,0,,0,21,21,74,1,ocer,,,
,,,,,,671d5ea81949155edb553545,676192165fb32c2e1fb7aee6,67d16971c23d6a12c409eb49,2025-03-12_16h16.24.228,Tarea de decisión léxica,2024.2.5,Win32,59.52380952,,,,,,,,,,,,,,,,,,,,,,75.9764,76.901,l,0,0.2508,,0.2508,0,76.9047,77.4014,,,,,,149,MAS,WORD,AGR,150,cabo,,el,,77.4016,77.402,0.047222222,-0.428703732,0,0,0,,0,22,22,148,1,pafo,,,
,,,,,,671d5ea81949155edb553545,676192165fb32c2e1fb7aee6,67d16971c23d6a12c409eb49,2025-03-12_16h16.24.228,Tarea de decisión léxica,2024.2.5,Win32,59.52380952,,,,,,,,,,,,,,,,,,,,,,77.406,78.4012,a,0,0.3209,,0.3209,0,78.4013,78.901,,,,,,134,FEM,NOWORD,AGR,150,vesa,,la,,78.901,78.9013,0.047222222,-0.428703732,0,0,0,,0,23,23,133,1,vaca,,,
,,,,,,671d5ea81949155edb553545,676192165fb32c2e1fb7aee6,67d16971c23d6a12c409eb49,2025-03-12_16h16.24.228,Tarea de decisión léxica,2024.2.5,Win32,59.52380952,,,,,,,,,,,,,,,,,,,,,,78.9061,79.9513,l,1,0.3671,,0.3671,1,79.9551,80.4528,,,,,,338,MAS,NOWORD,AGR,150,nuejo,,el,,80.4532,80.4538,0.047222222,-0.428703732,0,0,0,,0,24,24,337,1,huevo,,,
,,,,,,671d5ea81949155edb553545,676192165fb32c2e1fb7aee6,67d16971c23d6a12c409eb49,2025-03-12_16h16.24.228,Tarea de decisión léxica,2024.2.5,Win32,59.52380952,,,,,,,,,,,,,,,,,,,,,,80.4568,81.5682,l,1,0.4314,,0.4314,1,81.5687,82.0684,,,,,,6,FEM,NOWORD,AGR,150,poga,,la,,82.0686,82.069,0.047222222,-0.428703732,0,0,0,,0,25,25,5,1,cosa,,,
,,,,,,671d5ea81949155edb553545,676192165fb32c2e1fb7aee6,67d16971c23d6a12c409eb49,2025-03-12_16h16.24.228,Tarea de decisión léxica,2024.2.5,Win32,59.52380952,,,,,,,,,,,,,,,,,,,,,,82.0735,83.1845,l,0,0.4352,,0.4352,0,83.1883,83.6844,,,,,,13,FEM,WORD,AGR,150,hora,,la,,83.6902,83.6916,0.047222222,-0.428703732,0,0,0,,0,26,26,12,1,nola,,,
,,,,,,671d5ea81949155edb553545,676192165fb32c2e1fb7aee6,67d16971c23d6a12c409eb49,2025-03-12_16h16.24.228,Tarea de decisión léxica,2024.2.5,Win32,59.52380952,,,,,,,,,,,,,,,,,,,,,,83.6926,84.9177,a,0,0.5516,,0.5516,0,84.9181,85.4171,,,,,,96,FEM,NOWORD,DIS,151,neda,,el,,85.4174,85.4177,0.047222222,-0.428703732,0,0,0,,0,27,27,95,1,moda,,,
,,,,,,671d5ea81949155edb553545,676192165fb32c2e1fb7aee6,67d16971c23d6a12c409eb49,2025-03-12_16h16.24.228,Tarea de decisión léxica,2024.2.5,Win32,59.52380952,,,,,,,,,,,,,,,,,,,,,,85.4226,86.2337,l,1,0.1334,,0.1334,1,86.2377,86.7341,,,,,,158,MAS,NOWORD,AGR,150,hico,,el,,86.7341,86.7348,0.047222222,-0.428703732,0,0,0,,0,28,28,157,1,nido,,,
,,,,,,671d5ea81949155edb553545,676192165fb32c2e1fb7aee6,67d16971c23d6a12c409eb49,2025-03-12_16h16.24.228,Tarea de decisión léxica,2024.2.5,Win32,59.52380952,,,,,,,,,,,,,,,,,,,,,,86.7395,87.8669,l,0,0.4522,,0.4522,0,87.8704,88.3687,,,,,,401,MAS,WORD,AGR,150,polvo,,el,,88.369,88.3693,0.047222222,-0.428703732,0,0,0,,0,29,29,400,1,pirvo,,,
,,,,,,671d5ea81949155edb553545,676192165fb32c2e1fb7aee6,67d16971c23d6a12c409eb49,2025-03-12_16h16.24.228,Tarea de decisión léxica,2024.2.5,Win32,59.52380952,,,,,,,,,,,,,,,,,,,,,,88.3729,89.5334,a,1,0.4871,,0.4871,1,89.537,90.0339,,,,,,53,FEM,WORD,AGR,150,boda,,la,,90.034,90.0341,0.047222222,-0.428703732,0,0,0,,0,30,30,52,1,rora,,,
,,,,,,671d5ea81949155edb553545,676192165fb32c2e1fb7aee6,67d16971c23d6a12c409eb49,2025-03-12_16h16.24.228,Tarea de decisión léxica,2024.2.5,Win32,59.52380952,,,,,,,,,,,,,,,,,,,,,,90.0382,91.1336,a,1,0.4205,,0.4205,1,91.1339,91.6337,,,,,,151,MAS,WORD,DIS,150,tomo,,la,,91.6392,91.6406,0.047222222,-0.428703732,0,0,0,,0,31,31,150,1,sogo,,,
,,,,,,671d5ea81949155edb553545,676192165fb32c2e1fb7aee6,67d16971c23d6a12c409eb49,2025-03-12_16h16.24.228,Tarea de decisión léxica,2024.2.5,Win32,59.52380952,,,,,,,,,,,,,,,,,,,,,,91.6417,92.5999,l,1,0.2841,,0.2841,1,92.6002,93.1005,,,,,,40,MAS,NOWORD,DIS,150,redo,,la,,93.1007,93.1014,0.047222222,-0.428703732,0,0,0,,0,32,32,39,1,voto,,,
,,,,,,671d5ea81949155edb553545,676192165fb32c2e1fb7aee6,67d16971c23d6a12c409eb49,2025-03-12_16h16.24.228,Tarea de decisión léxica,2024.2.5,Win32,59.52380952,,,,,,,,,,,,,,,,,,,,,,93.1056,94.0543,l,1,0.2774,,0.2774,1,94.0546,94.5501,,,,,,112,MAS,NOWORD,DIS,150,siro,,la,,94.5503,94.5504,0.047222222,-0.428703732,0,0,0,,0,33,33,111,1,muro,,,
,,,,,,671d5ea81949155edb553545,676192165fb32c2e1fb7aee6,67d16971c23d6a12c409eb49,2025-03-12_16h16.24.228,Tarea de decisión léxica,2024.2.5,Win32,59.52380952,,,,,,,,,,,,,,,,,,,,,,94.5546,95.5664,a,1,0.332,,0.332,1,95.5668,96.0667,,,,,,103,FEM,WORD,DIS,150,ruta,,el,,96.0667,96.0669,0.047222222,-0.428703732,0,0,0,,0,34,34,102,1,rova,,,
,,,,,,671d5ea81949155edb553545,676192165fb32c2e1fb7aee6,67d16971c23d6a12c409eb49,2025-03-12_16h16.24.228,Tarea de decisión léxica,2024.2.5,Win32,59.52380952,,,,,,,,,,,,,,,,,,,,,,96.0712,97.0329,l,0,0.2843,,0.2843,0,97.0372,97.5329,,,,,,459,MAS,WORD,DIS,150,grado,,la,,97.5379,97.5406,0.047222222,-0.428703732,0,0,0,,0,35,35,458,1,fraco,,,
,,,,,,671d5ea81949155edb553545,676192165fb32c2e1fb7aee6,67d16971c23d6a12c409eb49,2025-03-12_16h16.24.228,Tarea de decisión léxica,2024.2.5,Win32,59.52380952,,,,,,,,,,,,,,,,,,,,,,97.5417,98.6828,l,1,0.4657,,0.4657,1,98.6863,99.1833,,,,,,162,MAS,NOWORD,AGR,150,bopo,,el,,99.1836,99.1845,0.047222222,-0.428703732,0,0,0,,0,36,36,161,1,coro,,,
,,,,,,671d5ea81949155edb553545,676192165fb32c2e1fb7aee6,67d16971c23d6a12c409eb49,2025-03-12_16h16.24.228,Tarea de decisión léxica,2024.2.5,Win32,59.52380952,,,,,,,,,,,,,,,,,,,,,,99.1888,100.1998,a,0,0.3338,,0.3338,0,100.2034,100.6994,,,,,,144,MAS,NOWORD,DIS,150,pezo,,la,,100.6997,100.6998,0.047222222,-0.428703732,0,0,0,,0,37,37,143,1,pavo,,,
,,,,,,671d5ea81949155edb553545,676192165fb32c2e1fb7aee6,67d16971c23d6a12c409eb49,2025-03-12_16h16.24.228,Tarea de decisión léxica,2024.2.5,Win32,59.52380952,,,,,,,,,,,,,,,,,,,,,,100.7041,101.683,a,1,0.3005,,0.3005,1,101.687,102.183,,,,,,443,MAS,WORD,DIS,150,salón,,la,,102.1831,102.1832,0.047222222,-0.428703732,0,0,0,,0,38,38,442,1,taron,,,
,,,,,,671d5ea81949155edb553545,676192165fb32c2e1fb7aee6,67d16971c23d6a12c409eb49,2025-03-12_16h16.24.228,Tarea de decisión léxica,2024.2.5,Win32,59.52380952,,,,,,,,,,,,,,,,,,,,,,102.1875,103.1496,l,0,0.2874,,0.2874,0,103.1534,103.6493,,,,,,231,FEM,WORD,DIS,150,bota,,el,,103.6494,103.6494,0.047222222,-0.428703732,0,0,0,,0,39,39,230,1,heta,,,
,,,,,,671d5ea81949155edb553545,676192165fb32c2e1fb7aee6,67d16971c23d6a12c409eb49,2025-03-12_16h16.24.228,Tarea de decisión léxica,2024.2.5,Win32,59.52380952,,,,,,,,,,,,,,,,,,,,,,103.6538,104.6173,a,1,0.2881,,0.2881,1,104.6204,105.1182,,,,,,479,MAS,WORD,DIS,150,rumbo,,la,,105.1216,105.1227,0.047222222,-0.428703732,0,0,0,,0,40,40,478,1,rimpo,,,
,,,,,,671d5ea81949155edb553545,676192165fb32c2e1fb7aee6,67d16971c23d6a12c409eb49,2025-03-12_16h16.24.228,Tarea de decisión léxica,2024.2.5,Win32,59.52380952,,,,,,,,,,,,,,,,,,,,,,105.1246,105.9657,l,0,0.1672,,0.1672,0,105.9691,106.4662,,,,,,17,FEM,WORD,AGR,150,mamá,,la,,106.4663,106.4664,0.047222222,-0.428703732,0,0,0,,0,41,41,16,1,paba,,,
,,,,,,671d5ea81949155edb553545,676192165fb32c2e1fb7aee6,67d16971c23d6a12c409eb49,2025-03-12_16h16.24.228,Tarea de decisión léxica,2024.2.5,Win32,59.52380952,,,,,,,,,,,,,,,,,,,,,,106.4707,107.4186,a,1,0.2761,,0.2761,1,107.4204,107.9155,,,,,,11,MAS,WORD,DIS,150,lado,,la,,107.9158,107.916,0.047222222,-0.428703732,0,0,0,,0,42,42,10,1,bapo,,,
,,,,,,671d5ea81949155edb553545,676192165fb32c2e1fb7aee6,67d16971c23d6a12c409eb49,2025-03-12_16h16.24.228,Tarea de decisión léxica,2024.2.5,Win32,59.52380952,,,,,,,,,,,,,,,,,,,,,,107.92,108.7659,a,1,0.1672,,0.1672,1,108.7661,109.2659,,,,,,437,FEM,WORD,AGR,150,plaza,,la,,109.266,109.266,0.047222222,-0.428703732,0,0,0,,0,43,43,436,1,glava,,,
,,,,,,671d5ea81949155edb553545,676192165fb32c2e1fb7aee6,67d16971c23d6a12c409eb49,2025-03-12_16h16.24.228,Tarea de decisión léxica,2024.2.5,Win32,59.52380952,,,,,,,,,,,,,,,,,,,,,,109.2702,110.1991,a,0,0.2541,,0.2541,0,110.2025,110.6991,,,,,,264,FEM,NOWORD,DIS,150,dosta,,el,,110.6993,110.6996,0.047222222,-0.428703732,0,0,0,,0,44,44,263,1,vista,,,
,,,,,,671d5ea81949155edb553545,676192165fb32c2e1fb7aee6,67d16971c23d6a12c409eb49,2025-03-12_16h16.24.228,Tarea de decisión léxica,2024.2.5,Win32,59.52380952,,,,,,,,,,,,,,,,,,,,,,110.7033,111.4989,l,0,0.1183,,0.1183,0,111.4991,111.9986,,,,,,369,MAS,WORD,AGR,150,ruido,,el,,112.003,112.0053,0.047222222,-0.428703732,0,0,0,,0,45,45,368,1,rioco,,,
,,,,,,671d5ea81949155edb553545,676192165fb32c2e1fb7aee6,67d16971c23d6a12c409eb49,2025-03-12_16h16.24.228,Tarea de decisión léxica,2024.2.5,Win32,59.52380952,,,,,,,,,,,,,,,,,,,,,,112.0067,112.7822,a,1,0.1053,,0.1053,1,112.7861,113.2826,,,,,,293,MAS,WORD,AGR,150,campo,,el,,113.2834,113.2839,0.047222222,-0.428703732,0,0,0,,0,46,46,292,1,cacso,,,
,,,,,,671d5ea81949155edb553545,676192165fb32c2e1fb7aee6,67d16971c23d6a12c409eb49,2025-03-12_16h16.24.228,Tarea de decisión léxica,2024.2.5,Win32,59.52380952,,,,,,,,,,,,,,,,,,,,,,113.2875,114.3673,l,0,0.399,,0.399,0,114.3702,114.8654,,,,,,393,FEM,WORD,AGR,150,aldea,,la,,114.8655,114.8657,0.047222222,-0.428703732,0,0,0,,0,47,47,392,1,ashea,,,
,,,,,,671d5ea81949155edb553545,676192165fb32c2e1fb7aee6,67d16971c23d6a12c409eb49,2025-03-12_16h16.24.228,Tarea de decisión léxica,2024.2.5,Win32,59.52380952,,,,,,,,,,,,,,,,,,,,,,114.87,115.8176,l,0,0.2761,,0.2761,0,115.818,116.3154,,,,,,377,MAS,WORD,AGR,150,hielo,,el,,116.316,116.3166,0.047222222,-0.428703732,0,0,0,,0,48,48,376,1,gaulo,,,
,,,,,,671d5ea81949155edb553545,676192165fb32c2e1fb7aee6,67d16971c23d6a12c409eb49,2025-03-12_16h16.24.228,Tarea de decisión léxica,2024.2.5,Win32,59.52380952,,,,,,,,,,,,,,,,,,,,,,116.3205,117.25,l,1,0.2502,,0.2502,1,117.2526,117.7486,,,,,,160,MAS,NOWORD,DIS,150,bilo,,la,,117.7486,117.7491,0.047222222,-0.428703732,0,0,0,,0,49,49,159,1,giro,,,
,,,,,,671d5ea81949155edb553545,676192165fb32c2e1fb7aee6,67d16971c23d6a12c409eb49,2025-03-12_16h16.24.228,Tarea de decisión léxica,2024.2.5,Win32,59.52380952,,,,,,,,,,,,,,,,,,,,,,117.7535,118.6827,l,0,0.2506,,0.2506,0,118.6857,119.1819,,,,,,407,FEM,WORD,DIS,150,cueva,,el,,119.1861,119.1883,0.047222222,-0.428703732,0,0,0,,0,50,50,406,1,cauba,,,
,,,,,,671d5ea81949155edb553545,676192165fb32c2e1fb7aee6,67d16971c23d6a12c409eb49,2025-03-12_16h16.24.228,Tarea de decisión léxica,2024.2.5,Win32,59.52380952,,,,,,,,,,,,,,,,,,,,,,119.19,120.1689,a,1,0.3095,,0.3095,1,120.171,120.6646,,,,,,331,MAS,WORD,DIS,150,éxito,,la,,120.6649,120.6651,0.047222222,-0.428703732,0,0,0,,0,51,51,330,1,erato,,,
,,,,,,671d5ea81949155edb553545,676192165fb32c2e1fb7aee6,67d16971c23d6a12c409eb49,2025-03-12_16h16.24.228,Tarea de decisión léxica,2024.2.5,Win32,59.52380952,,,,,,,,,,,,,,,,,,,,,,120.6691,121.6199,a,0,0.2934,,0.2934,0,121.6219,122.1158,,,,,,440,FEM,NOWORD,DIS,150,prema,,el,,122.1161,122.1164,0.047222222,-0.428703732,0,0,0,,0,52,52,439,1,presa,,,
,,,,,,671d5ea81949155edb553545,676192165fb32c2e1fb7aee6,67d16971c23d6a12c409eb49,2025-03-12_16h16.24.228,Tarea de decisión léxica,2024.2.5,Win32,59.52380952,,,,,,,,,,,,,,,,,,,,,,122.1214,122.9323,l,1,0.1343,,0.1343,1,122.9355,123.4314,,,,,,458,MAS,NOWORD,AGR,150,glaco,,el,,123.4315,123.4329,0.047222222,-0.428703732,0,0,0,,0,53,53,457,1,plato,,,
,,,,,,671d5ea81949155edb553545,676192165fb32c2e1fb7aee6,67d16971c23d6a12c409eb49,2025-03-12_16h16.24.228,Tarea de decisión léxica,2024.2.5,Win32,59.52380952,,,,,,,,,,,,,,,,,,,,,,123.4363,124.2646,a,0,0.1553,,0.1553,0,124.2683,124.7648,,,,,,206,FEM,NOWORD,AGR,150,bara,,la,,124.7648,124.7657,0.047222222,-0.428703732,0,0,0,,0,54,54,205,1,rana,,,
,,,,,,671d5ea81949155edb553545,676192165fb32c2e1fb7aee6,67d16971c23d6a12c409eb49,2025-03-12_16h16.24.228,Tarea de decisión léxica,2024.2.5,Win32,59.52380952,,,,,,,,,,,,,,,,,,,,,,124.7703,125.7181,l,1,0.2767,,0.2767,1,125.7198,126.2143,,,,,,242,MAS,NOWORD,AGR,150,mirdo,,el,,126.219,126.2221,0.047222222,-0.428703732,0,0,0,,0,55,55,241,1,mundo,,,
,,,,,,671d5ea81949155edb553545,676192165fb32c2e1fb7aee6,67d16971c23d6a12c409eb49,2025-03-12_16h16.24.228,Tarea de decisión léxica,2024.2.5,Win32,59.52380952,,,,,,,,,,,,,,,,,,,,,,126.2233,127.1822,l,0,0.286,,0.286,0,127.1851,127.6826,,,,,,89,MAS,WORD,AGR,150,humo,,el,,127.6828,127.683,0.047222222,-0.428703732,0,0,0,,0,56,56,88,1,guso,,,
,,,,,,671d5ea81949155edb553545,676192165fb32c2e1fb7aee6,67d16971c23d6a12c409eb49,2025-03-12_16h16.24.228,Tarea de decisión léxica,2024.2.5,Win32,59.52380952,,,,,,,,,,,,,,,,,,,,,,127.6866,128.7146,l,1,0.3506,,0.3506,1,128.7187,129.2144,,,,,,262,MAS,NOWORD,AGR,150,titio,,el,,129.2145,129.2146,0.047222222,-0.428703732,0,0,0,,0,57,57,261,1,sitio,,,
,,,,,,671d5ea81949155edb553545,676192165fb32c2e1fb7aee6,67d16971c23d6a12c409eb49,2025-03-12_16h16.24.228,Tarea de decisión léxica,2024.2.5,Win32,59.52380952,,,,,,,,,,,,,,,,,,,,,,129.2188,130.1975,l,1,0.3012,,0.3012,1,130.1978,130.699,,,,,,120,MAS,NOWORD,DIS,150,hooy,,la,,130.6991,130.6993,0.047222222,-0.428703732,0,0,0,,0,58,58,119,1,pozo,,,
,,,,,,671d5ea81949155edb553545,676192165fb32c2e1fb7aee6,67d16971c23d6a12c409eb49,2025-03-12_16h16.24.228,Tarea de decisión léxica,2024.2.5,Win32,59.52380952,,,,,,,,,,,,,,,,,,,,,,130.7052,131.6472,a,1,0.267,,0.267,1,131.6476,132.1475,,,,,,109,MAS,WORD,AGR,150,rayo,,el,,132.1516,132.1538,0.047222222,-0.428703732,0,0,0,,0,59,59,108,1,suno,,,
,,,,,,671d5ea81949155edb553545,676192165fb32c2e1fb7aee6,67d16971c23d6a12c409eb49,2025-03-12_16h16.24.228,Tarea de decisión léxica,2024.2.5,Win32,59.52380952,,,,,,,,,,,,,,,,,,,,,,132.1553,133.0649,l,1,0.2389,,0.2389,1,133.0655,133.5638,,,,,,14,FEM,NOWORD,AGR,150,nola,,la,,133.5639,133.564,0.047222222,-0.428703732,0,0,0,,0,60,60,13,1,hora,,,
,,,,,,671d5ea81949155edb553545,676192165fb32c2e1fb7aee6,67d16971c23d6a12c409eb49,2025-03-12_16h16.24.228,Tarea de decisión léxica,2024.2.5,Win32,59.52380952,,,,,,,,,,,,,,,,,,,,,,133.5681,134.4974,a,1,0.2565,,0.2565,1,134.4976,134.997,,,,,,351,MAS,WORD,DIS,150,vuelo,,la,,134.9973,134.9975,0.047222222,-0.428703732,0,0,0,,0,61,61,350,1,duepo,,,
,,,,,,671d5ea81949155edb553545,676192165fb32c2e1fb7aee6,67d16971c23d6a12c409eb49,2025-03-12_16h16.24.228,Tarea de decisión léxica,2024.2.5,Win32,59.52380952,,,,,,,,,,,,,,,,,,,,,,135.0021,135.965,a,1,0.2892,,0.2892,1,135.9652,136.4645,,,,,,147,FEM,WORD,DIS,150,hoja,,el,,136.4648,136.4652,0.047222222,-0.428703732,0,0,0,,0,62,62,146,1,pama,,,
,,,,,,671d5ea81949155edb553545,676192165fb32c2e1fb7aee6,67d16971c23d6a12c409eb49,2025-03-12_16h16.24.228,Tarea de decisión léxica,2024.2.5,Win32,59.52380952,,,,,,,,,,,,,,,,,,,,,,136.469,137.4805,l,0,0.3394,,0.3394,0,137.4842,137.9801,,,,,,189,MAS,WORD,AGR,150,puño,,el,,137.9805,137.9806,0.047222222,-0.428703732,0,0,0,,0,63,63,188,1,muvo,,,
,,,,,,671d5ea81949155edb553545,676192165fb32c2e1fb7aee6,67d16971c23d6a12c409eb49,2025-03-12_16h16.24.228,Tarea de decisión léxica,2024.2.5,Win32,59.52380952,,,,,,,,,,,,,,,,,,,,,,137.985,138.8474,a,0,0.1828,,0.1828,0,138.8482,139.3471,,,,,,216,FEM,NOWORD,DIS,150,raua,,el,,139.3529,139.3541,0.047222222,-0.428703732,0,0,0,,0,64,64,215,1,raíz,,,
,,,,,,671d5ea81949155edb553545,676192165fb32c2e1fb7aee6,67d16971c23d6a12c409eb49,2025-03-12_16h16.24.228,Tarea de decisión léxica,2024.2.5,Win32,59.52380952,,,,,,,,,,,,,,,,,,,,,,139.3552,140.3303,l,0,0.2989,,0.2989,0,140.3304,140.8301,,,,,,311,MAS,WORD,DIS,150,honor,,la,,140.8303,140.8306,0.047222222,-0.428703732,0,0,0,,0,65,65,310,1,nosor,,,
,,,,,,671d5ea81949155edb553545,676192165fb32c2e1fb7aee6,67d16971c23d6a12c409eb49,2025-03-12_16h16.24.228,Tarea de decisión léxica,2024.2.5,Win32,59.52380952,,,,,,,,,,,,,,,,,,,,,,140.8345,141.93,a,0,0.4172,,0.4172,0,141.9303,142.4301,,,,,,88,MAS,NOWORD,DIS,150,damo,,la,,142.4303,142.4304,0.047222222,-0.428703732,0,0,0,,0,66,66,87,1,vaso,,,
,,,,,,671d5ea81949155edb553545,676192165fb32c2e1fb7aee6,67d16971c23d6a12c409eb49,2025-03-12_16h16.24.228,Tarea de decisión léxica,2024.2.5,Win32,59.52380952,,,,,,,,,,,,,,,,,,,,,,142.4343,143.5486,l,1,0.4323,,0.4323,1,143.5512,144.0469,,,,,,114,FEM,NOWORD,AGR,150,tada,,la,,144.0469,144.047,0.047222222,-0.428703732,0,0,0,,0,67,67,113,1,miel,,,
,,,,,,671d5ea81949155edb553545,676192165fb32c2e1fb7aee6,67d16971c23d6a12c409eb49,2025-03-12_16h16.24.228,Tarea de decisión léxica,2024.2.5,Win32,59.52380952,,,,,,,,,,,,,,,,,,,,,,144.0508,145.1638,l,0,0.4381,,0.4381,0,145.1672,145.6629,,,,,,229,MAS,WORD,AGR,150,amor,,el,,145.6631,145.6635,0.047222222,-0.428703732,0,0,0,,0,68,68,228,1,ador,,,
,,,,,,671d5ea81949155edb553545,676192165fb32c2e1fb7aee6,67d16971c23d6a12c409eb49,2025-03-12_16h16.24.228,Tarea de decisión léxica,2024.2.5,Win32,59.52380952,,,,,,,,,,,,,,,,,,,,,,145.6678,146.7147,a,1,0.3732,,0.3732,1,146.7182,147.2134,,,,,,65,MAS,WORD,AGR,150,dios,,el,,147.2179,147.2204,0.047222222,-0.428703732,0,0,0,,0,69,69,64,1,nios,,,
,,,,,,671d5ea81949155edb553545,676192165fb32c2e1fb7aee6,67d16971c23d6a12c409eb49,2025-03-12_16h16.24.228,Tarea de decisión léxica,2024.2.5,Win32,59.52380952,,,,,,,,,,,,,,,,,,,,,,147.223,148.2629,a,0,0.3682,,0.3682,0,148.2669,148.764,,,,,,110,MAS,NOWORD,AGR,150,suno,,el,,148.7644,148.7652,0.047222222,-0.428703732,0,0,0,,0,70,70,109,1,rayo,,,
,,,,,,671d5ea81949155edb553545,676192165fb32c2e1fb7aee6,67d16971c23d6a12c409eb49,2025-03-12_16h16.24.228,Tarea de decisión léxica,2024.2.5,Win32,59.52380952,,,,,,,,,,,,,,,,,,,,,,148.7689,149.7006,l,0,0.2618,,0.2618,0,149.7007,150.1961,,,,,,163,FEM,WORD,DIS,150,fama,,el,,150.1961,150.1964,0.047222222,-0.428703732,0,0,0,,0,71,71,162,1,laga,,,
,,,,,,671d5ea81949155edb553545,676192165fb32c2e1fb7aee6,67d16971c23d6a12c409eb49,2025-03-12_16h16.24.228,Tarea de decisión léxica,2024.2.5,Win32,59.52380952,,,,,,,,,,,,,,,,,,,,,,150.2003,151.3464,a,1,0.4673,,0.4673,1,151.3495,151.8469,,,,,,215,FEM,WORD,DIS,150,raíz,,el,,151.8471,151.8476,0.047222222,-0.428703732,0,0,0,,0,72,72,214,1,raua,,,
,,,,,,671d5ea81949155edb553545,676192165fb32c2e1fb7aee6,67d16971c23d6a12c409eb49,2025-03-12_16h16.24.228,Tarea de decisión léxica,2024.2.5,Win32,59.52380952,,,,,,,,,,,,,,,,,,,,,,151.8506,152.8793,a,0,0.3463,,0.3463,0,152.8832,153.3792,,,,,,226,MAS,NOWORD,AGR,150,boco,,el,,153.3793,153.3797,0.047222222,-0.428703732,0,0,0,,0,73,73,225,1,lodo,,,
,,,,,,671d5ea81949155edb553545,676192165fb32c2e1fb7aee6,67d16971c23d6a12c409eb49,2025-03-12_16h16.24.228,Tarea de decisión léxica,2024.2.5,Win32,59.52380952,,,,,,,,,,,,,,,,,,,,,,153.3837,154.6459,l,0,0.5842,,0.5842,0,154.6461,155.146,,,,,,67,FEM,WORD,DIS,150,nena,,el,,155.1506,155.1523,0.047222222,-0.428703732,0,0,0,,0,74,74,66,1,gesa,,,
,,,,,,671d5ea81949155edb553545,676192165fb32c2e1fb7aee6,67d16971c23d6a12c409eb49,2025-03-12_16h16.24.228,Tarea de decisión léxica,2024.2.5,Win32,59.52380952,,,,,,,,,,,,,,,,,,,,,,155.1536,156.4628,a,0,0.6354,,0.6354,0,156.4635,156.9623,,,,,,12,MAS,NOWORD,DIS,150,bapo,,la,,156.9624,156.9627,0.047222222,-0.428703732,0,0,0,,0,75,75,11,1,lado,,,
,,,,,,671d5ea81949155edb553545,676192165fb32c2e1fb7aee6,67d16971c23d6a12c409eb49,2025-03-12_16h16.24.228,Tarea de decisión léxica,2024.2.5,Win32,59.52380952,,,,,,,,,,,,,,,,,,,,,,156.9666,158.9144,a,0,1.2739,,1.2739,0,158.9148,159.4123,,,,,,204,FEM,NOWORD,DIS,150,beja,,el,,159.4124,159.4125,0.047222222,-0.428703732,0,0,0,,0,76,76,203,1,leña,,,
,,,,,,671d5ea81949155edb553545,676192165fb32c2e1fb7aee6,67d16971c23d6a12c409eb49,2025-03-12_16h16.24.228,Tarea de decisión léxica,2024.2.5,Win32,59.52380952,,,,,,,,,,,,,,,,,,,,,,159.4167,160.7789,l,1,0.6832,,0.6832,1,160.7828,161.2791,,,,,,200,MAS,NOWORD,DIS,150,fano,,la,,161.2792,161.2803,0.047222222,-0.428703732,0,0,0,,0,77,77,199,1,lazo,,,
,,,,,,671d5ea81949155edb553545,676192165fb32c2e1fb7aee6,67d16971c23d6a12c409eb49,2025-03-12_16h16.24.228,Tarea de decisión léxica,2024.2.5,Win32,59.52380952,,,,,,,,,,,,,,,,,,,,,,161.2842,162.2623,l,0,0.3009,,0.3009,0,162.2657,162.762,,,,,,131,FEM,WORD,DIS,150,mina,,el,,162.7621,162.7622,0.047222222,-0.428703732,0,0,0,,0,78,78,130,1,fada,,,
,,,,,,671d5ea81949155edb553545,676192165fb32c2e1fb7aee6,67d16971c23d6a12c409eb49,2025-03-12_16h16.24.228,Tarea de decisión léxica,2024.2.5,Win32,59.52380952,,,,,,,,,,,,,,,,,,,,,,162.7665,163.6785,a,0,0.2349,,0.2349,0,163.6788,164.1789,,,,,,10,MAS,NOWORD,AGR,150,sibo,,el,,164.1832,164.1856,0.047222222,-0.428703732,0,0,0,,0,79,79,9,1,tipo,,,
,,,,,,671d5ea81949155edb553545,676192165fb32c2e1fb7aee6,67d16971c23d6a12c409eb49,2025-03-12_16h16.24.228,Tarea de decisión léxica,2024.2.5,Win32,59.52380952,,,,,,,,,,,,,,,,,,,,,,164.1869,165.1618,l,0,0.3006,,0.3006,0,165.162,165.6618,,,,,,357,FEM,WORD,AGR,150,bruja,,la,,165.6619,165.662,0.047222222,-0.428703732,0,0,0,,0,80,80,356,1,gruba,,,
,,,,,,671d5ea81949155edb553545,676192165fb32c2e1fb7aee6,67d16971c23d6a12c409eb49,2025-03-12_16h16.24.228,Tarea de decisión léxica,2024.2.5,Win32,59.52380952,,,,,,,,,,,,,,,,,,,,,,165.6658,166.7824,a,1,0.4417,,0.4417,1,166.7851,167.2781,,,,,,9,MAS,WORD,AGR,150,tipo,,el,,167.2783,167.2786,0.047222222,-0.428703732,0,0,0,,0,81,81,8,1,sibo,,,
,,,,,,671d5ea81949155edb553545,676192165fb32c2e1fb7aee6,67d16971c23d6a12c409eb49,2025-03-12_16h16.24.228,Tarea de decisión léxica,2024.2.5,Win32,59.52380952,,,,,,,,,,,,,,,,,,,,,,167.2827,168.4784,a,1,0.517,,0.517,1,168.4785,168.9779,,,,,,153,MAS,WORD,AGR,150,pato,,el,,168.9783,168.9784,0.047222222,-0.428703732,0,0,0,,0,82,82,152,1,tado,,,
,,,,,,671d5ea81949155edb553545,676192165fb32c2e1fb7aee6,67d16971c23d6a12c409eb49,2025-03-12_16h16.24.228,Tarea de decisión léxica,2024.2.5,Win32,59.52380952,,,,,,,,,,,,,,,,,,,,,,168.9827,170.0823,a,0,0.4281,,0.4281,0,170.0846,170.5783,,,,,,284,MAS,NOWORD,DIS,150,tuevo,,la,,170.5823,170.5846,0.047222222,-0.428703732,0,0,0,,0,83,83,283,1,sueño,,,
,,,,,,671d5ea81949155edb553545,676192165fb32c2e1fb7aee6,67d16971c23d6a12c409eb49,2025-03-12_16h16.24.228,Tarea de decisión léxica,2024.2.5,Win32,59.52380952,,,,,,,,,,,,,,,,,,,,,,170.586,171.4127,l,1,0.1504,,0.1504,1,171.4165,171.911,,,,,,104,FEM,NOWORD,DIS,150,rova,,el,,171.9113,171.9115,0.047222222,-0.428703732,0,0,0,,0,84,84,103,1,ruta,,,
,,,,,,671d5ea81949155edb553545,676192165fb32c2e1fb7aee6,67d16971c23d6a12c409eb49,2025-03-12_16h16.24.228,Tarea de decisión léxica,2024.2.5,Win32,59.52380952,,,,,,,,,,,,,,,,,,,,,,171.9156,172.8443,l,1,0.2529,,0.2529,1,172.8446,173.3446,,,,,,476,FEM,NOWORD,DIS,150,mucta,,el,,173.3447,173.3448,0.047222222,-0.428703732,0,0,0,,0,85,85,475,1,manta,,,
,,,,,,671d5ea81949155edb553545,676192165fb32c2e1fb7aee6,67d16971c23d6a12c409eb49,2025-03-12_16h16.24.228,Tarea de decisión léxica,2024.2.5,Win32,59.52380952,,,,,,,,,,,,,,,,,,,,,,173.3488,174.2946,l,1,0.268,,0.268,1,174.2948,174.7947,,,,,,424,MAS,NOWORD,DIS,150,quigo,,la,,174.7948,174.7956,0.047222222,-0.428703732,0,0,0,,0,86,86,423,1,queso,,,
,,,,,,671d5ea81949155edb553545,676192165fb32c2e1fb7aee6,67d16971c23d6a12c409eb49,2025-03-12_16h16.24.228,Tarea de decisión léxica,2024.2.5,Win32,59.52380952,,,,,,,,,,,,,,,,,,,,,,174.7999,175.5637,a,0,0.0881,,0.0881,0,175.5661,176.0613,,,,,,98,MAS,NOWORD,AGR,150,fopo,,el,,176.0614,176.0614,0.047222222,-0.428703732,0,0,0,,0,87,87,97,1,mono,,,
,,,,,,671d5ea81949155edb553545,676192165fb32c2e1fb7aee6,67d16971c23d6a12c409eb49,2025-03-12_16h16.24.228,Tarea de decisión léxica,2024.2.5,Win32,59.52380952,,,,,,,,,,,,,,,,,,,,,,176.0655,176.8607,a,0,0.1188,,0.1188,0,176.8611,177.3616,,,,,,194,FEM,NOWORD,AGR,150,foda,,la,,177.3653,177.3672,0.047222222,-0.428703732,0,0,0,,0,88,88,193,1,loca,,,
,,,,,,671d5ea81949155edb553545,676192165fb32c2e1fb7aee6,67d16971c23d6a12c409eb49,2025-03-12_16h16.24.228,Tarea de decisión léxica,2024.2.5,Win32,59.52380952,,,,,,,,,,,,,,,,,,,,,,177.3685,178.0446,l,0,0.0005,,0.0005,0,178.0449,178.5451,,,,,,337,MAS,WORD,AGR,150,huevo,,el,,178.5454,178.5457,0.047222222,-0.428703732,0,0,0,,0,89,89,336,1,nuejo,,,
,,,,,,671d5ea81949155edb553545,676192165fb32c2e1fb7aee6,67d16971c23d6a12c409eb49,2025-03-12_16h16.24.228,Tarea de decisión léxica,2024.2.5,Win32,59.52380952,,,,,,,,,,,,,,,,,,,,,,178.5492,179.3441,a,0,0.1175,,0.1175,0,179.3443,179.8441,,,,,,116,FEM,NOWORD,DIS,150,haca,,el,,179.8442,179.8446,0.047222222,-0.428703732,0,0,0,,0,90,90,115,1,pata,,,
,,,,,,671d5ea81949155edb553545,676192165fb32c2e1fb7aee6,67d16971c23d6a12c409eb49,2025-03-12_16h16.24.228,Tarea de decisión léxica,2024.2.5,Win32,59.52380952,,,,,,,,,,,,,,,,,,,,,,179.8486,180.6442,l,1,0.1175,,0.1175,1,180.6481,181.144,,,,,,276,MAS,NOWORD,DIS,150,musto,,la,,181.1443,181.1454,0.047222222,-0.428703732,0,0,0,,0,91,91,275,1,punto,,,
,,,,,,671d5ea81949155edb553545,676192165fb32c2e1fb7aee6,67d16971c23d6a12c409eb49,2025-03-12_16h16.24.228,Tarea de decisión léxica,2024.2.5,Win32,59.52380952,,,,,,,,,,,,,,,,,,,,,,181.1488,181.9608,a,1,0.1342,,0.1342,1,181.961,182.4606,,,,,,405,FEM,WORD,AGR,150,barra,,la,,182.4606,182.4608,0.047222222,-0.428703732,0,0,0,,0,92,92,404,1,rarra,,,
,,,,,,671d5ea81949155edb553545,676192165fb32c2e1fb7aee6,67d16971c23d6a12c409eb49,2025-03-12_16h16.24.228,Tarea de decisión léxica,2024.2.5,Win32,59.52380952,,,,,,,,,,,,,,,,,,,,,,182.4647,183.2625,l,1,0.1179,,0.1179,1,183.2628,183.7606,,,,,,272,FEM,NOWORD,DIS,150,refal,,el,,183.7647,183.7672,0.047222222,-0.428703732,0,0,0,,0,93,93,271,1,señal,,,
,,,,,,671d5ea81949155edb553545,676192165fb32c2e1fb7aee6,67d16971c23d6a12c409eb49,2025-03-12_16h16.24.228,Tarea de decisión léxica,2024.2.5,Win32,59.52380952,,,,,,,,,,,,,,,,,,,,,,183.7686,184.6602,l,0,0.2178,,0.2178,0,184.6633,185.1606,,,,,,21,MAS,WORD,AGR,150,plan,,el,,185.1606,185.1608,0.047222222,-0.428703732,0,0,0,,0,94,94,20,1,blan,,,
,,,,,,671d5ea81949155edb553545,676192165fb32c2e1fb7aee6,67d16971c23d6a12c409eb49,2025-03-12_16h16.24.228,Tarea de decisión léxica,2024.2.5,Win32,59.52380952,,,,,,,,,,,,,,,,,,,,,,185.1646,186.0797,l,0,0.2374,,0.2374,0,186.0802,186.5772,,,,,,37,MAS,WORD,AGR,150,rato,,el,,186.5772,186.5775,0.047222222,-0.428703732,0,0,0,,0,95,95,36,1,gaco,,,
,,,,,,671d5ea81949155edb553545,676192165fb32c2e1fb7aee6,67d16971c23d6a12c409eb49,2025-03-12_16h16.24.228,Tarea de decisión léxica,2024.2.5,Win32,59.52380952,,,,,,,,,,,,,,,,,,,,,,186.5823,187.3604,l,1,0.1011,,0.1011,1,187.3647,187.8606,,,,,,68,FEM,NOWORD,DIS,150,gesa,,el,,187.8607,187.8607,0.047222222,-0.428703732,0,0,0,,0,96,96,67,1,nena,,,
,,,,,,671d5ea81949155edb553545,676192165fb32c2e1fb7aee6,67d16971c23d6a12c409eb49,2025-03-12_16h16.24.228,Tarea de decisión léxica,2024.2.5,Win32,59.52380952,,,,,,,,,,,,,,,,,,,,,,187.8649,188.7938,l,1,0.2531,,0.2531,1,188.794,189.2955,,,,,,468,MAS,NOWORD,DIS,150,peiso,,la,,189.2957,189.2961,0.047222222,-0.428703732,0,0,0,,0,97,97,467,1,piano,,,
,,,,,,671d5ea81949155edb553545,676192165fb32c2e1fb7aee6,67d16971c23d6a12c409eb49,2025-03-12_16h16.24.228,Tarea de decisión léxica,2024.2.5,Win32,59.52380952,,,,,,,,,,,,,,,,,,,,,,189.2999,190.1934,a,1,0.218,,0.218,1,190.1935,190.6935,,,,,,471,FEM,WORD,DIS,150,grasa,,el,,190.6976,190.6996,0.047222222,-0.428703732,0,0,0,,0,98,98,470,1,prana,,,
,,,,,,671d5ea81949155edb553545,676192165fb32c2e1fb7aee6,67d16971c23d6a12c409eb49,2025-03-12_16h16.24.228,Tarea de decisión léxica,2024.2.5,Win32,59.52380952,,,,,,,,,,,,,,,,,,,,,,190.7008,191.6304,l,1,0.261,,0.261,1,191.6305,192.1263,,,,,,274,FEM,NOWORD,AGR,150,frosa,,la,,192.1265,192.1268,0.047222222,-0.428703732,0,0,0,,0,99,99,273,1,broma,,,
,,,,,,671d5ea81949155edb553545,676192165fb32c2e1fb7aee6,67d16971c23d6a12c409eb49,2025-03-12_16h16.24.228,Tarea de decisión léxica,2024.2.5,Win32,59.52380952,,,,,,,,,,,,,,,,,,,,,,192.1306,193.1099,a,0,0.3057,,0.3057,0,193.1123,193.6097,,,,,,106,FEM,NOWORD,AGR,150,vina,,la,,193.6098,193.6099,0.047222222,-0.428703732,0,0,0,,0,100,100,105,1,sopa,,,
,,,,,,671d5ea81949155edb553545,676192165fb32c2e1fb7aee6,67d16971c23d6a12c409eb49,2025-03-12_16h16.24.228,Tarea de decisión léxica,2024.2.5,Win32,59.52380952,,,,,,,,,,,,,,,,,,,,,,193.614,194.6445,a,1,0.3485,,0.3485,1,194.6473,195.1431,,,,,,379,MAS,WORD,DIS,150,turno,,la,,195.1432,195.1433,0.047222222,-0.428703732,0,0,0,,0,101,101,378,1,tunso,,,
,,,,,,671d5ea81949155edb553545,676192165fb32c2e1fb7aee6,67d16971c23d6a12c409eb49,2025-03-12_16h16.24.228,Tarea de decisión léxica,2024.2.5,Win32,59.52380952,,,,,,,,,,,,,,,,,,,,,,195.1472,196.1429,a,1,0.3192,,0.3192,1,196.1432,196.6431,,,,,,33,FEM,WORD,AGR,150,boca,,la,,196.6431,196.6433,0.047222222,-0.428703732,0,0,0,,0,102,102,32,1,loda,,,
,,,,,,671d5ea81949155edb553545,676192165fb32c2e1fb7aee6,67d16971c23d6a12c409eb49,2025-03-12_16h16.24.228,Tarea de decisión léxica,2024.2.5,Win32,59.52380952,,,,,,,,,,,,,,,,,,,,,,196.6472,197.5932,l,0,0.2681,,0.2681,0,197.5968,198.0925,,,,,,333,FEM,WORD,AGR,150,tarea,,la,,198.0968,198.0998,0.047222222,-0.428703732,0,0,0,,0,103,103,332,1,dalea,,,
,,,,,,671d5ea81949155edb553545,676192165fb32c2e1fb7aee6,67d16971c23d6a12c409eb49,2025-03-12_16h16.24.228,Tarea de decisión léxica,2024.2.5,Win32,59.52380952,,,,,,,,,,,,,,,,,,,,,,198.1013,199.0593,l,1,0.2848,,0.2848,1,199.0627,199.5594,,,,,,436,MAS,NOWORD,DIS,150,ricno,,la,,199.5595,199.5597,0.047222222,-0.428703732,0,0,0,,0,104,104,435,1,ritmo,,,
,,,,,,671d5ea81949155edb553545,676192165fb32c2e1fb7aee6,67d16971c23d6a12c409eb49,2025-03-12_16h16.24.228,Tarea de decisión léxica,2024.2.5,Win32,59.52380952,,,,,,,,,,,,,,,,,,,,,,199.5645,200.5093,l,1,0.2684,,0.2684,1,200.5095,201.0093,,,,,,434,MAS,NOWORD,AGR,150,durco,,el,,201.0094,201.0095,0.047222222,-0.428703732,0,0,0,,0,105,105,433,1,disco,,,
,,,,,,671d5ea81949155edb553545,676192165fb32c2e1fb7aee6,67d16971c23d6a12c409eb49,2025-03-12_16h16.24.228,Tarea de decisión léxica,2024.2.5,Win32,59.52380952,,,,,,,,,,,,,,,,,,,,,,201.0144,201.8925,l,1,0.2041,,0.2041,1,201.8927,202.3925,,,,,,4,FEM,NOWORD,DIS,150,dica,,el,,202.3925,202.3927,0.047222222,-0.428703732,0,0,0,,0,106,106,3,1,vida,,,
,,,,,,671d5ea81949155edb553545,676192165fb32c2e1fb7aee6,67d16971c23d6a12c409eb49,2025-03-12_16h16.24.228,Tarea de decisión léxica,2024.2.5,Win32,59.52380952,,,,,,,,,,,,,,,,,,,,,,202.3968,203.2296,a,0,0.1615,,0.1615,0,203.2311,203.7258,,,,,,286,MAS,NOWORD,AGR,150,echor,,el,,203.7299,203.7321,0.047222222,-0.428703732,0,0,0,,0,107,107,285,1,error,,,
,,,,,,671d5ea81949155edb553545,676192165fb32c2e1fb7aee6,67d16971c23d6a12c409eb49,2025-03-12_16h16.24.228,Tarea de decisión léxica,2024.2.5,Win32,59.52380952,,,,,,,,,,,,,,,,,,,,,,203.7336,204.7111,a,0,0.3077,,0.3077,0,204.7116,205.2091,,,,,,296,MAS,NOWORD,DIS,150,goler,,la,,205.2092,205.2093,0.047222222,-0.428703732,0,0,0,,0,108,108,295,1,dolor,,,
,,,,,,671d5ea81949155edb553545,676192165fb32c2e1fb7aee6,67d16971c23d6a12c409eb49,2025-03-12_16h16.24.228,Tarea de decisión léxica,2024.2.5,Win32,59.52380952,,,,,,,,,,,,,,,,,,,,,,205.2133,206.1591,a,1,0.2701,,0.2701,1,206.1629,206.659,,,,,,399,MAS,WORD,DIS,150,techo,,la,,206.6591,206.6591,0.047222222,-0.428703732,0,0,0,,0,109,109,398,1,serro,,,
,,,,,,671d5ea81949155edb553545,676192165fb32c2e1fb7aee6,67d16971c23d6a12c409eb49,2025-03-12_16h16.24.228,Tarea de decisión léxica,2024.2.5,Win32,59.52380952,,,,,,,,,,,,,,,,,,,,,,206.6631,207.6421,a,0,0.3027,,0.3027,0,207.646,208.1421,,,,,,254,MAS,NOWORD,AGR,150,trido,,el,,208.1423,208.1427,0.047222222,-0.428703732,0,0,0,,0,110,110,253,1,chico,,,
,,,,,,671d5ea81949155edb553545,676192165fb32c2e1fb7aee6,67d16971c23d6a12c409eb49,2025-03-12_16h16.24.228,Tarea de decisión léxica,2024.2.5,Win32,59.52380952,,,,,,,,,,,,,,,,,,,,,,208.1465,209.2584,l,0,0.4384,,0.4384,0,209.2585,209.7591,,,,,,445,MAS,WORD,AGR,150,actor,,el,,209.7591,209.76,0.047222222,-0.428703732,0,0,0,,0,111,111,444,1,ascor,,,
,,,,,,671d5ea81949155edb553545,676192165fb32c2e1fb7aee6,67d16971c23d6a12c409eb49,2025-03-12_16h16.24.228,Tarea de decisión léxica,2024.2.5,Win32,59.52380952,,,,,,,,,,,,,,,,,,,,,,209.7636,210.7419,a,0,0.303,,0.303,0,210.7421,211.242,,,,,,72,FEM,NOWORD,DIS,150,urla,,el,,211.2475,211.2489,0.047222222,-0.428703732,0,0,0,,0,112,112,71,1,isla,,,
,,,,,,671d5ea81949155edb553545,676192165fb32c2e1fb7aee6,67d16971c23d6a12c409eb49,2025-03-12_16h16.24.228,Tarea de decisión léxica,2024.2.5,Win32,59.52380952,,,,,,,,,,,,,,,,,,,,,,211.2501,212.4751,a,1,0.548,,0.548,1,212.4784,212.9748,,,,,,359,MAS,WORD,DIS,150,calor,,la,,212.9751,212.9754,0.047222222,-0.428703732,0,0,0,,0,113,113,358,1,cacer,,,
,,,,,,671d5ea81949155edb553545,676192165fb32c2e1fb7aee6,67d16971c23d6a12c409eb49,2025-03-12_16h16.24.228,Tarea de decisión léxica,2024.2.5,Win32,59.52380952,,,,,,,,,,,,,,,,,,,,,,212.9794,213.9959,a,0,0.3439,,0.3439,0,213.9981,214.4931,,,,,,290,FEM,NOWORD,AGR,150,bumpa,,la,,214.4933,214.4933,0.047222222,-0.428703732,0,0,0,,0,114,114,289,1,bomba,,,
,,,,,,671d5ea81949155edb553545,676192165fb32c2e1fb7aee6,67d16971c23d6a12c409eb49,2025-03-12_16h16.24.228,Tarea de decisión léxica,2024.2.5,Win32,59.52380952,,,,,,,,,,,,,,,,,,,,,,214.4963,215.4256,l,1,0.2535,,0.2535,1,215.4288,215.9251,,,,,,180,MAS,NOWORD,DIS,150,sono,,la,,215.9251,215.9253,0.047222222,-0.428703732,0,0,0,,0,115,115,179,1,toro,,,
,,,,,,671d5ea81949155edb553545,676192165fb32c2e1fb7aee6,67d16971c23d6a12c409eb49,2025-03-12_16h16.24.228,Tarea de decisión léxica,2024.2.5,Win32,59.52380952,,,,,,,,,,,,,,,,,,,,,,215.9289,216.9914,l,0,0.3873,,0.3873,0,216.9953,217.4915,,,,,,71,FEM,WORD,DIS,150,isla,,el,,217.4916,217.4918,0.047222222,-0.428703732,0,0,0,,0,116,116,70,1,urla,,,
,,,,,,671d5ea81949155edb553545,676192165fb32c2e1fb7aee6,67d16971c23d6a12c409eb49,2025-03-12_16h16.24.228,Tarea de decisión léxica,2024.2.5,Win32,59.52380952,,,,,,,,,,,,,,,,,,,,,,217.497,218.4093,l,1,0.2341,,0.2341,1,218.4121,218.908,,,,,,344,FEM,NOWORD,DIS,150,trada,,el,,218.9121,218.9142,0.047222222,-0.428703732,0,0,0,,0,117,117,343,1,plata,,,
,,,,,,671d5ea81949155edb553545,676192165fb32c2e1fb7aee6,67d16971c23d6a12c409eb49,2025-03-12_16h16.24.228,Tarea de decisión léxica,2024.2.5,Win32,59.52380952,,,,,,,,,,,,,,,,,,,,,,218.9155,220.0748,l,0,0.4819,,0.4819,0,220.0777,220.5745,,,,,,57,MAS,WORD,AGR,150,dedo,,el,,220.5746,220.5748,0.047222222,-0.428703732,0,0,0,,0,118,118,56,1,heco,,,
,,,,,,671d5ea81949155edb553545,676192165fb32c2e1fb7aee6,67d16971c23d6a12c409eb49,2025-03-12_16h16.24.228,Tarea de decisión léxica,2024.2.5,Win32,59.52380952,,,,,,,,,,,,,,,,,,,,,,220.5788,221.5914,a,0,0.3324,,0.3324,0,221.5914,222.0925,,,,,,78,MAS,NOWORD,AGR,150,fodo,,el,,222.0927,222.0929,0.047222222,-0.428703732,0,0,0,,0,119,119,77,1,loco,,,
,,,,,,671d5ea81949155edb553545,676192165fb32c2e1fb7aee6,67d16971c23d6a12c409eb49,2025-03-12_16h16.24.228,Tarea de decisión léxica,2024.2.5,Win32,59.52380952,,,,,,,,,,,,,,,,,,,,,,222.0962,223.0916,a,1,0.3176,,0.3176,1,223.0949,223.5909,,,,,,199,MAS,WORD,DIS,150,lazo,,la,,223.591,223.5911,0.047222222,-0.428703732,0,0,0,,0,120,120,198,1,fano,,,
,,,,,,671d5ea81949155edb553545,676192165fb32c2e1fb7aee6,67d16971c23d6a12c409eb49,2025-03-12_16h16.24.228,Tarea de decisión léxica,2024.2.5,Win32,59.52380952,,,,,,,,,,,,,,,,,,,,,,223.5966,224.6759,l,0,0.3991,,0.3991,0,224.6792,225.1742,,,,,,195,FEM,WORD,DIS,150,tela,,el,,225.1743,225.1745,0.047222222,-0.428703732,0,0,0,,0,121,121,194,1,sira,,,
,,,,,,671d5ea81949155edb553545,676192165fb32c2e1fb7aee6,67d16971c23d6a12c409eb49,2025-03-12_16h16.24.228,Tarea de decisión léxica,2024.2.5,Win32,59.52380952,,,,,,,,,,,,,,,,,,,,,,225.1791,226.4075,a,1,0.5557,,0.5557,1,226.4112,226.9075,,,,,,257,FEM,WORD,AGR,150,amiga,,la,,226.9116,226.9138,0.047222222,-0.428703732,0,0,0,,0,122,122,256,1,asama,,,
,,,,,,671d5ea81949155edb553545,676192165fb32c2e1fb7aee6,67d16971c23d6a12c409eb49,2025-03-12_16h16.24.228,Tarea de decisión léxica,2024.2.5,Win32,59.52380952,,,,,,,,,,,,,,,,,,,,,,226.9154,228.0907,a,0,0.5001,,0.5001,0,228.0947,228.5915,,,,,,76,MAS,NOWORD,DIS,150,ocer,,la,,228.5917,228.5923,0.047222222,-0.428703732,0,0,0,,0,123,123,75,1,olor,,,
,,,,,,671d5ea81949155edb553545,676192165fb32c2e1fb7aee6,67d16971c23d6a12c409eb49,2025-03-12_16h16.24.228,Tarea de decisión léxica,2024.2.5,Win32,59.52380952,,,,,,,,,,,,,,,,,,,,,,228.5966,229.7917,l,1,0.5189,,0.5189,1,229.7946,230.2921,,,,,,360,MAS,NOWORD,DIS,150,cacer,,la,,230.2923,230.2928,0.047222222,-0.428703732,0,0,0,,0,124,124,359,1,calor,,,
,,,,,,671d5ea81949155edb553545,676192165fb32c2e1fb7aee6,67d16971c23d6a12c409eb49,2025-03-12_16h16.24.228,Tarea de decisión léxica,2024.2.5,Win32,59.52380952,,,,,,,,,,,,,,,,,,,,,,230.2959,231.4071,l,1,0.434,,0.434,1,231.4074,231.9071,,,,,,124,FEM,NOWORD,DIS,150,maba,,el,,231.9071,231.9074,0.047222222,-0.428703732,0,0,0,,0,125,125,123,1,flor,,,
,,,,,,671d5ea81949155edb553545,676192165fb32c2e1fb7aee6,67d16971c23d6a12c409eb49,2025-03-12_16h16.24.228,Tarea de decisión léxica,2024.2.5,Win32,59.52380952,,,,,,,,,,,,,,,,,,,,,,231.9116,232.9401,l,1,0.3535,,0.3535,1,232.9406,233.4405,,,,,,182,FEM,NOWORD,AGR,150,teda,,la,,233.4406,233.4407,0.047222222,-0.428703732,0,0,0,,0,126,126,181,1,seda,,,
,,,,,,671d5ea81949155edb553545,676192165fb32c2e1fb7aee6,67d16971c23d6a12c409eb49,2025-03-12_16h16.24.228,Tarea de decisión léxica,2024.2.5,Win32,59.52380952,,,,,,,,,,,,,,,,,,,,,,233.4445,234.6069,a,0,0.4829,,0.4829,0,234.6106,235.1069,,,,,,176,FEM,NOWORD,DIS,150,hosa,,el,,235.1114,235.1151,0.047222222,-0.428703732,0,0,0,,0,127,127,175,1,goma,,,
,,,,,,671d5ea81949155edb553545,676192165fb32c2e1fb7aee6,67d16971c23d6a12c409eb49,2025-03-12_16h16.24.228,Tarea de decisión léxica,2024.2.5,Win32,59.52380952,,,,,,,,,,,,,,,,,,,,,,235.1158,236.5909,l,0,0.8015,,0.8015,0,236.5914,237.0903,,,,,,307,MAS,WORD,DIS,150,hotel,,la,,237.0904,237.0905,0.047222222,-0.428703732,0,0,0,,0,128,128,306,1,holol,,,
,,,,,,671d5ea81949155edb553545,676192165fb32c2e1fb7aee6,67d16971c23d6a12c409eb49,2025-03-12_16h16.24.228,Tarea de decisión léxica,2024.2.5,Win32,59.52380952,,,,,,,,,,,,,,,,,,,,,,237.0942,238.4568,a,0,0.6888,,0.6888,0,238.4569,238.9567,,,,,,192,FEM,NOWORD,DIS,150,bila,,el,,238.9568,238.9572,0.047222222,-0.428703732,0,0,0,,0,129,129,191,1,pila,,,
,,,,,,671d5ea81949155edb553545,676192165fb32c2e1fb7aee6,67d16971c23d6a12c409eb49,2025-03-12_16h16.24.228,Tarea de decisión léxica,2024.2.5,Win32,59.52380952,,,,,,,,,,,,,,,,,,,,,,238.9608,240.1234,l,1,0.4847,,0.4847,1,240.127,240.6231,,,,,,236,FEM,NOWORD,DIS,150,tria,,el,,240.6232,240.6234,0.047222222,-0.428703732,0,0,0,,0,130,130,235,1,grúa,,,
,,,,,,671d5ea81949155edb553545,676192165fb32c2e1fb7aee6,67d16971c23d6a12c409eb49,2025-03-12_16h16.24.228,Tarea de decisión léxica,2024.2.5,Win32,59.52380952,,,,,,,,,,,,,,,,,,,,,,240.6274,242.025,l,1,0.7372,,0.7372,1,242.0257,242.5235,,,,,,474,FEM,NOWORD,AGR,150,felia,,la,,242.527,242.5294,0.047222222,-0.428703732,0,0,0,,0,131,131,473,1,feria,,,
,,,,,,671d5ea81949155edb553545,676192165fb32c2e1fb7aee6,67d16971c23d6a12c409eb49,2025-03-12_16h16.24.228,Tarea de decisión léxica,2024.2.5,Win32,59.52380952,,,,,,,,,,,,,,,,,,,,,,242.5308,243.6393,l,0,0.4359,,0.4359,0,243.642,244.14,,,,,,167,FEM,WORD,DIS,150,jefa,,el,,244.1403,244.1407,0.047222222,-0.428703732,0,0,0,,0,132,132,166,1,zifa,,,
,,,,,,671d5ea81949155edb553545,676192165fb32c2e1fb7aee6,67d16971c23d6a12c409eb49,2025-03-12_16h16.24.228,Tarea de decisión léxica,2024.2.5,Win32,59.52380952,,,,,,,,,,,,,,,,,,,,,,244.1441,245.1727,a,1,0.3485,,0.3485,1,245.1765,245.6727,,,,,,419,MAS,WORD,DIS,150,truco,,la,,245.6727,245.6729,0.047222222,-0.428703732,0,0,0,,0,133,133,418,1,chudo,,,
,,,,,,671d5ea81949155edb553545,676192165fb32c2e1fb7aee6,67d16971c23d6a12c409eb49,2025-03-12_16h16.24.228,Tarea de decisión léxica,2024.2.5,Win32,59.52380952,,,,,,,,,,,,,,,,,,,,,,245.6769,246.8902,a,0,0.5367,,0.5367,0,246.8934,247.3911,,,,,,280,FEM,NOWORD,DIS,150,grina,,el,,247.3913,247.3918,0.047222222,-0.428703732,0,0,0,,0,134,134,279,1,prisa,,,
,,,,,,671d5ea81949155edb553545,676192165fb32c2e1fb7aee6,67d16971c23d6a12c409eb49,2025-03-12_16h16.24.228,Tarea de decisión léxica,2024.2.5,Win32,59.52380952,,,,,,,,,,,,,,,,,,,,,,247.3952,248.3575,l,0,0.285,,0.285,0,248.3578,248.8574,,,,,,417,FEM,WORD,AGR,150,barba,,la,,248.8576,248.8582,0.047222222,-0.428703732,0,0,0,,0,135,135,416,1,banja,,,
,,,,,,671d5ea81949155edb553545,676192165fb32c2e1fb7aee6,67d16971c23d6a12c409eb49,2025-03-12_16h16.24.228,Tarea de decisión léxica,2024.2.5,Win32,59.52380952,,,,,,,,,,,,,,,,,,,,,,248.8619,249.9392,a,1,0.4009,,0.4009,1,249.9421,250.4388,,,,,,119,MAS,WORD,DIS,150,pozo,,la,,250.4433,250.4457,0.047222222,-0.428703732,0,0,0,,0,136,136,118,1,hooy,,,
,,,,,,671d5ea81949155edb553545,676192165fb32c2e1fb7aee6,67d16971c23d6a12c409eb49,2025-03-12_16h16.24.228,Tarea de decisión léxica,2024.2.5,Win32,59.52380952,,,,,,,,,,,,,,,,,,,,,,250.447,251.5914,a,0,0.4688,,0.4688,0,251.5953,252.0892,,,,,,90,MAS,NOWORD,AGR,150,guso,,el,,252.0893,252.0911,0.047222222,-0.428703732,0,0,0,,0,137,137,89,1,humo,,,
,,,,,,671d5ea81949155edb553545,676192165fb32c2e1fb7aee6,67d16971c23d6a12c409eb49,2025-03-12_16h16.24.228,Tarea de decisión léxica,2024.2.5,Win32,59.52380952,,,,,,,,,,,,,,,,,,,,,,252.0953,253.0727,l,0,0.3008,,0.3008,0,253.0727,253.5722,,,,,,341,MAS,WORD,AGR,150,valor,,el,,253.5723,253.5725,0.047222222,-0.428703732,0,0,0,,0,138,138,340,1,daror,,,
,,,,,,671d5ea81949155edb553545,676192165fb32c2e1fb7aee6,67d16971c23d6a12c409eb49,2025-03-12_16h16.24.228,Tarea de decisión léxica,2024.2.5,Win32,59.52380952,,,,,,,,,,,,,,,,,,,,,,253.577,254.7055,a,1,0.4659,,0.4659,1,254.7094,255.2054,,,,,,463,FEM,WORD,DIS,150,cabra,,el,,255.2055,255.2059,0.047222222,-0.428703732,0,0,0,,0,139,139,462,1,matla,,,
,,,,,,671d5ea81949155edb553545,676192165fb32c2e1fb7aee6,67d16971c23d6a12c409eb49,2025-03-12_16h16.24.228,Tarea de decisión léxica,2024.2.5,Win32,59.52380952,,,,,,,,,,,,,,,,,,,,,,255.21,256.3884,a,1,0.5009,,0.5009,1,256.3885,256.8886,,,,,,455,MAS,WORD,DIS,150,reino,,la,,256.8887,256.8888,0.047222222,-0.428703732,0,0,0,,0,140,140,454,1,riaso,,,
,,,,,,671d5ea81949155edb553545,676192165fb32c2e1fb7aee6,67d16971c23d6a12c409eb49,2025-03-12_16h16.24.228,Tarea de decisión léxica,2024.2.5,Win32,59.52380952,,,,,,,,,,,,,,,,,,,,,,256.8927,258.1053,a,0,0.5357,,0.5357,0,258.1089,258.6052,,,,,,352,MAS,NOWORD,DIS,150,duepo,,la,,258.6097,258.612,0.047222222,-0.428703732,0,0,0,,0,141,141,351,1,vuelo,,,
,,,,,,671d5ea81949155edb553545,676192165fb32c2e1fb7aee6,67d16971c23d6a12c409eb49,2025-03-12_16h16.24.228,Tarea de decisión léxica,2024.2.5,Win32,59.52380952,,,,,,,,,,,,,,,,,,,,,,258.6133,259.6052,l,0,0.3168,,0.3168,0,259.6054,260.1054,,,,,,87,MAS,WORD,DIS,150,vaso,,la,,260.1054,260.1059,0.047222222,-0.428703732,0,0,0,,0,142,142,86,1,damo,,,
,,,,,,671d5ea81949155edb553545,676192165fb32c2e1fb7aee6,67d16971c23d6a12c409eb49,2025-03-12_16h16.24.228,Tarea de decisión léxica,2024.2.5,Win32,59.52380952,,,,,,,,,,,,,,,,,,,,,,260.1103,261.4053,a,0,0.6172,,0.6172,0,261.4054,261.9056,,,,,,138,MAS,NOWORD,AGR,150,pamo,,el,,261.9058,261.9061,0.047222222,-0.428703732,0,0,0,,0,143,143,137,1,nene,,,
,,,,,,671d5ea81949155edb553545,676192165fb32c2e1fb7aee6,67d16971c23d6a12c409eb49,2025-03-12_16h16.24.228,Tarea de decisión léxica,2024.2.5,Win32,59.52380952,,,,,,,,,,,,,,,,,,,,,,261.9093,263.1218,a,1,0.5343,,0.5343,1,263.1243,263.6222,,,,,,223,FEM,WORD,DIS,150,cera,,el,,263.6224,263.6229,0.047222222,-0.428703732,0,0,0,,0,144,144,222,1,cira,,,
,,,,,,671d5ea81949155edb553545,676192165fb32c2e1fb7aee6,67d16971c23d6a12c409eb49,2025-03-12_16h16.24.228,Tarea de decisión léxica,2024.2.5,Win32,59.52380952,,,,,,,,,,,,,,,,,,,,,,263.6264,264.6214,a,0,0.3174,,0.3174,0,264.6251,265.1217,,,,,,426,FEM,NOWORD,AGR,150,virca,,la,,265.1218,265.122,0.047222222,-0.428703732,0,0,0,,0,145,145,425,1,viuda,,,
,,,,,,671d5ea81949155edb553545,676192165fb32c2e1fb7aee6,67d16971c23d6a12c409eb49,2025-03-12_16h16.24.228,Tarea de decisión léxica,2024.2.5,Win32,59.52380952,,,,,,,,,,,,,,,,,,,,,,265.1259,266.088,l,0,0.2839,,0.2839,0,266.0882,266.5877,,,,,,177,MAS,WORD,AGR,150,reto,,el,,266.5919,266.5938,0.047222222,-0.428703732,0,0,0,,0,146,146,176,1,bito,,,
,,,,,,671d5ea81949155edb553545,676192165fb32c2e1fb7aee6,67d16971c23d6a12c409eb49,2025-03-12_16h16.24.228,Tarea de decisión léxica,2024.2.5,Win32,59.52380952,,,,,,,,,,,,,,,,,,,,,,266.5951,267.5879,l,0,0.3164,,0.3164,0,267.588,268.0894,,,,,,213,FEM,WORD,AGR,150,rama,,la,,268.0896,268.0899,0.047222222,-0.428703732,0,0,0,,0,147,147,212,1,bana,,,
,,,,,,671d5ea81949155edb553545,676192165fb32c2e1fb7aee6,67d16971c23d6a12c409eb49,2025-03-12_16h16.24.228,Tarea de decisión léxica,2024.2.5,Win32,59.52380952,,,,,,,,,,,,,,,,,,,,,,268.0932,269.1216,l,0,0.3537,,0.3537,0,269.1219,269.6226,,,,,,63,FEM,WORD,DIS,150,luna,,el,,269.6229,269.6233,0.047222222,-0.428703732,0,0,0,,0,148,148,62,1,funa,,,
,,,,,,671d5ea81949155edb553545,676192165fb32c2e1fb7aee6,67d16971c23d6a12c409eb49,2025-03-12_16h16.24.228,Tarea de decisión léxica,2024.2.5,Win32,59.52380952,,,,,,,,,,,,,,,,,,,,,,269.6282,270.621,l,1,0.3176,,0.3176,1,270.6246,271.1211,,,,,,380,MAS,NOWORD,DIS,150,tunso,,la,,271.1212,271.1213,0.047222222,-0.428703732,0,0,0,,0,149,149,379,1,turno,,,
,,,,,,671d5ea81949155edb553545,676192165fb32c2e1fb7aee6,67d16971c23d6a12c409eb49,2025-03-12_16h16.24.228,Tarea de decisión léxica,2024.2.5,Win32,59.52380952,,,,,,,,,,,,,,,,,,,,,,271.1258,272.0717,l,1,0.2689,,0.2689,1,272.0722,272.5729,,,,,,246,FEM,NOWORD,AGR,150,pafle,,la,,272.5731,272.5736,0.047222222,-0.428703732,0,0,0,,0,150,150,245,1,madre,,,
,,,,,,671d5ea81949155edb553545,676192165fb32c2e1fb7aee6,67d16971c23d6a12c409eb49,2025-03-12_16h16.24.228,Tarea de decisión léxica,2024.2.5,Win32,59.52380952,,,,,,,,,,,,,,,,,,,,,,272.5767,273.5383,a,0,0.2844,,0.2844,0,273.5416,274.0374,,,,,,28,MAS,NOWORD,DIS,150,ravo,,la,,274.0417,274.0435,0.047222222,-0.428703732,0,0,0,,0,151,151,27,1,baño,,,
,,,,,,671d5ea81949155edb553545,676192165fb32c2e1fb7aee6,67d16971c23d6a12c409eb49,2025-03-12_16h16.24.228,Tarea de decisión léxica,2024.2.5,Win32,59.52380952,,,,,,,,,,,,,,,,,,,,,,274.0448,274.9708,a,1,0.2503,,0.2503,1,274.9741,275.4708,,,,,,3,FEM,WORD,DIS,150,vida,,el,,275.4709,275.471,0.047222222,-0.428703732,0,0,0,,0,152,152,2,1,dica,,,
,,,,,,671d5ea81949155edb553545,676192165fb32c2e1fb7aee6,67d16971c23d6a12c409eb49,2025-03-12_16h16.24.228,Tarea de decisión léxica,2024.2.5,Win32,59.52380952,,,,,,,,,,,,,,,,,,,,,,275.4752,276.4208,a,1,0.2669,,0.2669,1,276.421,276.9215,,,,,,7,MAS,WORD,DIS,150,hijo,,la,,276.9218,276.9223,0.047222222,-0.428703732,0,0,0,,0,153,153,6,1,nivo,,,
,,,,,,671d5ea81949155edb553545,676192165fb32c2e1fb7aee6,67d16971c23d6a12c409eb49,2025-03-12_16h16.24.228,Tarea de decisión léxica,2024.2.5,Win32,59.52380952,,,,,,,,,,,,,,,,,,,,,,276.9257,277.7553,a,1,0.1534,,0.1534,1,277.7554,278.254,,,,,,123,FEM,WORD,DIS,150,flor,,el,,278.2541,278.2542,0.047222222,-0.428703732,0,0,0,,0,154,154,122,1,maba,,,
,,,,,,671d5ea81949155edb553545,676192165fb32c2e1fb7aee6,67d16971c23d6a12c409eb49,2025-03-12_16h16.24.228,Tarea de decisión léxica,2024.2.5,Win32,59.52380952,,,,,,,,,,,,,,,,,,,,,,278.258,279.0871,l,1,0.1532,,0.1532,1,279.0873,279.5874,,,,,,234,FEM,NOWORD,AGR,150,fasa,,la,,279.5921,279.5943,0.047222222,-0.428703732,0,0,0,,0,155,155,233,1,lana,,,
,,,,,,671d5ea81949155edb553545,676192165fb32c2e1fb7aee6,67d16971c23d6a12c409eb49,2025-03-12_16h16.24.228,Tarea de decisión léxica,2024.2.5,Win32,59.52380952,,,,,,,,,,,,,,,,,,,,,,279.5954,280.524,l,0,0.2605,,0.2605,0,280.5263,281.0205,,,,,,329,MAS,WORD,AGR,150,hueso,,el,,281.0205,281.0207,0.047222222,-0.428703732,0,0,0,,0,156,156,328,1,nueno,,,
,,,,,,671d5ea81949155edb553545,676192165fb32c2e1fb7aee6,67d16971c23d6a12c409eb49,2025-03-12_16h16.24.228,Tarea de decisión léxica,2024.2.5,Win32,59.52380952,,,,,,,,,,,,,,,,,,,,,,281.0246,281.8369,a,0,0.1362,,0.1362,0,281.8371,282.3379,,,,,,466,FEM,NOWORD,AGR,150,asuba,,la,,282.338,282.3383,0.047222222,-0.428703732,0,0,0,,0,157,157,465,1,aguja,,,
,,,,,,671d5ea81949155edb553545,676192165fb32c2e1fb7aee6,67d16971c23d6a12c409eb49,2025-03-12_16h16.24.228,Tarea de decisión léxica,2024.2.5,Win32,59.52380952,,,,,,,,,,,,,,,,,,,,,,282.3438,283.2034,l,1,0.1786,,0.1786,1,283.2073,283.7035,,,,,,34,FEM,NOWORD,AGR,150,loda,,la,,283.7035,283.7036,0.047222222,-0.428703732,0,0,0,,0,158,158,33,1,boca,,,
,,,,,,671d5ea81949155edb553545,676192165fb32c2e1fb7aee6,67d16971c23d6a12c409eb49,2025-03-12_16h16.24.228,Tarea de decisión léxica,2024.2.5,Win32,59.52380952,,,,,,,,,,,,,,,,,,,,,,283.7082,284.6034,l,0,0.2177,,0.2177,0,284.6071,285.1033,,,,,,227,MAS,WORD,DIS,150,faro,,la,,285.1034,285.1037,0.047222222,-0.428703732,0,0,0,,0,159,159,226,1,laro,,,
,,,,,,671d5ea81949155edb553545,676192165fb32c2e1fb7aee6,67d16971c23d6a12c409eb49,2025-03-12_16h16.24.228,Tarea de decisión léxica,2024.2.5,Win32,59.52380952,,,,,,,,,,,,,,,,,,,,,,285.1088,286.02,a,0,0.2339,,0.2339,0,286.0202,286.52,,,,,,146,MAS,NOWORD,AGR,150,nobo,,el,,286.5241,466.5441,0.047222222,-0.428703732,1,0,0,,0,160,160,145,1,león,break_done_button,,
,,,,,,671d5ea81949155edb553545,676192165fb32c2e1fb7aee6,67d16971c23d6a12c409eb49,2025-03-12_16h16.24.228,Tarea de decisión léxica,2024.2.5,Win32,59.52380952,,,,,,,,,,,,,,,,,,,,,,466.5463,467.8573,a,0,0.6312,,0.6312,0,467.8575,468.3573,,,,,,210,MAS,NOWORD,AGR,150,dero,,el,,468.3573,468.3575,0.048148176,-0.402777778,0,0,0,,0,161,161,209,1,velo,,,
,,,,,,671d5ea81949155edb553545,676192165fb32c2e1fb7aee6,67d16971c23d6a12c409eb49,2025-03-12_16h16.24.228,Tarea de decisión léxica,2024.2.5,Win32,59.52380952,,,,,,,,,,,,,,,,,,,,,,468.3615,469.2407,l,0,0.2021,,0.2021,0,469.2408,469.7405,,,,,,347,FEM,WORD,DIS,150,pieza,,el,,469.7406,469.7407,0.048148176,-0.402777778,0,0,0,,0,162,162,346,1,mueza,,,
,,,,,,671d5ea81949155edb553545,676192165fb32c2e1fb7aee6,67d16971c23d6a12c409eb49,2025-03-12_16h16.24.228,Tarea de decisión léxica,2024.2.5,Win32,59.52380952,,,,,,,,,,,,,,,,,,,,,,469.7447,470.7401,l,0,0.3172,,0.3172,0,470.7405,471.2414,,,,,,477,MAS,WORD,AGR,150,botón,,el,,471.2415,471.2419,0.048148176,-0.402777778,0,0,0,,0,163,163,476,1,hocon,,,
,,,,,,671d5ea81949155edb553545,676192165fb32c2e1fb7aee6,67d16971c23d6a12c409eb49,2025-03-12_16h16.24.228,Tarea de decisión léxica,2024.2.5,Win32,59.52380952,,,,,,,,,,,,,,,,,,,,,,471.2471,472.2082,l,0,0.2846,,0.2846,0,472.2089,472.7082,,,,,,175,FEM,WORD,DIS,150,goma,,el,,472.7084,472.7089,0.048148176,-0.402777778,0,0,0,,0,164,164,174,1,hosa,,,
,,,,,,671d5ea81949155edb553545,676192165fb32c2e1fb7aee6,67d16971c23d6a12c409eb49,2025-03-12_16h16.24.228,Tarea de decisión léxica,2024.2.5,Win32,59.52380952,,,,,,,,,,,,,,,,,,,,,,472.7138,473.5742,l,0,0.1855,,0.1855,0,473.5744,474.0738,,,,,,107,MAS,WORD,DIS,150,saco,,la,,474.0791,474.0812,0.048148176,-0.402777778,0,0,0,,0,165,165,106,1,raot,,,
,,,,,,671d5ea81949155edb553545,676192165fb32c2e1fb7aee6,67d16971c23d6a12c409eb49,2025-03-12_16h16.24.228,Tarea de decisión léxica,2024.2.5,Win32,59.52380952,,,,,,,,,,,,,,,,,,,,,,474.0825,474.8752,l,0,0.1227,,0.1227,0,474.8756,475.3739,,,,,,19,MAS,WORD,DIS,150,niño,,la,,475.374,475.3744,0.048148176,-0.402777778,0,0,0,,0,166,166,18,1,himo,,,
,,,,,,671d5ea81949155edb553545,676192165fb32c2e1fb7aee6,67d16971c23d6a12c409eb49,2025-03-12_16h16.24.228,Tarea de decisión léxica,2024.2.5,Win32,59.52380952,,,,,,,,,,,,,,,,,,,,,,475.379,476.2913,l,0,0.2369,,0.2369,0,476.2914,476.7902,,,,,,205,FEM,WORD,AGR,150,rana,,la,,476.7903,476.7908,0.048148176,-0.402777778,0,0,0,,0,167,167,204,1,bara,,,
,,,,,,671d5ea81949155edb553545,676192165fb32c2e1fb7aee6,67d16971c23d6a12c409eb49,2025-03-12_16h16.24.228,Tarea de decisión léxica,2024.2.5,Win32,59.52380952,,,,,,,,,,,,,,,,,,,,,,476.7953,477.7567,l,0,0.2833,,0.2833,0,477.7569,478.2566,,,,,,335,FEM,WORD,DIS,150,costa,,el,,478.2567,478.2568,0.048148176,-0.402777778,0,0,0,,0,168,168,334,1,pesta,,,
,,,,,,671d5ea81949155edb553545,676192165fb32c2e1fb7aee6,67d16971c23d6a12c409eb49,2025-03-12_16h16.24.228,Tarea de decisión léxica,2024.2.5,Win32,59.52380952,,,,,,,,,,,,,,,,,,,,,,478.2615,479.244,a,1,0.3081,,0.3081,1,479.2463,479.7397,,,,,,251,MAS,WORD,DIS,150,señor,,la,,479.7398,479.74,0.048148176,-0.402777778,0,0,0,,0,169,169,250,1,refor,,,
,,,,,,671d5ea81949155edb553545,676192165fb32c2e1fb7aee6,67d16971c23d6a12c409eb49,2025-03-12_16h16.24.228,Tarea de decisión léxica,2024.2.5,Win32,59.52380952,,,,,,,,,,,,,,,,,,,,,,479.7446,480.6897,a,0,0.2675,,0.2675,0,480.6932,481.1902,,,,,,318,FEM,NOWORD,AGR,150,plaad,,la,,481.1947,481.1974,0.048148176,-0.402777778,0,0,0,,0,170,170,317,1,playa,,,
,,,,,,671d5ea81949155edb553545,676192165fb32c2e1fb7aee6,67d16971c23d6a12c409eb49,2025-03-12_16h16.24.228,Tarea de decisión léxica,2024.2.5,Win32,59.52380952,,,,,,,,,,,,,,,,,,,,,,481.1988,482.1569,l,1,0.2844,,0.2844,1,482.1602,482.6562,,,,,,230,MAS,NOWORD,AGR,150,ador,,el,,482.6563,482.6565,0.048148176,-0.402777778,0,0,0,,0,171,171,229,1,amor,,,
,,,,,,671d5ea81949155edb553545,676192165fb32c2e1fb7aee6,67d16971c23d6a12c409eb49,2025-03-12_16h16.24.228,Tarea de decisión léxica,2024.2.5,Win32,59.52380952,,,,,,,,,,,,,,,,,,,,,,482.661,483.6272,l,1,0.2957,,0.2957,1,483.6274,484.1238,,,,,,54,FEM,NOWORD,AGR,150,rora,,la,,484.1239,484.1243,0.048148176,-0.402777778,0,0,0,,0,172,172,53,1,boda,,,
,,,,,,671d5ea81949155edb553545,676192165fb32c2e1fb7aee6,67d16971c23d6a12c409eb49,2025-03-12_16h16.24.228,Tarea de decisión léxica,2024.2.5,Win32,59.52380952,,,,,,,,,,,,,,,,,,,,,,484.1284,485.0398,a,0,0.2378,,0.2378,0,485.043,485.541,,,,,,394,FEM,NOWORD,AGR,150,ashea,,la,,485.5416,485.5429,0.048148176,-0.402777778,0,0,0,,0,173,173,393,1,aldea,,,
,,,,,,671d5ea81949155edb553545,676192165fb32c2e1fb7aee6,67d16971c23d6a12c409eb49,2025-03-12_16h16.24.228,Tarea de decisión léxica,2024.2.5,Win32,59.52380952,,,,,,,,,,,,,,,,,,,,,,485.5457,486.3731,l,1,0.1476,,0.1476,1,486.3761,486.8767,,,,,,152,MAS,NOWORD,DIS,150,sogo,,la,,486.8768,486.877,0.048148176,-0.402777778,0,0,0,,0,174,174,151,1,tomo,,,
,,,,,,671d5ea81949155edb553545,676192165fb32c2e1fb7aee6,67d16971c23d6a12c409eb49,2025-03-12_16h16.24.228,Tarea de decisión léxica,2024.2.5,Win32,59.52380952,,,,,,,,,,,,,,,,,,,,,,486.88,487.8394,l,0,0.2855,,0.2855,0,487.843,488.3393,,,,,,111,MAS,WORD,DIS,150,muro,,la,,488.3433,488.3453,0.048148176,-0.402777778,0,0,0,,0,175,175,110,1,siro,,,
,,,,,,671d5ea81949155edb553545,676192165fb32c2e1fb7aee6,67d16971c23d6a12c409eb49,2025-03-12_16h16.24.228,Tarea de decisión léxica,2024.2.5,Win32,59.52380952,,,,,,,,,,,,,,,,,,,,,,488.3467,489.1762,a,0,0.1605,,0.1605,0,489.1762,489.6726,,,,,,382,MAS,NOWORD,AGR,150,nusor,,el,,489.6726,489.6727,0.048148176,-0.402777778,0,0,0,,0,176,176,381,1,humor,,,
,,,,,,671d5ea81949155edb553545,676192165fb32c2e1fb7aee6,67d16971c23d6a12c409eb49,2025-03-12_16h16.24.228,Tarea de decisión léxica,2024.2.5,Win32,59.52380952,,,,,,,,,,,,,,,,,,,,,,489.6765,490.4906,l,0,0.1352,,0.1352,0,490.4911,490.989,,,,,,113,FEM,WORD,AGR,150,miel,,la,,490.9891,490.9893,0.048148176,-0.402777778,0,0,0,,0,177,177,112,1,tada,,,
,,,,,,671d5ea81949155edb553545,676192165fb32c2e1fb7aee6,67d16971c23d6a12c409eb49,2025-03-12_16h16.24.228,Tarea de decisión léxica,2024.2.5,Win32,59.52380952,,,,,,,,,,,,,,,,,,,,,,490.9936,491.839,a,0,0.1694,,0.1694,0,491.8391,492.34,,,,,,218,MAS,NOWORD,AGR,150,budo,,el,,492.3401,492.3404,0.048148176,-0.402777778,0,0,0,,0,178,178,217,1,luto,,,
,,,,,,671d5ea81949155edb553545,676192165fb32c2e1fb7aee6,67d16971c23d6a12c409eb49,2025-03-12_16h16.24.228,Tarea de decisión léxica,2024.2.5,Win32,59.52380952,,,,,,,,,,,,,,,,,,,,,,492.3435,493.2072,l,0,0.1839,,0.1839,0,493.2075,493.7061,,,,,,139,MAS,WORD,DIS,150,mago,,la,,493.7094,493.7121,0.048148176,-0.402777778,0,0,0,,0,179,179,138,1,nila,,,
,,,,,,671d5ea81949155edb553545,676192165fb32c2e1fb7aee6,67d16971c23d6a12c409eb49,2025-03-12_16h16.24.228,Tarea de decisión léxica,2024.2.5,Win32,59.52380952,,,,,,,,,,,,,,,,,,,,,,493.7133,494.4727,l,1,0.0826,,0.0826,1,494.4759,494.9724,,,,,,240,MAS,NOWORD,DIS,150,poño,,la,,494.9727,494.9733,0.048148176,-0.402777778,0,0,0,,0,180,180,239,1,mozo,,,
,,,,,,671d5ea81949155edb553545,676192165fb32c2e1fb7aee6,67d16971c23d6a12c409eb49,2025-03-12_16h16.24.228,Tarea de decisión léxica,2024.2.5,Win32,59.52380952,,,,,,,,,,,,,,,,,,,,,,494.9767,495.7054,l,0,0.051,,0.051,0,495.7089,496.2054,,,,,,433,MAS,WORD,AGR,150,disco,,el,,496.2055,496.2061,0.048148176,-0.402777778,0,0,0,,0,181,181,432,1,durco,,,
,,,,,,671d5ea81949155edb553545,676192165fb32c2e1fb7aee6,67d16971c23d6a12c409eb49,2025-03-12_16h16.24.228,Tarea de decisión léxica,2024.2.5,Win32,59.52380952,,,,,,,,,,,,,,,,,,,,,,496.2106,497.1052,a,0,0.218,,0.218,0,497.1054,497.6053,,,,,,224,FEM,NOWORD,DIS,150,cira,,el,,497.6054,497.6056,0.048148176,-0.402777778,0,0,0,,0,182,182,223,1,cera,,,
,,,,,,671d5ea81949155edb553545,676192165fb32c2e1fb7aee6,67d16971c23d6a12c409eb49,2025-03-12_16h16.24.228,Tarea de decisión léxica,2024.2.5,Win32,59.52380952,,,,,,,,,,,,,,,,,,,,,,497.6101,498.3884,a,1,0.1003,,0.1003,1,498.3919,498.8885,,,,,,183,FEM,WORD,DIS,150,raya,,el,,498.8885,498.8887,0.048148176,-0.402777778,0,0,0,,0,183,183,182,1,raad,,,
,,,,,,671d5ea81949155edb553545,676192165fb32c2e1fb7aee6,67d16971c23d6a12c409eb49,2025-03-12_16h16.24.228,Tarea de decisión léxica,2024.2.5,Win32,59.52380952,,,,,,,,,,,,,,,,,,,,,,498.8927,499.6726,a,0,0.1028,,0.1028,0,499.6756,500.1716,,,,,,392,MAS,NOWORD,DIS,150,dievo,,la,,500.1757,500.1776,0.048148176,-0.402777778,0,0,0,,0,184,184,391,1,dueño,,,
,,,,,,671d5ea81949155edb553545,676192165fb32c2e1fb7aee6,67d16971c23d6a12c409eb49,2025-03-12_16h16.24.228,Tarea de decisión léxica,2024.2.5,Win32,59.52380952,,,,,,,,,,,,,,,,,,,,,,500.1789,501.0049,a,1,0.1532,,0.1532,1,501.0083,501.5051,,,,,,51,FEM,WORD,DIS,150,caja,,el,,501.5052,501.5056,0.048148176,-0.402777778,0,0,0,,0,185,185,50,1,mava,,,
,,,,,,671d5ea81949155edb553545,676192165fb32c2e1fb7aee6,67d16971c23d6a12c409eb49,2025-03-12_16h16.24.228,Tarea de decisión léxica,2024.2.5,Win32,59.52380952,,,,,,,,,,,,,,,,,,,,,,501.509,502.3048,a,0,0.1201,,0.1201,0,502.3081,502.8049,,,,,,92,FEM,NOWORD,DIS,150,sava,,el,,502.8049,502.805,0.048148176,-0.402777778,0,0,0,,0,186,186,91,1,taza,,,
,,,,,,671d5ea81949155edb553545,676192165fb32c2e1fb7aee6,67d16971c23d6a12c409eb49,2025-03-12_16h16.24.228,Tarea de decisión léxica,2024.2.5,Win32,59.52380952,,,,,,,,,,,,,,,,,,,,,,502.8091,503.6211,a,1,0.1342,,0.1342,1,503.6249,504.1238,,,,,,289,FEM,WORD,AGR,150,bomba,,la,,504.1239,504.1245,0.048148176,-0.402777778,0,0,0,,0,187,187,288,1,bumpa,,,
,,,,,,671d5ea81949155edb553545,676192165fb32c2e1fb7aee6,67d16971c23d6a12c409eb49,2025-03-12_16h16.24.228,Tarea de decisión léxica,2024.2.5,Win32,59.52380952,,,,,,,,,,,,,,,,,,,,,,504.1276,504.9585,a,0,0.1572,,0.1572,0,504.9596,505.4552,,,,,,198,MAS,NOWORD,AGR,150,dade,,el,,505.4554,505.4561,0.048148176,-0.402777778,0,0,0,,0,188,188,197,1,bate,,,
,,,,,,671d5ea81949155edb553545,676192165fb32c2e1fb7aee6,67d16971c23d6a12c409eb49,2025-03-12_16h16.24.228,Tarea de decisión léxica,2024.2.5,Win32,59.52380952,,,,,,,,,,,,,,,,,,,,,,505.4594,506.3046,a,1,0.1643,,0.1643,1,506.3086,506.8046,,,,,,95,FEM,WORD,DIS,151,moda,,el,,506.8084,506.8109,0.048148176,-0.402777778,0,0,0,,0,189,189,94,1,neda,,,
,,,,,,671d5ea81949155edb553545,676192165fb32c2e1fb7aee6,67d16971c23d6a12c409eb49,2025-03-12_16h16.24.228,Tarea de decisión léxica,2024.2.5,Win32,59.52380952,,,,,,,,,,,,,,,,,,,,,,506.8125,507.6211,a,1,0.1343,,0.1343,1,507.6213,508.1211,,,,,,301,FEM,WORD,AGR,150,banda,,la,,508.1213,508.1214,0.048148176,-0.402777778,0,0,0,,0,190,190,300,1,ranga,,,
,,,,,,671d5ea81949155edb553545,676192165fb32c2e1fb7aee6,67d16971c23d6a12c409eb49,2025-03-12_16h16.24.228,Tarea de decisión léxica,2024.2.5,Win32,59.52380952,,,,,,,,,,,,,,,,,,,,,,508.1254,508.9043,a,0,0.1024,,0.1024,0,508.9081,509.4046,,,,,,320,MAS,NOWORD,DIS,150,tuero,,la,,509.4048,509.4054,0.048148176,-0.402777778,0,0,0,,0,191,191,319,1,suelo,,,
,,,,,,671d5ea81949155edb553545,676192165fb32c2e1fb7aee6,67d16971c23d6a12c409eb49,2025-03-12_16h16.24.228,Tarea de decisión léxica,2024.2.5,Win32,59.52380952,,,,,,,,,,,,,,,,,,,,,,509.4097,510.2221,a,1,0.1555,,0.1555,1,510.2251,510.7211,,,,,,475,FEM,WORD,DIS,150,manta,,el,,510.7211,510.7212,0.048148176,-0.402777778,0,0,0,,0,192,192,474,1,mucta,,,
,,,,,,671d5ea81949155edb553545,676192165fb32c2e1fb7aee6,67d16971c23d6a12c409eb49,2025-03-12_16h16.24.228,Tarea de decisión léxica,2024.2.5,Win32,59.52380952,,,,,,,,,,,,,,,,,,,,,,510.7252,511.5209,a,0,0.1233,,0.1233,0,511.5247,512.0208,,,,,,212,FEM,NOWORD,DIS,150,joad,,el,,512.0211,512.0223,0.048148176,-0.402777778,0,0,0,,0,193,193,211,1,joya,,,
,,,,,,671d5ea81949155edb553545,676192165fb32c2e1fb7aee6,67d16971c23d6a12c409eb49,2025-03-12_16h16.24.228,Tarea de decisión léxica,2024.2.5,Win32,59.52380952,,,,,,,,,,,,,,,,,,,,,,512.0262,512.8543,a,0,0.1487,,0.1487,0,512.8544,513.3542,,,,,,460,MAS,NOWORD,DIS,150,fraco,,la,,513.3586,513.3605,0.048148176,-0.402777778,0,0,0,,0,194,194,459,1,grado,,,
,,,,,,671d5ea81949155edb553545,676192165fb32c2e1fb7aee6,67d16971c23d6a12c409eb49,2025-03-12_16h16.24.228,Tarea de decisión léxica,2024.2.5,Win32,59.52380952,,,,,,,,,,,,,,,,,,,,,,513.3617,514.3559,l,0,0.3216,,0.3216,0,514.3563,514.8539,,,,,,321,MAS,WORD,AGR,150,banco,,el,,514.854,514.8542,0.048148176,-0.402777778,0,0,0,,0,195,195,320,1,rarco,,,
,,,,,,671d5ea81949155edb553545,676192165fb32c2e1fb7aee6,67d16971c23d6a12c409eb49,2025-03-12_16h16.24.228,Tarea de decisión léxica,2024.2.5,Win32,59.52380952,,,,,,,,,,,,,,,,,,,,,,514.8581,515.5371,l,1,0.0007,,0.0007,1,515.5409,516.0372,,,,,,42,FEM,NOWORD,AGR,150,haje,,la,,516.0374,516.0375,0.048148176,-0.402777778,0,0,0,,0,196,196,41,1,nave,,,
,,,,,,671d5ea81949155edb553545,676192165fb32c2e1fb7aee6,67d16971c23d6a12c409eb49,2025-03-12_16h16.24.228,Tarea de decisión léxica,2024.2.5,Win32,59.52380952,,,,,,,,,,,,,,,,,,,,,,516.0428,516.8538,a,0,0.1345,,0.1345,0,516.8575,517.3538,,,,,,328,MAS,NOWORD,DIS,150,lendo,,la,,517.354,517.3541,0.048148176,-0.402777778,0,0,0,,0,197,197,327,1,fondo,,,
,,,,,,671d5ea81949155edb553545,676192165fb32c2e1fb7aee6,67d16971c23d6a12c409eb49,2025-03-12_16h16.24.228,Tarea de decisión léxica,2024.2.5,Win32,59.52380952,,,,,,,,,,,,,,,,,,,,,,517.3582,518.372,l,1,0.3398,,0.3398,1,518.3755,518.8706,,,,,,60,FEM,NOWORD,DIS,150,tafa,,el,,518.8706,518.8708,0.048148176,-0.402777778,0,0,0,,0,198,198,59,1,sala,,,
,,,,,,671d5ea81949155edb553545,676192165fb32c2e1fb7aee6,67d16971c23d6a12c409eb49,2025-03-12_16h16.24.228,Tarea de decisión léxica,2024.2.5,Win32,59.52380952,,,,,,,,,,,,,,,,,,,,,,518.8743,520.087,l,0,0.5353,,0.5353,0,520.0909,520.5869,,,,,,47,MAS,WORD,DIS,150,club,,la,,520.591,520.593,0.048148176,-0.402777778,0,0,0,,0,199,199,46,1,chub,,,
,,,,,,671d5ea81949155edb553545,676192165fb32c2e1fb7aee6,67d16971c23d6a12c409eb49,2025-03-12_16h16.24.228,Tarea de decisión léxica,2024.2.5,Win32,59.52380952,,,,,,,,,,,,,,,,,,,,,,520.5942,521.9035,a,0,0.6357,,0.6357,0,521.9036,522.4035,,,,,,178,MAS,NOWORD,AGR,150,bito,,el,,522.4036,522.4039,0.048148176,-0.402777778,0,0,0,,0,200,200,177,1,reto,,,
,,,,,,671d5ea81949155edb553545,676192165fb32c2e1fb7aee6,67d16971c23d6a12c409eb49,2025-03-12_16h16.24.228,Tarea de decisión léxica,2024.2.5,Win32,59.52380952,,,,,,,,,,,,,,,,,,,,,,522.4075,523.6035,l,1,0.5197,,0.5197,1,523.6072,524.1027,,,,,,56,MAS,NOWORD,DIS,150,jado,,la,,524.1029,524.1032,0.048148176,-0.402777778,0,0,0,,0,201,201,55,1,gato,,,
,,,,,,671d5ea81949155edb553545,676192165fb32c2e1fb7aee6,67d16971c23d6a12c409eb49,2025-03-12_16h16.24.228,Tarea de decisión léxica,2024.2.5,Win32,59.52380952,,,,,,,,,,,,,,,,,,,,,,524.1072,525.0909,l,0,0.3083,,0.3083,0,525.0934,525.5868,,,,,,345,FEM,WORD,AGR,150,arena,,la,,525.5868,525.5877,0.048148176,-0.402777778,0,0,0,,0,202,202,344,1,anera,,,
,,,,,,671d5ea81949155edb553545,676192165fb32c2e1fb7aee6,67d16971c23d6a12c409eb49,2025-03-12_16h16.24.228,Tarea de decisión léxica,2024.2.5,Win32,59.52380952,,,,,,,,,,,,,,,,,,,,,,525.5919,526.7211,a,1,0.4564,,0.4564,1,526.7245,527.2198,,,,,,129,MAS,WORD,AGR,150,oído,,el,,527.2238,527.2257,0.048148176,-0.402777778,0,0,0,,0,203,203,128,1,pima,,,
,,,,,,671d5ea81949155edb553545,676192165fb32c2e1fb7aee6,67d16971c23d6a12c409eb49,2025-03-12_16h16.24.228,Tarea de decisión léxica,2024.2.5,Win32,59.52380952,,,,,,,,,,,,,,,,,,,,,,527.227,528.2864,a,0,0.384,,0.384,0,528.2902,528.7865,,,,,,86,MAS,NOWORD,AGR,150,babo,,el,,528.7866,528.7872,0.048148176,-0.402777778,0,0,0,,0,204,204,85,1,lago,,,
,,,,,,671d5ea81949155edb553545,676192165fb32c2e1fb7aee6,67d16971c23d6a12c409eb49,2025-03-12_16h16.24.228,Tarea de decisión léxica,2024.2.5,Win32,59.52380952,,,,,,,,,,,,,,,,,,,,,,528.791,529.7403,l,1,0.276,,0.276,1,529.7419,530.2374,,,,,,18,FEM,NOWORD,AGR,150,paba,,la,,530.2376,530.2385,0.048148176,-0.402777778,0,0,0,,0,205,205,17,1,mamá,,,
,,,,,,671d5ea81949155edb553545,676192165fb32c2e1fb7aee6,67d16971c23d6a12c409eb49,2025-03-12_16h16.24.228,Tarea de decisión léxica,2024.2.5,Win32,59.52380952,,,,,,,,,,,,,,,,,,,,,,530.2428,531.257,l,1,0.3358,,0.3358,1,531.2573,531.7527,,,,,,402,MAS,NOWORD,AGR,150,pirvo,,el,,531.7529,531.753,0.048148176,-0.402777778,0,0,0,,0,206,206,401,1,polvo,,,
,,,,,,671d5ea81949155edb553545,676192165fb32c2e1fb7aee6,67d16971c23d6a12c409eb49,2025-03-12_16h16.24.228,Tarea de decisión léxica,2024.2.5,Win32,59.52380952,,,,,,,,,,,,,,,,,,,,,,531.757,532.7196,l,0,0.2838,,0.2838,0,532.7231,533.2196,,,,,,233,FEM,WORD,AGR,150,lana,,la,,533.2196,533.22,0.048148176,-0.402777778,0,0,0,,0,207,207,232,1,fasa,,,
,,,,,,671d5ea81949155edb553545,676192165fb32c2e1fb7aee6,67d16971c23d6a12c409eb49,2025-03-12_16h16.24.228,Tarea de decisión léxica,2024.2.5,Win32,59.52380952,,,,,,,,,,,,,,,,,,,,,,533.2255,534.1858,l,1,0.2872,,0.2872,1,534.1893,534.6862,,,,,,326,FEM,NOWORD,AGR,150,mabia,,la,,534.6914,534.693,0.048148176,-0.402777778,0,0,0,,0,208,208,325,1,magia,,,
,,,,,,671d5ea81949155edb553545,676192165fb32c2e1fb7aee6,67d16971c23d6a12c409eb49,2025-03-12_16h16.24.228,Tarea de decisión léxica,2024.2.5,Win32,59.52380952,,,,,,,,,,,,,,,,,,,,,,534.6944,535.7028,l,1,0.3392,,0.3392,1,535.7031,536.2028,,,,,,64,FEM,NOWORD,DIS,150,funa,,el,,536.2029,536.2033,0.048148176,-0.402777778,0,0,0,,0,209,209,63,1,luna,,,
,,,,,,671d5ea81949155edb553545,676192165fb32c2e1fb7aee6,67d16971c23d6a12c409eb49,2025-03-12_16h16.24.228,Tarea de decisión léxica,2024.2.5,Win32,59.52380952,,,,,,,,,,,,,,,,,,,,,,536.2081,537.1728,l,0,0.293,,0.293,0,537.1746,537.6693,,,,,,135,MAS,WORD,DIS,150,tubo,,la,,537.6694,537.6697,0.048148176,-0.402777778,0,0,0,,0,210,210,134,1,geso,,,
,,,,,,671d5ea81949155edb553545,676192165fb32c2e1fb7aee6,67d16971c23d6a12c409eb49,2025-03-12_16h16.24.228,Tarea de decisión léxica,2024.2.5,Win32,59.52380952,,,,,,,,,,,,,,,,,,,,,,537.6748,538.6189,l,1,0.2675,,0.2675,1,538.623,539.1187,,,,,,20,MAS,NOWORD,DIS,150,himo,,la,,539.1188,539.1189,0.048148176,-0.402777778,0,0,0,,0,211,211,19,1,niño,,,
,,,,,,671d5ea81949155edb553545,676192165fb32c2e1fb7aee6,67d16971c23d6a12c409eb49,2025-03-12_16h16.24.228,Tarea de decisión léxica,2024.2.5,Win32,59.52380952,,,,,,,,,,,,,,,,,,,,,,539.1241,540.1396,l,0,0.3437,,0.3437,0,540.1417,540.6355,,,,,,245,FEM,WORD,AGR,150,madre,,la,,540.6355,540.6357,0.048148176,-0.402777778,0,0,0,,0,212,212,244,1,pafle,,,
,,,,,,671d5ea81949155edb553545,676192165fb32c2e1fb7aee6,67d16971c23d6a12c409eb49,2025-03-12_16h16.24.228,Tarea de decisión léxica,2024.2.5,Win32,59.52380952,,,,,,,,,,,,,,,,,,,,,,540.6397,541.5687,a,0,0.2515,,0.2515,0,541.5688,542.0695,,,,,,372,FEM,NOWORD,DIS,150,mosta,,el,,542.0732,542.0745,0.048148176,-0.402777778,0,0,0,,0,213,213,371,1,pasta,,,
,,,,,,671d5ea81949155edb553545,676192165fb32c2e1fb7aee6,67d16971c23d6a12c409eb49,2025-03-12_16h16.24.228,Tarea de decisión léxica,2024.2.5,Win32,59.52380952,,,,,,,,,,,,,,,,,,,,,,542.0759,542.9685,l,1,0.2165,,0.2165,1,542.9716,543.4686,,,,,,174,FEM,NOWORD,AGR,150,boma,,la,,543.4687,543.4689,0.048148176,-0.402777778,0,0,0,,0,214,214,173,1,rosa,,,
,,,,,,671d5ea81949155edb553545,676192165fb32c2e1fb7aee6,67d16971c23d6a12c409eb49,2025-03-12_16h16.24.228,Tarea de decisión léxica,2024.2.5,Win32,59.52380952,,,,,,,,,,,,,,,,,,,,,,543.4731,544.3184,a,1,0.1704,,0.1704,1,544.3185,544.82,,,,,,165,FEM,WORD,AGR,150,vela,,la,,544.8202,544.8211,0.048148176,-0.402777778,0,0,0,,0,215,215,164,1,dera,,,
,,,,,,671d5ea81949155edb553545,676192165fb32c2e1fb7aee6,67d16971c23d6a12c409eb49,2025-03-12_16h16.24.228,Tarea de decisión léxica,2024.2.5,Win32,59.52380952,,,,,,,,,,,,,,,,,,,,,,544.8248,545.7521,a,1,0.2527,,0.2527,1,545.7523,546.2519,,,,,,263,FEM,WORD,DIS,150,vista,,el,,546.252,546.2521,0.048148176,-0.402777778,0,0,0,,0,216,216,262,1,dosta,,,
,,,,,,671d5ea81949155edb553545,676192165fb32c2e1fb7aee6,67d16971c23d6a12c409eb49,2025-03-12_16h16.24.228,Tarea de decisión léxica,2024.2.5,Win32,59.52380952,,,,,,,,,,,,,,,,,,,,,,546.2562,547.1018,a,1,0.1674,,0.1674,1,547.102,547.6016,,,,,,279,FEM,WORD,DIS,150,prisa,,el,,547.602,547.6036,0.048148176,-0.402777778,0,0,0,,0,217,217,278,1,grina,,,
,,,,,,671d5ea81949155edb553545,676192165fb32c2e1fb7aee6,67d16971c23d6a12c409eb49,2025-03-12_16h16.24.228,Tarea de decisión léxica,2024.2.5,Win32,59.52380952,,,,,,,,,,,,,,,,,,,,,,547.6076,548.4194,l,1,0.1389,,0.1389,1,548.4197,548.9182,,,,,,306,MAS,NOWORD,AGR,150,adiol,,el,,548.9223,548.9241,0.048148176,-0.402777778,0,0,0,,0,218,218,305,1,avión,,,
,,,,,,671d5ea81949155edb553545,676192165fb32c2e1fb7aee6,67d16971c23d6a12c409eb49,2025-03-12_16h16.24.228,Tarea de decisión léxica,2024.2.5,Win32,59.52380952,,,,,,,,,,,,,,,,,,,,,,548.9253,549.7683,a,1,0.1704,,0.1704,1,549.7683,550.2682,,,,,,45,FEM,WORD,AGR,150,mesa,,la,,550.2684,550.2685,0.048148176,-0.402777778,0,0,0,,0,219,219,44,1,pema,,,
,,,,,,671d5ea81949155edb553545,676192165fb32c2e1fb7aee6,67d16971c23d6a12c409eb49,2025-03-12_16h16.24.228,Tarea de decisión léxica,2024.2.5,Win32,59.52380952,,,,,,,,,,,,,,,,,,,,,,550.2731,551.1347,l,0,0.1867,,0.1867,0,551.138,551.6348,,,,,,55,MAS,WORD,DIS,150,gato,,la,,551.635,551.6358,0.048148176,-0.402777778,0,0,0,,0,220,220,54,1,jado,,,
,,,,,,671d5ea81949155edb553545,676192165fb32c2e1fb7aee6,67d16971c23d6a12c409eb49,2025-03-12_16h16.24.228,Tarea de decisión léxica,2024.2.5,Win32,59.52380952,,,,,,,,,,,,,,,,,,,,,,551.6393,552.4514,a,0,0.1335,,0.1335,0,552.4516,552.9513,,,,,,374,FEM,NOWORD,AGR,150,pogza,,la,,552.9514,552.9515,0.048148176,-0.402777778,0,0,0,,0,221,221,373,1,pizza,,,
,,,,,,671d5ea81949155edb553545,676192165fb32c2e1fb7aee6,67d16971c23d6a12c409eb49,2025-03-12_16h16.24.228,Tarea de decisión léxica,2024.2.5,Win32,59.52380952,,,,,,,,,,,,,,,,,,,,,,552.9557,553.8179,l,1,0.1864,,0.1864,1,553.8216,554.3188,,,,,,166,FEM,NOWORD,AGR,150,dera,,la,,554.319,554.3195,0.048148176,-0.402777778,0,0,0,,0,222,222,165,1,vela,,,
,,,,,,671d5ea81949155edb553545,676192165fb32c2e1fb7aee6,67d16971c23d6a12c409eb49,2025-03-12_16h16.24.228,Tarea de decisión léxica,2024.2.5,Win32,59.52380952,,,,,,,,,,,,,,,,,,,,,,554.3234,555.1349,a,0,0.1372,,0.1372,0,555.1382,555.6342,,,,,,454,FEM,NOWORD,AGR,150,pafia,,la,,555.6384,555.6403,0.048148176,-0.402777778,0,0,0,,0,223,223,453,1,mafia,,,
,,,,,,671d5ea81949155edb553545,676192165fb32c2e1fb7aee6,67d16971c23d6a12c409eb49,2025-03-12_16h16.24.228,Tarea de decisión léxica,2024.2.5,Win32,59.52380952,,,,,,,,,,,,,,,,,,,,,,555.6414,556.5513,l,0,0.2394,,0.2394,0,556.5515,557.0528,,,,,,319,MAS,WORD,DIS,150,suelo,,la,,557.053,557.0535,0.048148176,-0.402777778,0,0,0,,0,224,224,318,1,tuero,,,
,,,,,,671d5ea81949155edb553545,676192165fb32c2e1fb7aee6,67d16971c23d6a12c409eb49,2025-03-12_16h16.24.228,Tarea de decisión léxica,2024.2.5,Win32,59.52380952,,,,,,,,,,,,,,,,,,,,,,557.0575,558.1382,a,0,0.4103,,0.4103,0,558.1382,558.6347,,,,,,340,MAS,NOWORD,DIS,150,plajo,,la,,558.6348,558.6355,0.048148176,-0.402777778,0,0,0,,0,225,225,339,1,brazo,,,
,,,,,,671d5ea81949155edb553545,676192165fb32c2e1fb7aee6,67d16971c23d6a12c409eb49,2025-03-12_16h16.24.228,Tarea de decisión léxica,2024.2.5,Win32,59.52380952,,,,,,,,,,,,,,,,,,,,,,558.6394,559.551,l,1,0.2342,,0.2342,1,559.5547,560.0514,,,,,,478,MAS,NOWORD,AGR,150,hocon,,el,,560.0517,560.0521,0.048148176,-0.402777778,0,0,0,,0,226,226,477,1,botón,,,
,,,,,,671d5ea81949155edb553545,676192165fb32c2e1fb7aee6,67d16971c23d6a12c409eb49,2025-03-12_16h16.24.228,Tarea de decisión léxica,2024.2.5,Win32,59.52380952,,,,,,,,,,,,,,,,,,,,,,560.0555,562.7009,,0,,,0.2342,-1,562.7102,563.2012,,,,,,164,FEM,NOWORD,DIS,150,laga,,el,,563.2061,563.2085,0.048148176,-0.402777778,0,0,0,,0,227,227,163,1,fama,,,
,,,,,,671d5ea81949155edb553545,676192165fb32c2e1fb7aee6,67d16971c23d6a12c409eb49,2025-03-12_16h16.24.228,Tarea de decisión léxica,2024.2.5,Win32,59.52380952,,,,,,,,,,,,,,,,,,,,,,563.2099,565.3004,l,1,1.4179,,1.4179,1,565.3037,565.8006,,,,,,336,FEM,NOWORD,DIS,150,pesta,,el,,565.8007,565.801,0.048148176,-0.402777778,0,0,0,,0,228,228,335,1,costa,,,
,,,,,,671d5ea81949155edb553545,676192165fb32c2e1fb7aee6,67d16971c23d6a12c409eb49,2025-03-12_16h16.24.228,Tarea de decisión léxica,2024.2.5,Win32,59.52380952,,,,,,,,,,,,,,,,,,,,,,565.8057,568.4504,,0,,,1.4179,-1,568.4541,568.9503,,,,,,292,FEM,NOWORD,DIS,150,mesta,,el,,568.9503,568.9505,0.048148176,-0.402777778,0,0,0,,0,229,229,291,1,pista,,,
,,,,,,671d5ea81949155edb553545,676192165fb32c2e1fb7aee6,67d16971c23d6a12c409eb49,2025-03-12_16h16.24.228,Tarea de decisión léxica,2024.2.5,Win32,59.52380952,,,,,,,,,,,,,,,,,,,,,,568.9545,570.7681,a,0,1.1401,,1.1401,0,570.7711,571.267,,,,,,348,FEM,NOWORD,DIS,150,mueza,,el,,571.267,571.2677,0.048148176,-0.402777778,0,0,0,,0,230,230,347,1,pieza,,,
,,,,,,671d5ea81949155edb553545,676192165fb32c2e1fb7aee6,67d16971c23d6a12c409eb49,2025-03-12_16h16.24.228,Tarea de decisión léxica,2024.2.5,Win32,59.52380952,,,,,,,,,,,,,,,,,,,,,,571.2714,573.9165,,0,,,1.1401,-1,573.9203,574.4164,,,,,,48,MAS,NOWORD,DIS,150,chub,,la,,574.4165,574.4167,0.048148176,-0.402777778,0,0,0,,0,231,231,47,1,club,,,
,,,,,,671d5ea81949155edb553545,676192165fb32c2e1fb7aee6,67d16971c23d6a12c409eb49,2025-03-12_16h16.24.228,Tarea de decisión léxica,2024.2.5,Win32,59.52380952,,,,,,,,,,,,,,,,,,,,,,574.4213,575.9164,l,0,0.8172,,0.8172,0,575.9201,576.4163,,,,,,281,MAS,WORD,AGR,150,cielo,,el,,576.4205,576.423,0.048148176,-0.402777778,0,0,0,,0,232,232,280,1,cauro,,,
,,,,,,671d5ea81949155edb553545,676192165fb32c2e1fb7aee6,67d16971c23d6a12c409eb49,2025-03-12_16h16.24.228,Tarea de decisión léxica,2024.2.5,Win32,59.52380952,,,,,,,,,,,,,,,,,,,,,,576.4245,577.6663,a,1,0.5671,,0.5671,1,577.6695,578.1663,,,,,,247,FEM,WORD,DIS,150,chica,,el,,578.1664,578.1665,0.048148176,-0.402777778,0,0,0,,0,233,233,246,1,trida,,,
,,,,,,671d5ea81949155edb553545,676192165fb32c2e1fb7aee6,67d16971c23d6a12c409eb49,2025-03-12_16h16.24.228,Tarea de decisión léxica,2024.2.5,Win32,59.52380952,,,,,,,,,,,,,,,,,,,,,,578.1704,579.3162,a,1,0.4702,,0.4702,1,579.3164,579.816,,,,,,77,MAS,WORD,AGR,150,loco,,el,,579.8162,579.8165,0.048148176,-0.402777778,0,0,0,,0,234,234,76,1,fodo,,,
,,,,,,671d5ea81949155edb553545,676192165fb32c2e1fb7aee6,67d16971c23d6a12c409eb49,2025-03-12_16h16.24.228,Tarea de decisión léxica,2024.2.5,Win32,59.52380952,,,,,,,,,,,,,,,,,,,,,,579.8212,581.016,a,0,0.5171,,0.5171,0,581.0189,581.5161,,,,,,24,FEM,NOWORD,DIS,150,giva,,el,,581.5162,581.5163,0.048148176,-0.402777778,0,0,0,,0,235,235,23,1,hija,,,
,,,,,,671d5ea81949155edb553545,676192165fb32c2e1fb7aee6,67d16971c23d6a12c409eb49,2025-03-12_16h16.24.228,Tarea de decisión léxica,2024.2.5,Win32,59.52380952,,,,,,,,,,,,,,,,,,,,,,581.5203,582.7198,a,1,0.5251,,0.5251,1,582.722,583.216,,,,,,415,FEM,WORD,DIS,150,jaula,,el,,583.2161,583.2162,0.048148176,-0.402777778,0,0,0,,0,236,236,414,1,juira,,,
,,,,,,671d5ea81949155edb553545,676192165fb32c2e1fb7aee6,67d16971c23d6a12c409eb49,2025-03-12_16h16.24.228,Tarea de decisión léxica,2024.2.5,Win32,59.52380952,,,,,,,,,,,,,,,,,,,,,,583.2204,584.2325,a,0,0.3341,,0.3341,0,584.2361,584.7326,,,,,,400,MAS,NOWORD,DIS,150,serro,,la,,584.7366,584.7386,0.048148176,-0.402777778,0,0,0,,0,237,237,399,1,techo,,,
,,,,,,671d5ea81949155edb553545,676192165fb32c2e1fb7aee6,67d16971c23d6a12c409eb49,2025-03-12_16h16.24.228,Tarea de decisión léxica,2024.2.5,Win32,59.52380952,,,,,,,,,,,,,,,,,,,,,,584.7398,585.7157,l,0,0.3007,,0.3007,0,585.7158,586.2156,,,,,,349,MAS,WORD,AGR,150,color,,el,,586.2156,586.2159,0.048148176,-0.402777778,0,0,0,,0,238,238,348,1,cosir,,,
,,,,,,671d5ea81949155edb553545,676192165fb32c2e1fb7aee6,67d16971c23d6a12c409eb49,2025-03-12_16h16.24.228,Tarea de decisión léxica,2024.2.5,Win32,59.52380952,,,,,,,,,,,,,,,,,,,,,,586.2201,587.0694,a,0,0.1761,,0.1761,0,587.0695,587.5655,,,,,,26,FEM,NOWORD,AGR,150,paza,,la,,587.5656,587.5657,0.048148176,-0.402777778,0,0,0,,0,239,239,25,1,cama,,,
,,,,,,671d5ea81949155edb553545,676192165fb32c2e1fb7aee6,67d16971c23d6a12c409eb49,2025-03-12_16h16.24.228,Tarea de decisión léxica,2024.2.5,Win32,59.52380952,,,,,,,,,,,,,,,,,,,,,,587.5697,588.3989,l,0,0.1513,,0.1513,0,588.3991,588.8988,,,,,,127,MAS,WORD,DIS,150,pico,,la,,588.899,588.8999,0.048148176,-0.402777778,0,0,0,,0,240,240,126,1,itio,,,
,,,,,,671d5ea81949155edb553545,676192165fb32c2e1fb7aee6,67d16971c23d6a12c409eb49,2025-03-12_16h16.24.228,Tarea de decisión léxica,2024.2.5,Win32,59.52380952,,,,,,,,,,,,,,,,,,,,,,588.9033,589.6821,a,1,0.1034,,0.1034,1,589.686,590.182,,,,,,93,FEM,WORD,AGR,150,bola,,la,,590.182,590.1824,0.048148176,-0.402777778,0,0,0,,0,241,241,92,1,rona,,,
,,,,,,671d5ea81949155edb553545,676192165fb32c2e1fb7aee6,67d16971c23d6a12c409eb49,2025-03-12_16h16.24.228,Tarea de decisión léxica,2024.2.5,Win32,59.52380952,,,,,,,,,,,,,,,,,,,,,,590.187,591.0836,l,1,0.2172,,0.2172,1,591.0839,591.5819,,,,,,168,FEM,NOWORD,DIS,150,zifa,,el,,591.5861,591.588,0.048148176,-0.402777778,0,0,0,,0,242,242,167,1,jefa,,,
,,,,,,671d5ea81949155edb553545,676192165fb32c2e1fb7aee6,67d16971c23d6a12c409eb49,2025-03-12_16h16.24.228,Tarea de decisión léxica,2024.2.5,Win32,59.52380952,,,,,,,,,,,,,,,,,,,,,,591.5893,592.5318,l,1,0.2705,,0.2705,1,592.5333,593.0318,,,,,,446,MAS,NOWORD,AGR,150,ascor,,el,,593.0318,593.0321,0.048148176,-0.402777778,0,0,0,,0,243,243,445,1,actor,,,
,,,,,,671d5ea81949155edb553545,676192165fb32c2e1fb7aee6,67d16971c23d6a12c409eb49,2025-03-12_16h16.24.228,Tarea de decisión léxica,2024.2.5,Win32,59.52380952,,,,,,,,,,,,,,,,,,,,,,593.036,593.8985,l,1,0.1838,,0.1838,1,593.8988,594.3984,,,,,,294,MAS,NOWORD,AGR,150,cacso,,el,,594.3987,594.3996,0.048148176,-0.402777778,0,0,0,,0,244,244,293,1,campo,,,
,,,,,,671d5ea81949155edb553545,676192165fb32c2e1fb7aee6,67d16971c23d6a12c409eb49,2025-03-12_16h16.24.228,Tarea de decisión léxica,2024.2.5,Win32,59.52380952,,,,,,,,,,,,,,,,,,,,,,594.4025,595.3483,a,0,0.2685,,0.2685,0,595.3522,595.8485,,,,,,398,FEM,NOWORD,AGR,150,trigi,,la,,595.8486,595.8492,0.048148176,-0.402777778,0,0,0,,0,245,245,397,1,tribu,,,
,,,,,,671d5ea81949155edb553545,676192165fb32c2e1fb7aee6,67d16971c23d6a12c409eb49,2025-03-12_16h16.24.228,Tarea de decisión léxica,2024.2.5,Win32,59.52380952,,,,,,,,,,,,,,,,,,,,,,595.8531,596.8482,l,1,0.3176,,0.3176,1,596.8522,597.3483,,,,,,376,FEM,NOWORD,DIS,150,sasna,,el,,597.3484,597.3485,0.048148176,-0.402777778,0,0,0,,0,246,246,375,1,salsa,,,
,,,,,,671d5ea81949155edb553545,676192165fb32c2e1fb7aee6,67d16971c23d6a12c409eb49,2025-03-12_16h16.24.228,Tarea de decisión léxica,2024.2.5,Win32,59.52380952,,,,,,,,,,,,,,,,,,,,,,597.3524,598.3147,l,1,0.2883,,0.2883,1,598.3148,598.815,,,,,,100,MAS,NOWORD,DIS,150,soro,,la,,598.8192,598.8214,0.048148176,-0.402777778,0,0,0,,0,247,247,99,1,lobo,,,
,,,,,,671d5ea81949155edb553545,676192165fb32c2e1fb7aee6,67d16971c23d6a12c409eb49,2025-03-12_16h16.24.228,Tarea de decisión léxica,2024.2.5,Win32,59.52380952,,,,,,,,,,,,,,,,,,,,,,598.8228,599.7352,l,0,0.242,,0.242,0,599.7371,600.2314,,,,,,101,MAS,WORD,AGR,150,tono,,el,,600.2316,600.2327,0.048148176,-0.402777778,0,0,0,,0,248,248,100,1,gito,,,
,,,,,,671d5ea81949155edb553545,676192165fb32c2e1fb7aee6,67d16971c23d6a12c409eb49,2025-03-12_16h16.24.228,Tarea de decisión léxica,2024.2.5,Win32,59.52380952,,,,,,,,,,,,,,,,,,,,,,600.2359,601.2164,l,0,0.3024,,0.3024,0,601.2168,601.7144,,,,,,283,MAS,WORD,DIS,150,sueño,,la,,601.7145,601.7148,0.048148176,-0.402777778,0,0,0,,0,249,249,282,1,tuevo,,,
,,,,,,671d5ea81949155edb553545,676192165fb32c2e1fb7aee6,67d16971c23d6a12c409eb49,2025-03-12_16h16.24.228,Tarea de decisión léxica,2024.2.5,Win32,59.52380952,,,,,,,,,,,,,,,,,,,,,,601.7215,602.4745,a,0,0.0829,,0.0829,0,602.4747,602.9643,,,,,,16,FEM,NOWORD,DIS,150,odea,,el,,602.9644,602.9646,0.048148176,-0.402777778,0,0,0,,0,250,250,15,1,idea,,,
,,,,,,671d5ea81949155edb553545,676192165fb32c2e1fb7aee6,67d16971c23d6a12c409eb49,2025-03-12_16h16.24.228,Tarea de decisión léxica,2024.2.5,Win32,59.52380952,,,,,,,,,,,,,,,,,,,,,,602.9688,603.7641,l,1,0.1187,,0.1187,1,603.7673,604.2652,,,,,,82,FEM,NOWORD,AGR,150,vasa,,la,,604.2697,604.2716,0.048148176,-0.402777778,0,0,0,,0,251,251,81,1,dama,,,
,,,,,,671d5ea81949155edb553545,676192165fb32c2e1fb7aee6,67d16971c23d6a12c409eb49,2025-03-12_16h16.24.228,Tarea de decisión léxica,2024.2.5,Win32,59.52380952,,,,,,,,,,,,,,,,,,,,,,604.2728,605.1656,l,0,0.2219,,0.2219,0,605.1683,605.6651,,,,,,287,FEM,WORD,DIS,150,lista,,el,,605.6653,605.6658,0.048148176,-0.402777778,0,0,0,,0,252,252,286,1,fosta,,,
,,,,,,671d5ea81949155edb553545,676192165fb32c2e1fb7aee6,67d16971c23d6a12c409eb49,2025-03-12_16h16.24.228,Tarea de decisión léxica,2024.2.5,Win32,59.52380952,,,,,,,,,,,,,,,,,,,,,,605.6695,607.6309,l,1,1.2872,,1.2872,1,607.6347,608.131,,,,,,470,MAS,NOWORD,AGR,150,matia,,el,,608.131,608.1312,0.048148176,-0.402777778,0,0,0,,0,253,253,469,1,patio,,,
,,,,,,671d5ea81949155edb553545,676192165fb32c2e1fb7aee6,67d16971c23d6a12c409eb49,2025-03-12_16h16.24.228,Tarea de decisión léxica,2024.2.5,Win32,59.52380952,,,,,,,,,,,,,,,,,,,,,,608.1349,609.0818,l,0,0.2674,,0.2674,0,609.0848,609.5806,,,,,,315,FEM,WORD,DIS,150,reina,,el,,609.5807,609.5809,0.048148176,-0.402777778,0,0,0,,0,254,254,314,1,riosa,,,
,,,,,,671d5ea81949155edb553545,676192165fb32c2e1fb7aee6,67d16971c23d6a12c409eb49,2025-03-12_16h16.24.228,Tarea de decisión léxica,2024.2.5,Win32,59.52380952,,,,,,,,,,,,,,,,,,,,,,609.5849,610.8314,l,0,0.5686,,0.5686,0,610.8317,611.3305,,,,,,381,MAS,WORD,AGR,150,humor,,el,,611.3305,611.3309,0.048148176,-0.402777778,0,0,0,,0,255,255,380,1,nusor,,,
,,,,,,671d5ea81949155edb553545,676192165fb32c2e1fb7aee6,67d16971c23d6a12c409eb49,2025-03-12_16h16.24.228,Tarea de decisión léxica,2024.2.5,Win32,59.52380952,,,,,,,,,,,,,,,,,,,,,,611.3346,613.2303,a,1,1.2185,,1.2185,1,613.2335,613.7302,,,,,,327,MAS,WORD,DIS,150,fondo,,la,,613.7346,613.7373,0.048148176,-0.402777778,0,0,0,,0,256,256,326,1,lendo,,,
,,,,,,671d5ea81949155edb553545,676192165fb32c2e1fb7aee6,67d16971c23d6a12c409eb49,2025-03-12_16h16.24.228,Tarea de decisión léxica,2024.2.5,Win32,59.52380952,,,,,,,,,,,,,,,,,,,,,,613.7388,614.8469,a,1,0.4342,,0.4342,1,614.8471,615.347,,,,,,59,FEM,WORD,DIS,150,sala,,el,,615.3471,615.3473,0.048148176,-0.402777778,0,0,0,,0,257,257,58,1,tafa,,,
,,,,,,671d5ea81949155edb553545,676192165fb32c2e1fb7aee6,67d16971c23d6a12c409eb49,2025-03-12_16h16.24.228,Tarea de decisión léxica,2024.2.5,Win32,59.52380952,,,,,,,,,,,,,,,,,,,,,,615.3512,616.2137,a,1,0.1845,,0.1845,1,616.2138,616.7135,,,,,,143,MAS,WORD,DIS,150,pavo,,la,,616.7135,616.7137,0.048148176,-0.402777778,0,0,0,,0,258,258,142,1,pezo,,,
,,,,,,671d5ea81949155edb553545,676192165fb32c2e1fb7aee6,67d16971c23d6a12c409eb49,2025-03-12_16h16.24.228,Tarea de decisión léxica,2024.2.5,Win32,59.52380952,,,,,,,,,,,,,,,,,,,,,,616.7178,617.6636,l,0,0.2673,,0.2673,0,617.6672,618.1633,,,,,,267,MAS,WORD,DIS,150,libro,,la,,618.1635,618.1636,0.048148176,-0.402777778,0,0,0,,0,259,259,266,1,figro,,,
,,,,,,671d5ea81949155edb553545,676192165fb32c2e1fb7aee6,67d16971c23d6a12c409eb49,2025-03-12_16h16.24.228,Tarea de decisión léxica,2024.2.5,Win32,59.52380952,,,,,,,,,,,,,,,,,,,,,,618.1679,619.1135,a,0,0.2668,,0.2668,0,619.1136,619.6154,,,,,,52,FEM,NOWORD,DIS,150,mava,,el,,619.6157,619.6165,0.048148176,-0.402777778,0,0,0,,0,260,260,51,1,caja,,,
,,,,,,671d5ea81949155edb553545,676192165fb32c2e1fb7aee6,67d16971c23d6a12c409eb49,2025-03-12_16h16.24.228,Tarea de decisión léxica,2024.2.5,Win32,59.52380952,,,,,,,,,,,,,,,,,,,,,,619.6205,620.6301,l,0,0.3319,,0.3319,0,620.6304,621.13,,,,,,373,FEM,WORD,AGR,150,pizza,,la,,621.1341,621.1361,0.048148176,-0.402777778,0,0,0,,0,261,261,372,1,pogza,,,
,,,,,,671d5ea81949155edb553545,676192165fb32c2e1fb7aee6,67d16971c23d6a12c409eb49,2025-03-12_16h16.24.228,Tarea de decisión léxica,2024.2.5,Win32,59.52380952,,,,,,,,,,,,,,,,,,,,,,621.1373,622.1134,a,1,0.3007,,0.3007,1,622.1172,622.6133,,,,,,431,MAS,WORD,DIS,150,motor,,la,,622.6133,622.6137,0.048148176,-0.402777778,0,0,0,,0,262,262,430,1,tetor,,,
,,,,,,671d5ea81949155edb553545,676192165fb32c2e1fb7aee6,67d16971c23d6a12c409eb49,2025-03-12_16h16.24.228,Tarea de decisión léxica,2024.2.5,Win32,59.52380952,,,,,,,,,,,,,,,,,,,,,,622.6181,623.5966,a,1,0.3009,,0.3009,1,623.5967,624.0975,,,,,,313,MAS,WORD,AGR,150,novio,,el,,624.0977,624.0982,0.048148176,-0.402777778,0,0,0,,0,263,263,312,1,govio,,,
,,,,,,671d5ea81949155edb553545,676192165fb32c2e1fb7aee6,67d16971c23d6a12c409eb49,2025-03-12_16h16.24.228,Tarea de decisión léxica,2024.2.5,Win32,59.52380952,,,,,,,,,,,,,,,,,,,,,,624.1018,624.914,a,0,0.1338,,0.1338,0,624.9169,625.4133,,,,,,50,FEM,NOWORD,AGR,150,ecat,,la,,625.4137,625.4143,0.048148176,-0.402777778,0,0,0,,0,264,264,49,1,edad,,,
,,,,,,671d5ea81949155edb553545,676192165fb32c2e1fb7aee6,67d16971c23d6a12c409eb49,2025-03-12_16h16.24.228,Tarea de decisión léxica,2024.2.5,Win32,59.52380952,,,,,,,,,,,,,,,,,,,,,,625.4184,626.2302,l,0,0.133,,0.133,0,626.2306,626.7295,,,,,,35,MAS,WORD,DIS,150,pelo,,la,,626.7296,626.7298,0.048148176,-0.402777778,0,0,0,,0,265,265,34,1,meno,,,
,,,,,,671d5ea81949155edb553545,676192165fb32c2e1fb7aee6,67d16971c23d6a12c409eb49,2025-03-12_16h16.24.228,Tarea de decisión léxica,2024.2.5,Win32,59.52380952,,,,,,,,,,,,,,,,,,,,,,626.7339,627.8166,a,0,0.4102,,0.4102,0,627.8167,628.3126,,,,,,378,MAS,NOWORD,AGR,150,gaulo,,el,,628.3169,628.319,0.048148176,-0.402777778,0,0,0,,0,266,266,377,1,hielo,,,
