counterbalancing_condition,consent_prescreening.block_1/declare_consent,consent_prescreening.block_1/age_years,consent_prescreening.block_1/gender,consent_prescreening.block_1/language_disorder,consent_prescreening.block_1/first_language,PROLIFIC_PID,STUDY_ID,SESSION_ID,date,expName,psychopyVersion,OS,frameRate,check_prescreening_answers.started,check_prescreening_answers.stopped,Instructions.started,Instructions.stopped,instr_done_keyboard.keys,instr_done_keyboard.rt,instr_done_keyboard.duration,instr_done_touch.x,instr_done_touch.y,instr_done_touch.leftButton,instr_done_touch.midButton,instr_done_touch.rightButton,instruction_pages.thisRepN,instruction_pages.thisTrialN,instruction_pages.thisN,instruction_pages.thisIndex,instruction_pages.ran,pageN,phase,instruct_text,has_image,instruct_image,instr_done_touch.clicked_name,presentTrial.started,presentTrial.stopped,response.keys,response.corr,response.rt,response.duration,rt,corr,feedback.started,feedback.stopped,practice_trials.thisRepN,practice_trials.thisTrialN,practice_trials.thisN,practice_trials.thisIndex,practice_trials.ran,TrialID,Gender,StimulusType,Condition,PrimeDuration,Prime,len,Flanker,corrAns,Break.started,Break.stopped,break_done_touch.x,break_done_touch.y,break_done_touch.leftButton,break_done_touch.midButton,break_done_touch.rightButton,break_done_keyboard.keys,experiment_trials.thisRepN,experiment_trials.thisTrialN,experiment_trials.thisN,experiment_trials.thisIndex,experiment_trials.ran,PairedWith,break_done_keyboard.rt,break_done_keyboard.duration,End.started,End.stopped
3,"[""over_18"",""comfortable"",""read_info"",""consent_given""]",22,F,"[""none""]","[""spanish""]",67bde019e7a17fb07b4582b7,676192165fb32c2e1fb7aee6,67d1ad910484ed80b86a1a6d,2025-03-12_11h52.12.642,Tarea de decisión léxica,2024.2.5,Win32,59.88023952,,,,,,,,,,,,,,,,,,,,,,,,,,,,,,,,,,,,,,,,,,,,,,,,,,,,,,,,,,,,,,,,,
,,,,,,67bde019e7a17fb07b4582b7,676192165fb32c2e1fb7aee6,67d1ad910484ed80b86a1a6d,2025-03-12_11h52.12.642,Tarea de decisión léxica,2024.2.5,Win32,59.88023952,108.4671,108.4673,,,,,,,,,,,,,,,,,,,,,,,,,,,,,,,,,,,,,,,,,,,,,,,,,,,,,,,,,,,,,,,
,,,,,,67bde019e7a17fb07b4582b7,676192165fb32c2e1fb7aee6,67d1ad910484ed80b86a1a6d,2025-03-12_11h52.12.642,Tarea de decisión léxica,2024.2.5,Win32,59.88023952,,,108.4929,130.8645,space,22.3226,,0.433333362,-0.01666666,0,0,0,0,0,0,0,1,1,instructions,"INSTRUCCIONES
Va a realizar una prueba de decisión léxica. Desde el comienzo de la prueba mire siempre al centro de la pantalla. Se presentará una serie de cadenas de letras, una a la vez, en la pantalla. Su tarea consiste en determinar si cada cadena de letras constituye una palabra real en español o una no-palabra (una secuencia de letras que no constituye una palabra real). 

Pulse la tecla ESPACIO para continuar.",0,keyboardresponseNW.png,,,,,,,,,,,,,,,,,,,,,,,,,,,,,,,,,,,,,,,,,,,
,,,,,,67bde019e7a17fb07b4582b7,676192165fb32c2e1fb7aee6,67d1ad910484ed80b86a1a6d,2025-03-12_11h52.12.642,Tarea de decisión léxica,2024.2.5,Win32,59.88023952,,,130.8794,147.9603,space,17.0446,,0.433333362,-0.01666666,0,0,0,0,1,1,1,1,2,instructions,"El procedimiento es el siguiente: Aparecerán dos barras verticales posicionadas en el centro de la pantalla, separadas por un pequeño espacio.Por favor, enfoque su atención en el espacio entre las barras. Esto preparará sus ojos para la siguiente cadena de letras, que aparecerá entre las dos barras durante un instante.

Pulse la tecla ESPACIO para continuar.",0,keyboardresponseNW.png,,,,,,,,,,,,,,,,,,,,,,,,,,,,,,,,,,,,,,,,,,,
,,,,,,67bde019e7a17fb07b4582b7,676192165fb32c2e1fb7aee6,67d1ad910484ed80b86a1a6d,2025-03-12_11h52.12.642,Tarea de decisión léxica,2024.2.5,Win32,59.88023952,,,147.9694,172.4584,space,24.4097,,0.433333362,-0.01666666,0,0,0,0,2,2,2,1,3,instructions,"En el teclado de su dispositivo, pulse la tecla ""L"" si la cadena de letras es una palabra real en español (por ejemplo: ""mano"") y la tecla ""A"" si la cadena de letras es una no-palabra (por ejemplo: ""minu"").
Pulse la tecla ESPACIO para continuar.",1,keyboardresponseNW.png,,,,,,,,,,,,,,,,,,,,,,,,,,,,,,,,,,,,,,,,,,,
,,,,,,67bde019e7a17fb07b4582b7,676192165fb32c2e1fb7aee6,67d1ad910484ed80b86a1a6d,2025-03-12_11h52.12.642,Tarea de decisión léxica,2024.2.5,Win32,59.88023952,,,172.4697,191.174,space,18.6699,,0.433333362,-0.01666666,0,0,0,0,3,3,3,1,4,instructions,"Es muy importante que responda con la mayor rapidez y precisión posibles. Si no responde dentro de 2 segundos, aparecerá el mensaje ""Muy lento"" y el experimento pasará a la siguiente palabra. Inmediatamente después de su respuesta se indicará si fue correcta o no. Los primeros 15 intentos serán de práctica y habrá dos descansos durante la prueba.

Pulse la tecla ESPACIO  para iniciar la parte de práctica.",0,keyboardresponseNW.png,,,,,,,,,,,,,,,,,,,,,,,,,,,,,,,,,,,,,,,,,,,
,,,,,,67bde019e7a17fb07b4582b7,676192165fb32c2e1fb7aee6,67d1ad910484ed80b86a1a6d,2025-03-12_11h52.12.642,Tarea de decisión léxica,2024.2.5,Win32,59.88023952,,,,,,,,,,,,,,,,,,,,,,,,191.2301,193.8391,l,0,1.9426,,1.9426,0,193.8402,194.3389,0,0,0,2,1,1003,FEM,NOWORD,DIS,150,muvor,5,el,a,,,,,,,,,,,,,,,,,,
,,,,,,67bde019e7a17fb07b4582b7,676192165fb32c2e1fb7aee6,67d1ad910484ed80b86a1a6d,2025-03-12_11h52.12.642,Tarea de decisión léxica,2024.2.5,Win32,59.88023952,,,,,,,,,,,,,,,,,,,,,,,,194.3447,195.9884,a,1,0.9686,,0.9686,1,195.9925,196.4888,0,1,1,0,1,1001,FEM,NOWORD,AGR,150,croz,4,la,a,,,,,,,,,,,,,,,,,,
,,,,,,67bde019e7a17fb07b4582b7,676192165fb32c2e1fb7aee6,67d1ad910484ed80b86a1a6d,2025-03-12_11h52.12.642,Tarea de decisión léxica,2024.2.5,Win32,59.88023952,,,,,,,,,,,,,,,,,,,,,,,,196.4945,198.2065,a,1,1.0392,,1.0392,1,198.2071,198.7055,0,2,2,4,1,1005,MAS,NOWORD,DIS,150,nobad,5,la,a,,,,,,,,,,,,,,,,,,
,,,,,,67bde019e7a17fb07b4582b7,676192165fb32c2e1fb7aee6,67d1ad910484ed80b86a1a6d,2025-03-12_11h52.12.642,Tarea de decisión léxica,2024.2.5,Win32,59.88023952,,,,,,,,,,,,,,,,,,,,,,,,198.7109,200.0891,l,1,0.7021,,0.7021,1,200.0896,200.5888,0,3,3,8,1,1009,FEM,WORD,AGR,150,viejo,5,la,l,,,,,,,,,,,,,,,,,,
,,,,,,67bde019e7a17fb07b4582b7,676192165fb32c2e1fb7aee6,67d1ad910484ed80b86a1a6d,2025-03-12_11h52.12.642,Tarea de decisión léxica,2024.2.5,Win32,59.88023952,,,,,,,,,,,,,,,,,,,,,,,,200.5927,202.2399,l,1,0.9755,,0.9755,1,202.2411,202.7388,0,4,4,5,1,1006,FEM,WORD,AGR,150,cara,4,la,l,,,,,,,,,,,,,,,,,,
,,,,,,67bde019e7a17fb07b4582b7,676192165fb32c2e1fb7aee6,67d1ad910484ed80b86a1a6d,2025-03-12_11h52.12.642,Tarea de decisión léxica,2024.2.5,Win32,59.88023952,,,,,,,,,,,,,,,,,,,,,,,,202.7428,203.9394,l,1,0.5252,,0.5252,1,203.9399,204.4383,0,5,5,9,1,1010,MAS,WORD,DIS,150,video,5,la,l,,,,,,,,,,,,,,,,,,
,,,,,,67bde019e7a17fb07b4582b7,676192165fb32c2e1fb7aee6,67d1ad910484ed80b86a1a6d,2025-03-12_11h52.12.642,Tarea de decisión léxica,2024.2.5,Win32,59.88023952,,,,,,,,,,,,,,,,,,,,,,,,204.443,205.922,a,0,0.8019,,0.8019,0,205.9251,206.4204,0,6,6,7,1,1008,MAS,WORD,DIS,150,frío,4,la,l,,,,,,,,,,,,,,,,,,
,,,,,,67bde019e7a17fb07b4582b7,676192165fb32c2e1fb7aee6,67d1ad910484ed80b86a1a6d,2025-03-12_11h52.12.642,Tarea de decisión léxica,2024.2.5,Win32,59.88023952,,,,,,,,,,,,,,,,,,,,,,,,206.424,208.1385,l,1,1.0518,,1.0518,1,208.1415,208.6381,0,7,7,6,1,1007,MAS,WORD,DIS,150,masa,4,la,l,,,,,,,,,,,,,,,,,,
,,,,,,67bde019e7a17fb07b4582b7,676192165fb32c2e1fb7aee6,67d1ad910484ed80b86a1a6d,2025-03-12_11h52.12.642,Tarea de decisión léxica,2024.2.5,Win32,59.88023952,,,,,,,,,,,,,,,,,,,,,,,,208.6419,210.0714,a,1,0.7516,,0.7516,1,210.0718,210.5715,0,8,8,1,1,1002,FEM,NOWORD,DIS,150,mabo,4,el,a,,,,,,,,,,,,,,,,,,
,,,,,,67bde019e7a17fb07b4582b7,676192165fb32c2e1fb7aee6,67d1ad910484ed80b86a1a6d,2025-03-12_11h52.12.642,Tarea de decisión léxica,2024.2.5,Win32,59.88023952,,,,,,,,,,,,,,,,,,,,,,,,210.5751,212.2033,a,1,0.9522,,0.9522,1,212.2034,212.7045,0,9,9,3,1,1004,FEM,NOWORD,AGR,150,bireo,5,la,a,,,,,,,,,,,,,,,,,,
,,,,,,67bde019e7a17fb07b4582b7,676192165fb32c2e1fb7aee6,67d1ad910484ed80b86a1a6d,2025-03-12_11h52.12.642,Tarea de decisión léxica,2024.2.5,Win32,59.88023952,,,219.5629,240.9533,space,21.3561,,0.433333362,-0.01666666,0,0,0,,,,,,,,,,,,241.0286,242.3866,a,1,0.686,,0.686,1,242.3871,242.8863,,,,,,50,FEM,NOWORD,AGR,150,ecat,,la,,242.8884,242.9049,0.433333362,-0.01666666,0,0,0,,0,0,0,49,1,edad,,,,
,,,,,,67bde019e7a17fb07b4582b7,676192165fb32c2e1fb7aee6,67d1ad910484ed80b86a1a6d,2025-03-12_11h52.12.642,Tarea de decisión léxica,2024.2.5,Win32,59.88023952,,,,,,,,,,,,,,,,,,,,,,,,242.9072,244.203,a,1,0.6185,,0.6185,1,244.2035,244.7022,,,,,,128,MAS,NOWORD,DIS,150,itio,,la,,244.7025,244.7029,0.433333362,-0.01666666,0,0,0,,0,1,1,127,1,pico,,,,
,,,,,,67bde019e7a17fb07b4582b7,676192165fb32c2e1fb7aee6,67d1ad910484ed80b86a1a6d,2025-03-12_11h52.12.642,Tarea de decisión léxica,2024.2.5,Win32,59.88023952,,,,,,,,,,,,,,,,,,,,,,,,244.7066,245.9192,a,1,0.538,,0.538,1,245.9196,246.4192,,,,,,142,FEM,NOWORD,AGR,150,sina,,la,,246.4243,246.4264,0.433333362,-0.01666666,0,0,0,,0,2,2,141,1,cruz,,,,
,,,,,,67bde019e7a17fb07b4582b7,676192165fb32c2e1fb7aee6,67d1ad910484ed80b86a1a6d,2025-03-12_11h52.12.642,Tarea de decisión léxica,2024.2.5,Win32,59.88023952,,,,,,,,,,,,,,,,,,,,,,,,246.4287,247.6028,l,1,0.5014,,0.5014,1,247.6032,248.1033,,,,,,37,MAS,WORD,AGR,150,rato,,el,,248.1037,248.1044,0.433333362,-0.01666666,0,0,0,,0,3,3,36,1,gaco,,,,
,,,,,,67bde019e7a17fb07b4582b7,676192165fb32c2e1fb7aee6,67d1ad910484ed80b86a1a6d,2025-03-12_11h52.12.642,Tarea de decisión léxica,2024.2.5,Win32,59.88023952,,,,,,,,,,,,,,,,,,,,,,,,248.1071,249.3865,a,1,0.6082,,0.6082,1,249.3869,249.886,,,,,,276,MAS,NOWORD,DIS,150,musto,,la,,249.8865,249.8872,0.433333362,-0.01666666,0,0,0,,0,4,4,275,1,punto,,,,
,,,,,,67bde019e7a17fb07b4582b7,676192165fb32c2e1fb7aee6,67d1ad910484ed80b86a1a6d,2025-03-12_11h52.12.642,Tarea de decisión léxica,2024.2.5,Win32,59.88023952,,,,,,,,,,,,,,,,,,,,,,,,249.8901,251.0533,a,1,0.492,,0.492,1,251.0538,251.5528,,,,,,224,FEM,NOWORD,DIS,150,cira,,el,,251.5532,251.5542,0.433333362,-0.01666666,0,0,0,,0,5,5,223,1,cera,,,,
,,,,,,67bde019e7a17fb07b4582b7,676192165fb32c2e1fb7aee6,67d1ad910484ed80b86a1a6d,2025-03-12_11h52.12.642,Tarea de decisión léxica,2024.2.5,Win32,59.88023952,,,,,,,,,,,,,,,,,,,,,,,,251.557,252.7009,l,1,0.4658,,0.4658,1,252.7011,253.2024,,,,,,315,FEM,WORD,DIS,150,reina,,el,,253.2029,253.204,0.433333362,-0.01666666,0,0,0,,0,6,6,314,1,riosa,,,,
,,,,,,67bde019e7a17fb07b4582b7,676192165fb32c2e1fb7aee6,67d1ad910484ed80b86a1a6d,2025-03-12_11h52.12.642,Tarea de decisión léxica,2024.2.5,Win32,59.88023952,,,,,,,,,,,,,,,,,,,,,,,,253.2067,254.3687,l,1,0.4845,,0.4845,1,254.3691,254.8693,,,,,,25,FEM,WORD,AGR,150,cama,,la,,254.8743,254.8763,0.433333362,-0.01666666,0,0,0,,0,7,7,24,1,paza,,,,
,,,,,,67bde019e7a17fb07b4582b7,676192165fb32c2e1fb7aee6,67d1ad910484ed80b86a1a6d,2025-03-12_11h52.12.642,Tarea de decisión léxica,2024.2.5,Win32,59.88023952,,,,,,,,,,,,,,,,,,,,,,,,254.8784,256.1019,a,1,0.5518,,0.5518,1,256.1023,256.6023,,,,,,236,FEM,NOWORD,DIS,150,tria,,el,,256.6028,256.6035,0.433333362,-0.01666666,0,0,0,,0,8,8,235,1,grúa,,,,
,,,,,,67bde019e7a17fb07b4582b7,676192165fb32c2e1fb7aee6,67d1ad910484ed80b86a1a6d,2025-03-12_11h52.12.642,Tarea de decisión léxica,2024.2.5,Win32,59.88023952,,,,,,,,,,,,,,,,,,,,,,,,256.6065,257.8184,a,1,0.5348,,0.5348,1,257.8188,258.3193,,,,,,2,FEM,NOWORD,AGR,150,mada,,la,,258.3197,258.3206,0.433333362,-0.01666666,0,0,0,,0,9,9,1,1,casa,,,,
,,,,,,67bde019e7a17fb07b4582b7,676192165fb32c2e1fb7aee6,67d1ad910484ed80b86a1a6d,2025-03-12_11h52.12.642,Tarea de decisión léxica,2024.2.5,Win32,59.88023952,,,,,,,,,,,,,,,,,,,,,,,,258.3233,259.4345,l,1,0.4407,,0.4407,1,259.435,259.9347,,,,,,101,MAS,WORD,AGR,150,tono,,el,,259.935,259.9355,0.433333362,-0.01666666,0,0,0,,0,10,10,100,1,gito,,,,
,,,,,,67bde019e7a17fb07b4582b7,676192165fb32c2e1fb7aee6,67d1ad910484ed80b86a1a6d,2025-03-12_11h52.12.642,Tarea de decisión léxica,2024.2.5,Win32,59.88023952,,,,,,,,,,,,,,,,,,,,,,,,259.9399,261.2518,a,1,0.6347,,0.6347,1,261.2523,261.7523,,,,,,300,FEM,NOWORD,DIS,150,bosga,,el,,261.7572,261.7593,0.433333362,-0.01666666,0,0,0,,0,11,11,299,1,bolsa,,,,
,,,,,,67bde019e7a17fb07b4582b7,676192165fb32c2e1fb7aee6,67d1ad910484ed80b86a1a6d,2025-03-12_11h52.12.642,Tarea de decisión léxica,2024.2.5,Win32,59.88023952,,,,,,,,,,,,,,,,,,,,,,,,261.7613,262.8849,l,1,0.4513,,0.4513,1,262.8853,263.3852,,,,,,355,FEM,WORD,DIS,150,regla,,el,,263.3853,263.3857,0.433333362,-0.01666666,0,0,0,,0,12,12,354,1,bepla,,,,
,,,,,,67bde019e7a17fb07b4582b7,676192165fb32c2e1fb7aee6,67d1ad910484ed80b86a1a6d,2025-03-12_11h52.12.642,Tarea de decisión léxica,2024.2.5,Win32,59.88023952,,,,,,,,,,,,,,,,,,,,,,,,263.3887,264.601,a,1,0.5384,,0.5384,1,264.6014,265.1014,,,,,,202,FEM,NOWORD,AGR,150,cusa,,la,,265.1016,265.1019,0.433333362,-0.01666666,0,0,0,,0,13,13,201,1,cuna,,,,
,,,,,,67bde019e7a17fb07b4582b7,676192165fb32c2e1fb7aee6,67d1ad910484ed80b86a1a6d,2025-03-12_11h52.12.642,Tarea de decisión léxica,2024.2.5,Win32,59.88023952,,,,,,,,,,,,,,,,,,,,,,,,265.1064,266.4176,a,1,0.6406,,0.6406,1,266.418,266.9179,,,,,,420,MAS,NOWORD,DIS,150,chudo,,la,,266.9181,266.9184,0.433333362,-0.01666666,0,0,0,,0,14,14,419,1,truco,,,,
,,,,,,67bde019e7a17fb07b4582b7,676192165fb32c2e1fb7aee6,67d1ad910484ed80b86a1a6d,2025-03-12_11h52.12.642,Tarea de decisión léxica,2024.2.5,Win32,59.88023952,,,,,,,,,,,,,,,,,,,,,,,,266.923,268.0868,l,1,0.4923,,0.4923,1,268.0871,268.5845,,,,,,439,FEM,WORD,DIS,150,presa,,el,,268.5848,268.5851,0.433333362,-0.01666666,0,0,0,,0,15,15,438,1,prema,,,,
,,,,,,67bde019e7a17fb07b4582b7,676192165fb32c2e1fb7aee6,67d1ad910484ed80b86a1a6d,2025-03-12_11h52.12.642,Tarea de decisión léxica,2024.2.5,Win32,59.88023952,,,,,,,,,,,,,,,,,,,,,,,,268.5888,269.687,l,1,0.4239,,0.4239,1,269.6873,270.1844,,,,,,303,MAS,WORD,DIS,150,barco,,la,,270.1894,270.1912,0.433333362,-0.01666666,0,0,0,,0,16,16,302,1,lanco,,,,
,,,,,,67bde019e7a17fb07b4582b7,676192165fb32c2e1fb7aee6,67d1ad910484ed80b86a1a6d,2025-03-12_11h52.12.642,Tarea de decisión léxica,2024.2.5,Win32,59.88023952,,,,,,,,,,,,,,,,,,,,,,,,270.1931,271.4197,a,1,0.56,,0.56,1,271.4199,271.9182,,,,,,60,FEM,NOWORD,DIS,150,tafa,,el,,271.9185,271.9192,0.433333362,-0.01666666,0,0,0,,0,17,17,59,1,sala,,,,
,,,,,,67bde019e7a17fb07b4582b7,676192165fb32c2e1fb7aee6,67d1ad910484ed80b86a1a6d,2025-03-12_11h52.12.642,Tarea de decisión léxica,2024.2.5,Win32,59.88023952,,,,,,,,,,,,,,,,,,,,,,,,271.9227,273.1008,a,1,0.5012,,0.5012,1,273.1012,273.6012,,,,,,56,MAS,NOWORD,DIS,150,jado,,la,,273.6014,273.6018,0.433333362,-0.01666666,0,0,0,,0,18,18,55,1,gato,,,,
,,,,,,67bde019e7a17fb07b4582b7,676192165fb32c2e1fb7aee6,67d1ad910484ed80b86a1a6d,2025-03-12_11h52.12.642,Tarea de decisión léxica,2024.2.5,Win32,59.88023952,,,,,,,,,,,,,,,,,,,,,,,,273.6051,274.6841,l,1,0.4004,,0.4004,1,274.6845,275.1841,,,,,,343,FEM,WORD,DIS,150,plata,,el,,275.1843,275.1846,0.433333362,-0.01666666,0,0,0,,0,19,19,342,1,trada,,,,
,,,,,,67bde019e7a17fb07b4582b7,676192165fb32c2e1fb7aee6,67d1ad910484ed80b86a1a6d,2025-03-12_11h52.12.642,Tarea de decisión léxica,2024.2.5,Win32,59.88023952,,,,,,,,,,,,,,,,,,,,,,,,275.188,276.2669,l,1,0.4009,,0.4009,1,276.2674,276.7676,,,,,,295,MAS,WORD,DIS,150,dolor,,la,,276.7678,276.7682,0.433333362,-0.01666666,0,0,0,,0,20,20,294,1,goler,,,,
,,,,,,67bde019e7a17fb07b4582b7,676192165fb32c2e1fb7aee6,67d1ad910484ed80b86a1a6d,2025-03-12_11h52.12.642,Tarea de decisión léxica,2024.2.5,Win32,59.88023952,,,,,,,,,,,,,,,,,,,,,,,,276.7713,277.8009,l,1,0.3519,,0.3519,1,277.8013,278.3004,,,,,,433,MAS,WORD,AGR,150,disco,,el,,278.305,278.3073,0.433333362,-0.01666666,0,0,0,,0,21,21,432,1,durco,,,,
,,,,,,67bde019e7a17fb07b4582b7,676192165fb32c2e1fb7aee6,67d1ad910484ed80b86a1a6d,2025-03-12_11h52.12.642,Tarea de decisión léxica,2024.2.5,Win32,59.88023952,,,,,,,,,,,,,,,,,,,,,,,,278.3093,279.2669,l,1,0.2879,,0.2879,1,279.2676,279.7669,,,,,,267,MAS,WORD,DIS,150,libro,,la,,279.7672,279.7675,0.433333362,-0.01666666,0,0,0,,0,22,22,266,1,figro,,,,
,,,,,,67bde019e7a17fb07b4582b7,676192165fb32c2e1fb7aee6,67d1ad910484ed80b86a1a6d,2025-03-12_11h52.12.642,Tarea de decisión léxica,2024.2.5,Win32,59.88023952,,,,,,,,,,,,,,,,,,,,,,,,279.771,280.8665,a,1,0.4223,,0.4223,1,280.867,281.3668,,,,,,394,FEM,NOWORD,AGR,150,ashea,,la,,281.3669,281.3673,0.433333362,-0.01666666,0,0,0,,0,23,23,393,1,aldea,,,,
,,,,,,67bde019e7a17fb07b4582b7,676192165fb32c2e1fb7aee6,67d1ad910484ed80b86a1a6d,2025-03-12_11h52.12.642,Tarea de decisión léxica,2024.2.5,Win32,59.88023952,,,,,,,,,,,,,,,,,,,,,,,,281.371,282.4669,a,1,0.4171,,0.4171,1,282.4673,282.9655,,,,,,212,FEM,NOWORD,DIS,150,joad,,el,,282.9655,282.9656,0.433333362,-0.01666666,0,0,0,,0,24,24,211,1,joya,,,,
,,,,,,67bde019e7a17fb07b4582b7,676192165fb32c2e1fb7aee6,67d1ad910484ed80b86a1a6d,2025-03-12_11h52.12.642,Tarea de decisión léxica,2024.2.5,Win32,59.88023952,,,,,,,,,,,,,,,,,,,,,,,,282.969,283.9996,l,1,0.3684,,0.3684,1,284,284.4998,,,,,,337,MAS,WORD,AGR,150,huevo,,el,,284.5003,284.501,0.433333362,-0.01666666,0,0,0,,0,25,25,336,1,nuejo,,,,
,,,,,,67bde019e7a17fb07b4582b7,676192165fb32c2e1fb7aee6,67d1ad910484ed80b86a1a6d,2025-03-12_11h52.12.642,Tarea de decisión léxica,2024.2.5,Win32,59.88023952,,,,,,,,,,,,,,,,,,,,,,,,284.5042,285.567,l,1,0.3843,,0.3843,1,285.5673,286.0665,,,,,,473,FEM,WORD,AGR,150,feria,,la,,286.0717,286.0736,0.433333362,-0.01666666,0,0,0,,0,26,26,472,1,felia,,,,
,,,,,,67bde019e7a17fb07b4582b7,676192165fb32c2e1fb7aee6,67d1ad910484ed80b86a1a6d,2025-03-12_11h52.12.642,Tarea de decisión léxica,2024.2.5,Win32,59.88023952,,,,,,,,,,,,,,,,,,,,,,,,286.0755,287.1506,a,0,0.4057,,0.4057,0,287.1543,287.6501,,,,,,105,FEM,WORD,AGR,150,sopa,,la,,287.6504,287.6509,0.433333362,-0.01666666,0,0,0,,0,27,27,104,1,vina,,,,
,,,,,,67bde019e7a17fb07b4582b7,676192165fb32c2e1fb7aee6,67d1ad910484ed80b86a1a6d,2025-03-12_11h52.12.642,Tarea de decisión léxica,2024.2.5,Win32,59.88023952,,,,,,,,,,,,,,,,,,,,,,,,287.6544,288.6827,l,1,0.3531,,0.3531,1,288.6859,289.1832,,,,,,369,MAS,WORD,AGR,150,ruido,,el,,289.1834,289.1837,0.433333362,-0.01666666,0,0,0,,0,28,28,368,1,rioco,,,,
,,,,,,67bde019e7a17fb07b4582b7,676192165fb32c2e1fb7aee6,67d1ad910484ed80b86a1a6d,2025-03-12_11h52.12.642,Tarea de decisión léxica,2024.2.5,Win32,59.88023952,,,,,,,,,,,,,,,,,,,,,,,,289.1873,290.2326,l,1,0.3742,,0.3742,1,290.2331,290.7332,,,,,,199,MAS,WORD,DIS,150,lazo,,la,,290.7335,290.7339,0.433333362,-0.01666666,0,0,0,,0,29,29,198,1,fano,,,,
,,,,,,67bde019e7a17fb07b4582b7,676192165fb32c2e1fb7aee6,67d1ad910484ed80b86a1a6d,2025-03-12_11h52.12.642,Tarea de decisión léxica,2024.2.5,Win32,59.88023952,,,,,,,,,,,,,,,,,,,,,,,,290.7373,291.7991,l,1,0.3889,,0.3889,1,291.7998,292.2994,,,,,,335,FEM,WORD,DIS,150,costa,,el,,292.2997,292.3,0.433333362,-0.01666666,0,0,0,,0,30,30,334,1,pesta,,,,
,,,,,,67bde019e7a17fb07b4582b7,676192165fb32c2e1fb7aee6,67d1ad910484ed80b86a1a6d,2025-03-12_11h52.12.642,Tarea de decisión léxica,2024.2.5,Win32,59.88023952,,,,,,,,,,,,,,,,,,,,,,,,292.3035,293.5324,a,1,0.5577,,0.5577,1,293.5329,294.0326,,,,,,302,FEM,NOWORD,AGR,150,ranga,,la,,294.0375,294.0394,0.433333362,-0.01666666,0,0,0,,0,31,31,301,1,banda,,,,
,,,,,,67bde019e7a17fb07b4582b7,676192165fb32c2e1fb7aee6,67d1ad910484ed80b86a1a6d,2025-03-12_11h52.12.642,Tarea de decisión léxica,2024.2.5,Win32,59.88023952,,,,,,,,,,,,,,,,,,,,,,,,294.0416,295.1655,l,0,0.4547,,0.4547,0,295.1693,295.6659,,,,,,296,MAS,NOWORD,DIS,150,goler,,la,,295.6661,295.6665,0.433333362,-0.01666666,0,0,0,,0,32,32,295,1,dolor,,,,
,,,,,,67bde019e7a17fb07b4582b7,676192165fb32c2e1fb7aee6,67d1ad910484ed80b86a1a6d,2025-03-12_11h52.12.642,Tarea de decisión léxica,2024.2.5,Win32,59.88023952,,,,,,,,,,,,,,,,,,,,,,,,295.6703,296.866,l,1,0.5182,,0.5182,1,296.8697,297.3662,,,,,,31,FEM,WORD,DIS,150,ropa,,el,,297.3664,297.3668,0.433333362,-0.01666666,0,0,0,,0,33,33,30,1,bova,,,,
,,,,,,67bde019e7a17fb07b4582b7,676192165fb32c2e1fb7aee6,67d1ad910484ed80b86a1a6d,2025-03-12_11h52.12.642,Tarea de decisión léxica,2024.2.5,Win32,59.88023952,,,,,,,,,,,,,,,,,,,,,,,,297.3704,298.8988,a,1,0.8514,,0.8514,1,298.8992,299.3989,,,,,,438,FEM,NOWORD,AGR,150,glava,,la,,299.3991,299.3995,0.433333362,-0.01666666,0,0,0,,0,34,34,437,1,plaza,,,,
,,,,,,67bde019e7a17fb07b4582b7,676192165fb32c2e1fb7aee6,67d1ad910484ed80b86a1a6d,2025-03-12_11h52.12.642,Tarea de decisión léxica,2024.2.5,Win32,59.88023952,,,,,,,,,,,,,,,,,,,,,,,,299.4033,300.7318,l,1,0.6562,,0.6562,1,300.7322,301.2324,,,,,,219,FEM,WORD,DIS,150,pipa,,el,,301.2377,301.2397,0.433333362,-0.01666666,0,0,0,,0,35,35,218,1,miva,,,,
,,,,,,67bde019e7a17fb07b4582b7,676192165fb32c2e1fb7aee6,67d1ad910484ed80b86a1a6d,2025-03-12_11h52.12.642,Tarea de decisión léxica,2024.2.5,Win32,59.88023952,,,,,,,,,,,,,,,,,,,,,,,,301.2416,302.2989,l,1,0.3845,,0.3845,1,302.2993,302.7987,,,,,,171,MAS,WORD,DIS,150,hilo,,la,,302.7989,302.7993,0.433333362,-0.01666666,0,0,0,,0,36,36,170,1,niro,,,,
,,,,,,67bde019e7a17fb07b4582b7,676192165fb32c2e1fb7aee6,67d1ad910484ed80b86a1a6d,2025-03-12_11h52.12.642,Tarea de decisión léxica,2024.2.5,Win32,59.88023952,,,,,,,,,,,,,,,,,,,,,,,,302.8025,303.9655,a,0,0.4847,,0.4847,0,303.9696,304.4658,,,,,,227,MAS,WORD,DIS,150,faro,,la,,304.466,304.4664,0.433333362,-0.01666666,0,0,0,,0,37,37,226,1,laro,,,,
,,,,,,67bde019e7a17fb07b4582b7,676192165fb32c2e1fb7aee6,67d1ad910484ed80b86a1a6d,2025-03-12_11h52.12.642,Tarea de decisión léxica,2024.2.5,Win32,59.88023952,,,,,,,,,,,,,,,,,,,,,,,,304.47,305.7984,a,1,0.6572,,0.6572,1,305.8018,306.2988,,,,,,176,FEM,NOWORD,DIS,150,hosa,,el,,306.2991,306.2994,0.433333362,-0.01666666,0,0,0,,0,38,38,175,1,goma,,,,
,,,,,,67bde019e7a17fb07b4582b7,676192165fb32c2e1fb7aee6,67d1ad910484ed80b86a1a6d,2025-03-12_11h52.12.642,Tarea de decisión léxica,2024.2.5,Win32,59.88023952,,,,,,,,,,,,,,,,,,,,,,,,306.3029,307.3657,l,1,0.3845,,0.3845,1,307.3661,307.8654,,,,,,149,MAS,WORD,AGR,150,cabo,,el,,307.8656,307.866,0.433333362,-0.01666666,0,0,0,,0,39,39,148,1,pafo,,,,
,,,,,,67bde019e7a17fb07b4582b7,676192165fb32c2e1fb7aee6,67d1ad910484ed80b86a1a6d,2025-03-12_11h52.12.642,Tarea de decisión léxica,2024.2.5,Win32,59.88023952,,,,,,,,,,,,,,,,,,,,,,,,307.8696,309.0989,l,0,0.5511,,0.5511,0,309.1022,309.5984,,,,,,86,MAS,NOWORD,AGR,150,babo,,el,,309.6035,309.6053,0.433333362,-0.01666666,0,0,0,,0,40,40,85,1,lago,,,,
,,,,,,67bde019e7a17fb07b4582b7,676192165fb32c2e1fb7aee6,67d1ad910484ed80b86a1a6d,2025-03-12_11h52.12.642,Tarea de decisión léxica,2024.2.5,Win32,59.88023952,,,,,,,,,,,,,,,,,,,,,,,,309.6075,310.9315,a,1,0.6515,,0.6515,1,310.935,311.4319,,,,,,280,FEM,NOWORD,DIS,150,grina,,el,,311.4322,311.4327,0.433333362,-0.01666666,0,0,0,,0,41,41,279,1,prisa,,,,
,,,,,,67bde019e7a17fb07b4582b7,676192165fb32c2e1fb7aee6,67d1ad910484ed80b86a1a6d,2025-03-12_11h52.12.642,Tarea de decisión léxica,2024.2.5,Win32,59.88023952,,,,,,,,,,,,,,,,,,,,,,,,311.4364,312.5979,a,1,0.4907,,0.4907,1,312.5982,313.0977,,,,,,152,MAS,NOWORD,DIS,150,sogo,,la,,313.098,313.0987,0.433333362,-0.01666666,0,0,0,,0,42,42,151,1,tomo,,,,
,,,,,,67bde019e7a17fb07b4582b7,676192165fb32c2e1fb7aee6,67d1ad910484ed80b86a1a6d,2025-03-12_11h52.12.642,Tarea de decisión léxica,2024.2.5,Win32,59.88023952,,,,,,,,,,,,,,,,,,,,,,,,313.102,314.2312,l,1,0.4512,,0.4512,1,314.2316,314.7317,,,,,,193,FEM,WORD,AGR,150,loca,,la,,314.732,314.7324,0.433333362,-0.01666666,0,0,0,,0,43,43,192,1,foda,,,,
,,,,,,67bde019e7a17fb07b4582b7,676192165fb32c2e1fb7aee6,67d1ad910484ed80b86a1a6d,2025-03-12_11h52.12.642,Tarea de decisión léxica,2024.2.5,Win32,59.88023952,,,,,,,,,,,,,,,,,,,,,,,,314.7359,315.9648,a,1,0.5508,,0.5508,1,315.9652,316.4651,,,,,,348,FEM,NOWORD,DIS,150,mueza,,el,,316.4654,316.4658,0.433333362,-0.01666666,0,0,0,,0,44,44,347,1,pieza,,,,
,,,,,,67bde019e7a17fb07b4582b7,676192165fb32c2e1fb7aee6,67d1ad910484ed80b86a1a6d,2025-03-12_11h52.12.642,Tarea de decisión léxica,2024.2.5,Win32,59.88023952,,,,,,,,,,,,,,,,,,,,,,,,316.469,317.731,a,1,0.5868,,0.5868,1,317.7314,318.2315,,,,,,44,FEM,NOWORD,DIS,150,meda,,el,,318.2362,318.2383,0.433333362,-0.01666666,0,0,0,,0,45,45,43,1,pena,,,,
,,,,,,67bde019e7a17fb07b4582b7,676192165fb32c2e1fb7aee6,67d1ad910484ed80b86a1a6d,2025-03-12_11h52.12.642,Tarea de decisión léxica,2024.2.5,Win32,59.88023952,,,,,,,,,,,,,,,,,,,,,,,,318.2403,319.3313,l,1,0.4181,,0.4181,1,319.3316,319.8314,,,,,,89,MAS,WORD,AGR,150,humo,,el,,319.8316,319.832,0.433333362,-0.01666666,0,0,0,,0,46,46,88,1,guso,,,,
,,,,,,67bde019e7a17fb07b4582b7,676192165fb32c2e1fb7aee6,67d1ad910484ed80b86a1a6d,2025-03-12_11h52.12.642,Tarea de decisión léxica,2024.2.5,Win32,59.88023952,,,,,,,,,,,,,,,,,,,,,,,,319.8368,321.0646,l,1,0.5518,,0.5518,1,321.0649,321.5647,,,,,,305,MAS,WORD,AGR,150,avión,,el,,321.565,321.5656,0.433333362,-0.01666666,0,0,0,,0,47,47,304,1,adiol,,,,
,,,,,,67bde019e7a17fb07b4582b7,676192165fb32c2e1fb7aee6,67d1ad910484ed80b86a1a6d,2025-03-12_11h52.12.642,Tarea de decisión léxica,2024.2.5,Win32,59.88023952,,,,,,,,,,,,,,,,,,,,,,,,321.569,322.7474,l,1,0.5054,,0.5054,1,322.7477,323.2477,,,,,,107,MAS,WORD,DIS,150,saco,,la,,323.248,323.2483,0.433333362,-0.01666666,0,0,0,,0,48,48,106,1,raot,,,,
,,,,,,67bde019e7a17fb07b4582b7,676192165fb32c2e1fb7aee6,67d1ad910484ed80b86a1a6d,2025-03-12_11h52.12.642,Tarea de decisión léxica,2024.2.5,Win32,59.88023952,,,,,,,,,,,,,,,,,,,,,,,,323.2521,324.4309,l,1,0.5006,,0.5006,1,324.4313,324.931,,,,,,469,MAS,WORD,AGR,150,patio,,el,,324.9313,324.9315,0.433333362,-0.01666666,0,0,0,,0,49,49,468,1,matia,,,,
,,,,,,67bde019e7a17fb07b4582b7,676192165fb32c2e1fb7aee6,67d1ad910484ed80b86a1a6d,2025-03-12_11h52.12.642,Tarea de decisión léxica,2024.2.5,Win32,59.88023952,,,,,,,,,,,,,,,,,,,,,,,,324.935,326.2636,l,1,0.6578,,0.6578,1,326.2642,326.7642,,,,,,363,FEM,WORD,DIS,150,deuda,,el,,326.7689,326.7709,0.433333362,-0.01666666,0,0,0,,0,50,50,362,1,veida,,,,
,,,,,,67bde019e7a17fb07b4582b7,676192165fb32c2e1fb7aee6,67d1ad910484ed80b86a1a6d,2025-03-12_11h52.12.642,Tarea de decisión léxica,2024.2.5,Win32,59.88023952,,,,,,,,,,,,,,,,,,,,,,,,326.7728,328.0806,a,1,0.6331,,0.6331,1,328.0809,328.5804,,,,,,410,MAS,NOWORD,AGR,150,pafro,,el,,328.5807,328.581,0.433333362,-0.01666666,0,0,0,,0,51,51,409,1,carro,,,,
,,,,,,67bde019e7a17fb07b4582b7,676192165fb32c2e1fb7aee6,67d1ad910484ed80b86a1a6d,2025-03-12_11h52.12.642,Tarea de decisión léxica,2024.2.5,Win32,59.88023952,,,,,,,,,,,,,,,,,,,,,,,,328.5854,329.7804,l,1,0.5202,,0.5202,1,329.781,330.2807,,,,,,189,MAS,WORD,AGR,150,puño,,el,,330.2809,330.2812,0.433333362,-0.01666666,0,0,0,,0,52,52,188,1,muvo,,,,
,,,,,,67bde019e7a17fb07b4582b7,676192165fb32c2e1fb7aee6,67d1ad910484ed80b86a1a6d,2025-03-12_11h52.12.642,Tarea de decisión léxica,2024.2.5,Win32,59.88023952,,,,,,,,,,,,,,,,,,,,,,,,330.2846,331.38,l,1,0.4202,,0.4202,1,331.3806,331.8806,,,,,,223,FEM,WORD,DIS,150,cera,,el,,331.8809,331.8812,0.433333362,-0.01666666,0,0,0,,0,53,53,222,1,cira,,,,
,,,,,,67bde019e7a17fb07b4582b7,676192165fb32c2e1fb7aee6,67d1ad910484ed80b86a1a6d,2025-03-12_11h52.12.642,Tarea de decisión léxica,2024.2.5,Win32,59.88023952,,,,,,,,,,,,,,,,,,,,,,,,331.8849,333.214,a,1,0.6512,,0.6512,1,333.2147,333.7137,,,,,,284,MAS,NOWORD,DIS,150,tuevo,,la,,333.714,333.7143,0.433333362,-0.01666666,0,0,0,,0,54,54,283,1,sueño,,,,
,,,,,,67bde019e7a17fb07b4582b7,676192165fb32c2e1fb7aee6,67d1ad910484ed80b86a1a6d,2025-03-12_11h52.12.642,Tarea de decisión léxica,2024.2.5,Win32,59.88023952,,,,,,,,,,,,,,,,,,,,,,,,333.7177,334.9635,l,1,0.5685,,0.5685,1,334.9639,335.464,,,,,,81,FEM,WORD,AGR,150,dama,,la,,335.4682,335.4704,0.433333362,-0.01666666,0,0,0,,0,55,55,80,1,vasa,,,,
,,,,,,67bde019e7a17fb07b4582b7,676192165fb32c2e1fb7aee6,67d1ad910484ed80b86a1a6d,2025-03-12_11h52.12.642,Tarea de decisión léxica,2024.2.5,Win32,59.88023952,,,,,,,,,,,,,,,,,,,,,,,,335.4724,336.6304,a,1,0.485,,0.485,1,336.6308,337.1291,,,,,,160,MAS,NOWORD,DIS,150,bilo,,la,,337.1291,337.1295,0.433333362,-0.01666666,0,0,0,,0,56,56,159,1,giro,,,,
,,,,,,67bde019e7a17fb07b4582b7,676192165fb32c2e1fb7aee6,67d1ad910484ed80b86a1a6d,2025-03-12_11h52.12.642,Tarea de decisión léxica,2024.2.5,Win32,59.88023952,,,,,,,,,,,,,,,,,,,,,,,,337.1333,338.1801,l,1,0.3683,,0.3683,1,338.1805,338.6798,,,,,,269,MAS,WORD,AGR,150,perro,,el,,338.6799,338.6803,0.433333362,-0.01666666,0,0,0,,0,57,57,268,1,mello,,,,
,,,,,,67bde019e7a17fb07b4582b7,676192165fb32c2e1fb7aee6,67d1ad910484ed80b86a1a6d,2025-03-12_11h52.12.642,Tarea de decisión léxica,2024.2.5,Win32,59.88023952,,,,,,,,,,,,,,,,,,,,,,,,338.6838,339.6965,l,1,0.3348,,0.3348,1,339.697,340.1968,,,,,,281,MAS,WORD,AGR,150,cielo,,el,,340.197,340.1973,0.433333362,-0.01666666,0,0,0,,0,58,58,280,1,cauro,,,,
,,,,,,67bde019e7a17fb07b4582b7,676192165fb32c2e1fb7aee6,67d1ad910484ed80b86a1a6d,2025-03-12_11h52.12.642,Tarea de decisión léxica,2024.2.5,Win32,59.88023952,,,,,,,,,,,,,,,,,,,,,,,,340.2005,341.3801,l,1,0.5019,,0.5019,1,341.3804,341.8798,,,,,,67,FEM,WORD,DIS,150,nena,,el,,341.8843,341.8864,0.433333362,-0.01666666,0,0,0,,0,59,59,66,1,gesa,,,,
,,,,,,67bde019e7a17fb07b4582b7,676192165fb32c2e1fb7aee6,67d1ad910484ed80b86a1a6d,2025-03-12_11h52.12.642,Tarea de decisión léxica,2024.2.5,Win32,59.88023952,,,,,,,,,,,,,,,,,,,,,,,,341.8885,343.0467,l,1,0.4853,,0.4853,1,343.0471,343.5454,,,,,,233,FEM,WORD,AGR,150,lana,,la,,343.5455,343.546,0.433333362,-0.01666666,0,0,0,,0,60,60,232,1,fasa,,,,
,,,,,,67bde019e7a17fb07b4582b7,676192165fb32c2e1fb7aee6,67d1ad910484ed80b86a1a6d,2025-03-12_11h52.12.642,Tarea de decisión léxica,2024.2.5,Win32,59.88023952,,,,,,,,,,,,,,,,,,,,,,,,343.5489,344.7461,a,1,0.5175,,0.5175,1,344.7465,345.2464,,,,,,122,MAS,NOWORD,AGR,150,bomo,,el,,345.2466,345.2469,0.433333362,-0.01666666,0,0,0,,0,61,61,121,1,hoyo,,,,
,,,,,,67bde019e7a17fb07b4582b7,676192165fb32c2e1fb7aee6,67d1ad910484ed80b86a1a6d,2025-03-12_11h52.12.642,Tarea de decisión léxica,2024.2.5,Win32,59.88023952,,,,,,,,,,,,,,,,,,,,,,,,345.2503,346.5456,l,1,0.6204,,0.6204,1,346.5461,347.0464,,,,,,165,FEM,WORD,AGR,150,vela,,la,,347.0467,347.0471,0.433333362,-0.01666666,0,0,0,,0,62,62,164,1,dera,,,,
,,,,,,67bde019e7a17fb07b4582b7,676192165fb32c2e1fb7aee6,67d1ad910484ed80b86a1a6d,2025-03-12_11h52.12.642,Tarea de decisión léxica,2024.2.5,Win32,59.88023952,,,,,,,,,,,,,,,,,,,,,,,,347.0507,348.3463,a,1,0.619,,0.619,1,348.3466,348.8459,,,,,,100,MAS,NOWORD,DIS,150,soro,,la,,348.8463,348.8467,0.433333362,-0.01666666,0,0,0,,0,63,63,99,1,lobo,,,,
,,,,,,67bde019e7a17fb07b4582b7,676192165fb32c2e1fb7aee6,67d1ad910484ed80b86a1a6d,2025-03-12_11h52.12.642,Tarea de decisión léxica,2024.2.5,Win32,59.88023952,,,,,,,,,,,,,,,,,,,,,,,,348.85,350.0796,l,1,0.5519,,0.5519,1,350.0799,350.5794,,,,,,279,FEM,WORD,DIS,150,prisa,,el,,350.5839,350.5857,0.433333362,-0.01666666,0,0,0,,0,64,64,278,1,grina,,,,
,,,,,,67bde019e7a17fb07b4582b7,676192165fb32c2e1fb7aee6,67d1ad910484ed80b86a1a6d,2025-03-12_11h52.12.642,Tarea de decisión léxica,2024.2.5,Win32,59.88023952,,,,,,,,,,,,,,,,,,,,,,,,350.5876,351.8627,a,1,0.6022,,0.6022,1,351.8631,352.3624,,,,,,370,MAS,NOWORD,AGR,150,rioco,,el,,352.3627,352.3631,0.433333362,-0.01666666,0,0,0,,0,65,65,369,1,ruido,,,,
,,,,,,67bde019e7a17fb07b4582b7,676192165fb32c2e1fb7aee6,67d1ad910484ed80b86a1a6d,2025-03-12_11h52.12.642,Tarea de decisión léxica,2024.2.5,Win32,59.88023952,,,,,,,,,,,,,,,,,,,,,,,,352.3665,353.7792,a,1,0.7349,,0.7349,1,353.7796,354.2792,,,,,,76,MAS,NOWORD,DIS,150,ocer,,la,,354.2795,354.2801,0.433333362,-0.01666666,0,0,0,,0,66,66,75,1,olor,,,,
,,,,,,67bde019e7a17fb07b4582b7,676192165fb32c2e1fb7aee6,67d1ad910484ed80b86a1a6d,2025-03-12_11h52.12.642,Tarea de decisión léxica,2024.2.5,Win32,59.88023952,,,,,,,,,,,,,,,,,,,,,,,,354.2836,355.5286,l,1,0.5709,,0.5709,1,355.5289,356.0286,,,,,,139,MAS,WORD,DIS,150,mago,,la,,356.0288,356.0291,0.433333362,-0.01666666,0,0,0,,0,67,67,138,1,nila,,,,
,,,,,,67bde019e7a17fb07b4582b7,676192165fb32c2e1fb7aee6,67d1ad910484ed80b86a1a6d,2025-03-12_11h52.12.642,Tarea de decisión léxica,2024.2.5,Win32,59.88023952,,,,,,,,,,,,,,,,,,,,,,,,356.0327,357.2626,l,1,0.5516,,0.5516,1,357.2631,357.7621,,,,,,85,MAS,WORD,AGR,150,lago,,el,,357.7624,357.7628,0.433333362,-0.01666666,0,0,0,,0,68,68,84,1,babo,,,,
,,,,,,67bde019e7a17fb07b4582b7,676192165fb32c2e1fb7aee6,67d1ad910484ed80b86a1a6d,2025-03-12_11h52.12.642,Tarea de decisión léxica,2024.2.5,Win32,59.88023952,,,,,,,,,,,,,,,,,,,,,,,,357.7665,359.196,l,0,0.7518,,0.7518,0,359.1992,359.6955,,,,,,90,MAS,NOWORD,AGR,150,guso,,el,,359.6992,359.7013,0.433333362,-0.01666666,0,0,0,,0,69,69,89,1,humo,,,,
,,,,,,67bde019e7a17fb07b4582b7,676192165fb32c2e1fb7aee6,67d1ad910484ed80b86a1a6d,2025-03-12_11h52.12.642,Tarea de decisión léxica,2024.2.5,Win32,59.88023952,,,,,,,,,,,,,,,,,,,,,,,,359.7037,360.862,l,1,0.4847,,0.4847,1,360.8653,361.3622,,,,,,225,MAS,WORD,AGR,150,lodo,,el,,361.3624,361.3627,0.433333362,-0.01666666,0,0,0,,0,70,70,224,1,boco,,,,
,,,,,,67bde019e7a17fb07b4582b7,676192165fb32c2e1fb7aee6,67d1ad910484ed80b86a1a6d,2025-03-12_11h52.12.642,Tarea de decisión léxica,2024.2.5,Win32,59.88023952,,,,,,,,,,,,,,,,,,,,,,,,361.3664,362.579,a,1,0.5356,,0.5356,1,362.5795,363.0791,,,,,,252,MAS,NOWORD,DIS,150,refor,,la,,363.0794,363.0799,0.433333362,-0.01666666,0,0,0,,0,71,71,251,1,señor,,,,
,,,,,,67bde019e7a17fb07b4582b7,676192165fb32c2e1fb7aee6,67d1ad910484ed80b86a1a6d,2025-03-12_11h52.12.642,Tarea de decisión léxica,2024.2.5,Win32,59.88023952,,,,,,,,,,,,,,,,,,,,,,,,363.0828,364.2116,l,1,0.4572,,0.4572,1,364.2121,364.7116,,,,,,51,FEM,WORD,DIS,150,caja,,el,,364.7119,364.7122,0.433333362,-0.01666666,0,0,0,,0,72,72,50,1,mava,,,,
,,,,,,67bde019e7a17fb07b4582b7,676192165fb32c2e1fb7aee6,67d1ad910484ed80b86a1a6d,2025-03-12_11h52.12.642,Tarea de decisión léxica,2024.2.5,Win32,59.88023952,,,,,,,,,,,,,,,,,,,,,,,,364.7156,365.9779,a,1,0.5861,,0.5861,1,365.9783,366.4786,,,,,,246,FEM,NOWORD,AGR,150,pafle,,la,,366.4788,366.4792,0.433333362,-0.01666666,0,0,0,,0,73,73,245,1,madre,,,,
,,,,,,67bde019e7a17fb07b4582b7,676192165fb32c2e1fb7aee6,67d1ad910484ed80b86a1a6d,2025-03-12_11h52.12.642,Tarea de decisión léxica,2024.2.5,Win32,59.88023952,,,,,,,,,,,,,,,,,,,,,,,,366.4823,367.7785,l,1,0.617,,0.617,1,367.7788,368.2778,,,,,,405,FEM,WORD,AGR,150,barra,,la,,368.2818,368.2834,0.433333362,-0.01666666,0,0,0,,0,74,74,404,1,rarra,,,,
,,,,,,67bde019e7a17fb07b4582b7,676192165fb32c2e1fb7aee6,67d1ad910484ed80b86a1a6d,2025-03-12_11h52.12.642,Tarea de decisión léxica,2024.2.5,Win32,59.88023952,,,,,,,,,,,,,,,,,,,,,,,,368.2852,369.7116,a,1,0.7515,,0.7515,1,369.712,370.2118,,,,,,474,FEM,NOWORD,AGR,150,felia,,la,,370.2119,370.2123,0.433333362,-0.01666666,0,0,0,,0,75,75,473,1,feria,,,,
,,,,,,67bde019e7a17fb07b4582b7,676192165fb32c2e1fb7aee6,67d1ad910484ed80b86a1a6d,2025-03-12_11h52.12.642,Tarea de decisión léxica,2024.2.5,Win32,59.88023952,,,,,,,,,,,,,,,,,,,,,,,,370.2156,371.5454,l,1,0.6524,,0.6524,1,371.5458,372.0447,,,,,,361,FEM,WORD,AGR,150,torre,,la,,372.0449,372.0452,0.433333362,-0.01666666,0,0,0,,0,76,76,360,1,solle,,,,
,,,,,,67bde019e7a17fb07b4582b7,676192165fb32c2e1fb7aee6,67d1ad910484ed80b86a1a6d,2025-03-12_11h52.12.642,Tarea de decisión léxica,2024.2.5,Win32,59.88023952,,,,,,,,,,,,,,,,,,,,,,,,372.0486,373.2946,l,0,0.5749,,0.5749,0,373.2973,373.7947,,,,,,28,MAS,NOWORD,DIS,150,ravo,,la,,373.7948,373.7952,0.433333362,-0.01666666,0,0,0,,0,77,77,27,1,baño,,,,
,,,,,,67bde019e7a17fb07b4582b7,676192165fb32c2e1fb7aee6,67d1ad910484ed80b86a1a6d,2025-03-12_11h52.12.642,Tarea de decisión léxica,2024.2.5,Win32,59.88023952,,,,,,,,,,,,,,,,,,,,,,,,373.7988,375.2611,a,1,0.7864,,0.7864,1,375.2644,375.7611,,,,,,352,MAS,NOWORD,DIS,150,duepo,,la,,375.7614,375.7617,0.433333362,-0.01666666,0,0,0,,0,78,78,351,1,vuelo,,,,
,,,,,,67bde019e7a17fb07b4582b7,676192165fb32c2e1fb7aee6,67d1ad910484ed80b86a1a6d,2025-03-12_11h52.12.642,Tarea de decisión léxica,2024.2.5,Win32,59.88023952,,,,,,,,,,,,,,,,,,,,,,,,375.7654,377.1609,a,1,0.7238,,0.7238,1,377.1614,377.661,,,,,,288,FEM,NOWORD,DIS,150,fosta,,el,,377.6656,377.6674,0.433333362,-0.01666666,0,0,0,,0,79,79,287,1,lista,,,,
,,,,,,67bde019e7a17fb07b4582b7,676192165fb32c2e1fb7aee6,67d1ad910484ed80b86a1a6d,2025-03-12_11h52.12.642,Tarea de decisión léxica,2024.2.5,Win32,59.88023952,,,,,,,,,,,,,,,,,,,,,,,,377.6693,379.027,a,1,0.6889,,0.6889,1,379.0275,379.5276,,,,,,456,MAS,NOWORD,DIS,150,riaso,,la,,379.5278,379.5282,0.433333362,-0.01666666,0,0,0,,0,80,80,455,1,reino,,,,
,,,,,,67bde019e7a17fb07b4582b7,676192165fb32c2e1fb7aee6,67d1ad910484ed80b86a1a6d,2025-03-12_11h52.12.642,Tarea de decisión léxica,2024.2.5,Win32,59.88023952,,,,,,,,,,,,,,,,,,,,,,,,379.5316,380.9276,l,0,0.718,,0.718,0,380.9308,381.4275,,,,,,36,MAS,NOWORD,DIS,150,meno,,la,,381.4278,381.4283,0.433333362,-0.01666666,0,0,0,,0,81,81,35,1,pelo,,,,
,,,,,,67bde019e7a17fb07b4582b7,676192165fb32c2e1fb7aee6,67d1ad910484ed80b86a1a6d,2025-03-12_11h52.12.642,Tarea de decisión léxica,2024.2.5,Win32,59.88023952,,,,,,,,,,,,,,,,,,,,,,,,381.4321,382.7445,a,1,0.6406,,0.6406,1,382.7494,383.2437,,,,,,126,MAS,NOWORD,AGR,150,vudo,,el,,383.2441,383.2444,0.433333362,-0.01666666,0,0,0,,0,82,82,125,1,lujo,,,,
,,,,,,67bde019e7a17fb07b4582b7,676192165fb32c2e1fb7aee6,67d1ad910484ed80b86a1a6d,2025-03-12_11h52.12.642,Tarea de decisión léxica,2024.2.5,Win32,59.88023952,,,,,,,,,,,,,,,,,,,,,,,,383.2477,384.6938,a,0,0.7694,,0.7694,0,384.697,385.1941,,,,,,119,MAS,WORD,DIS,150,pozo,,la,,385.1998,385.2024,0.433333362,-0.01666666,0,0,0,,0,83,83,118,1,hooy,,,,
,,,,,,67bde019e7a17fb07b4582b7,676192165fb32c2e1fb7aee6,67d1ad910484ed80b86a1a6d,2025-03-12_11h52.12.642,Tarea de decisión léxica,2024.2.5,Win32,59.88023952,,,,,,,,,,,,,,,,,,,,,,,,385.205,386.643,a,1,0.7699,,0.7699,1,386.6468,387.1432,,,,,,42,FEM,NOWORD,AGR,150,haje,,la,,387.1434,387.1438,0.433333362,-0.01666666,0,0,0,,0,84,84,41,1,nave,,,,
,,,,,,67bde019e7a17fb07b4582b7,676192165fb32c2e1fb7aee6,67d1ad910484ed80b86a1a6d,2025-03-12_11h52.12.642,Tarea de decisión léxica,2024.2.5,Win32,59.88023952,,,,,,,,,,,,,,,,,,,,,,,,387.1471,388.2767,l,1,0.4517,,0.4517,1,388.2771,388.7771,,,,,,175,FEM,WORD,DIS,150,goma,,el,,388.7773,388.7775,0.433333362,-0.01666666,0,0,0,,0,85,85,174,1,hosa,,,,
,,,,,,67bde019e7a17fb07b4582b7,676192165fb32c2e1fb7aee6,67d1ad910484ed80b86a1a6d,2025-03-12_11h52.12.642,Tarea de decisión léxica,2024.2.5,Win32,59.88023952,,,,,,,,,,,,,,,,,,,,,,,,388.7809,390.0934,l,1,0.6339,,0.6339,1,390.0938,390.5931,,,,,,365,FEM,WORD,AGR,150,ducha,,la,,390.5933,390.5936,0.433333362,-0.01666666,0,0,0,,0,86,86,364,1,gulla,,,,
,,,,,,67bde019e7a17fb07b4582b7,676192165fb32c2e1fb7aee6,67d1ad910484ed80b86a1a6d,2025-03-12_11h52.12.642,Tarea de decisión léxica,2024.2.5,Win32,59.88023952,,,,,,,,,,,,,,,,,,,,,,,,390.5974,391.8263,a,1,0.5573,,0.5573,1,391.8266,392.3269,,,,,,440,FEM,NOWORD,DIS,150,prema,,el,,392.3271,392.3275,0.433333362,-0.01666666,0,0,0,,0,87,87,439,1,presa,,,,
,,,,,,67bde019e7a17fb07b4582b7,676192165fb32c2e1fb7aee6,67d1ad910484ed80b86a1a6d,2025-03-12_11h52.12.642,Tarea de decisión léxica,2024.2.5,Win32,59.88023952,,,,,,,,,,,,,,,,,,,,,,,,392.331,393.5265,l,1,0.5183,,0.5183,1,393.5269,394.0269,,,,,,471,FEM,WORD,DIS,150,grasa,,el,,394.0309,394.033,0.433333362,-0.01666666,0,0,0,,0,88,88,470,1,prana,,,,
,,,,,,67bde019e7a17fb07b4582b7,676192165fb32c2e1fb7aee6,67d1ad910484ed80b86a1a6d,2025-03-12_11h52.12.642,Tarea de decisión léxica,2024.2.5,Win32,59.88023952,,,,,,,,,,,,,,,,,,,,,,,,394.0349,395.226,l,1,0.5172,,0.5172,1,395.2263,395.7264,,,,,,43,FEM,WORD,DIS,150,pena,,el,,395.7267,395.727,0.433333362,-0.01666666,0,0,0,,0,89,89,42,1,meda,,,,
,,,,,,67bde019e7a17fb07b4582b7,676192165fb32c2e1fb7aee6,67d1ad910484ed80b86a1a6d,2025-03-12_11h52.12.642,Tarea de decisión léxica,2024.2.5,Win32,59.88023952,,,,,,,,,,,,,,,,,,,,,,,,395.7305,397.142,l,1,0.7334,,0.7334,1,397.1421,397.6432,,,,,,95,FEM,WORD,DIS,151,moda,,el,,397.6434,397.6437,0.433333362,-0.01666666,0,0,0,,0,90,90,94,1,neda,,,,
,,,,,,67bde019e7a17fb07b4582b7,676192165fb32c2e1fb7aee6,67d1ad910484ed80b86a1a6d,2025-03-12_11h52.12.642,Tarea de decisión léxica,2024.2.5,Win32,59.88023952,,,,,,,,,,,,,,,,,,,,,,,,397.6467,398.8436,a,1,0.5187,,0.5187,1,398.8439,399.3437,,,,,,388,FEM,NOWORD,DIS,150,bresa,,el,,399.344,399.3448,0.433333362,-0.01666666,0,0,0,,0,91,91,387,1,crema,,,,
,,,,,,67bde019e7a17fb07b4582b7,676192165fb32c2e1fb7aee6,67d1ad910484ed80b86a1a6d,2025-03-12_11h52.12.642,Tarea de decisión léxica,2024.2.5,Win32,59.88023952,,,,,,,,,,,,,,,,,,,,,,,,399.3476,400.8258,a,1,0.8079,,0.8079,1,400.8263,401.3264,,,,,,428,FEM,NOWORD,DIS,150,oseva,,el,,401.3266,401.3269,0.433333362,-0.01666666,0,0,0,,0,92,92,427,1,oreja,,,,
,,,,,,67bde019e7a17fb07b4582b7,676192165fb32c2e1fb7aee6,67d1ad910484ed80b86a1a6d,2025-03-12_11h52.12.642,Tarea de decisión léxica,2024.2.5,Win32,59.88023952,,,,,,,,,,,,,,,,,,,,,,,,401.3301,402.5943,a,1,0.5929,,0.5929,1,402.5946,403.0928,,,,,,320,MAS,NOWORD,DIS,150,tuero,,la,,403.0972,403.0993,0.433333362,-0.01666666,0,0,0,,0,93,93,319,1,suelo,,,,
,,,,,,67bde019e7a17fb07b4582b7,676192165fb32c2e1fb7aee6,67d1ad910484ed80b86a1a6d,2025-03-12_11h52.12.642,Tarea de decisión léxica,2024.2.5,Win32,59.88023952,,,,,,,,,,,,,,,,,,,,,,,,403.1012,404.2917,a,1,0.5175,,0.5175,1,404.2919,404.7923,,,,,,454,FEM,NOWORD,AGR,150,pafia,,la,,404.7927,404.793,0.433333362,-0.01666666,0,0,0,,0,94,94,453,1,mafia,,,,
,,,,,,67bde019e7a17fb07b4582b7,676192165fb32c2e1fb7aee6,67d1ad910484ed80b86a1a6d,2025-03-12_11h52.12.642,Tarea de decisión léxica,2024.2.5,Win32,59.88023952,,,,,,,,,,,,,,,,,,,,,,,,404.7964,406.3756,a,1,0.9039,,0.9039,1,406.3761,406.8755,,,,,,110,MAS,NOWORD,AGR,150,suno,,el,,406.8757,406.8761,0.433333362,-0.01666666,0,0,0,,0,95,95,109,1,rayo,,,,
,,,,,,67bde019e7a17fb07b4582b7,676192165fb32c2e1fb7aee6,67d1ad910484ed80b86a1a6d,2025-03-12_11h52.12.642,Tarea de decisión léxica,2024.2.5,Win32,59.88023952,,,,,,,,,,,,,,,,,,,,,,,,406.8794,408.392,a,1,0.8344,,0.8344,1,408.3923,408.8922,,,,,,250,FEM,NOWORD,AGR,150,plane,,la,,408.8923,408.8927,0.433333362,-0.01666666,0,0,0,,0,96,96,249,1,clase,,,,
,,,,,,67bde019e7a17fb07b4582b7,676192165fb32c2e1fb7aee6,67d1ad910484ed80b86a1a6d,2025-03-12_11h52.12.642,Tarea de decisión léxica,2024.2.5,Win32,59.88023952,,,,,,,,,,,,,,,,,,,,,,,,408.896,410.3752,l,1,0.8026,,0.8026,1,410.3756,410.8753,,,,,,419,MAS,WORD,DIS,150,truco,,la,,410.8754,410.8758,0.433333362,-0.01666666,0,0,0,,0,97,97,418,1,chudo,,,,
,,,,,,67bde019e7a17fb07b4582b7,676192165fb32c2e1fb7aee6,67d1ad910484ed80b86a1a6d,2025-03-12_11h52.12.642,Tarea de decisión léxica,2024.2.5,Win32,59.88023952,,,,,,,,,,,,,,,,,,,,,,,,410.8792,412.1417,a,1,0.5883,,0.5883,1,412.142,412.6424,,,,,,254,MAS,NOWORD,AGR,150,trido,,el,,412.6466,412.6486,0.433333362,-0.01666666,0,0,0,,0,98,98,253,1,chico,,,,
,,,,,,67bde019e7a17fb07b4582b7,676192165fb32c2e1fb7aee6,67d1ad910484ed80b86a1a6d,2025-03-12_11h52.12.642,Tarea de decisión léxica,2024.2.5,Win32,59.88023952,,,,,,,,,,,,,,,,,,,,,,,,412.6506,414.0916,a,1,0.7739,,0.7739,1,414.0919,414.5917,,,,,,148,FEM,NOWORD,DIS,150,pama,,el,,414.5919,414.5922,0.433333362,-0.01666666,0,0,0,,0,99,99,147,1,hoja,,,,
,,,,,,67bde019e7a17fb07b4582b7,676192165fb32c2e1fb7aee6,67d1ad910484ed80b86a1a6d,2025-03-12_11h52.12.642,Tarea de decisión léxica,2024.2.5,Win32,59.88023952,,,,,,,,,,,,,,,,,,,,,,,,414.5955,415.8585,a,1,0.5836,,0.5836,1,415.8589,416.3593,,,,,,414,FEM,NOWORD,AGR,150,bieda,,la,,416.3597,416.3604,0.433333362,-0.01666666,0,0,0,,0,100,100,413,1,rueda,,,,
,,,,,,67bde019e7a17fb07b4582b7,676192165fb32c2e1fb7aee6,67d1ad910484ed80b86a1a6d,2025-03-12_11h52.12.642,Tarea de decisión léxica,2024.2.5,Win32,59.88023952,,,,,,,,,,,,,,,,,,,,,,,,416.3638,417.4417,a,1,0.4048,,0.4048,1,417.4421,417.9419,,,,,,74,MAS,NOWORD,AGR,150,omio,,el,,417.9422,417.9424,0.433333362,-0.01666666,0,0,0,,0,101,101,73,1,odio,,,,
,,,,,,67bde019e7a17fb07b4582b7,676192165fb32c2e1fb7aee6,67d1ad910484ed80b86a1a6d,2025-03-12_11h52.12.642,Tarea de decisión léxica,2024.2.5,Win32,59.88023952,,,,,,,,,,,,,,,,,,,,,,,,417.947,419.0919,l,1,0.4677,,0.4677,1,419.0922,419.5916,,,,,,331,MAS,WORD,DIS,150,éxito,,la,,419.5919,419.5923,0.433333362,-0.01666666,0,0,0,,0,102,102,330,1,erato,,,,
,,,,,,67bde019e7a17fb07b4582b7,676192165fb32c2e1fb7aee6,67d1ad910484ed80b86a1a6d,2025-03-12_11h52.12.642,Tarea de decisión léxica,2024.2.5,Win32,59.88023952,,,,,,,,,,,,,,,,,,,,,,,,419.5961,420.7417,a,1,0.4671,,0.4671,1,420.742,421.2419,,,,,,162,MAS,NOWORD,AGR,150,bopo,,el,,421.2457,421.2478,0.433333362,-0.01666666,0,0,0,,0,103,103,161,1,coro,,,,
,,,,,,67bde019e7a17fb07b4582b7,676192165fb32c2e1fb7aee6,67d1ad910484ed80b86a1a6d,2025-03-12_11h52.12.642,Tarea de decisión léxica,2024.2.5,Win32,59.88023952,,,,,,,,,,,,,,,,,,,,,,,,421.2498,422.4749,a,1,0.5581,,0.5581,1,422.4756,422.9748,,,,,,304,MAS,NOWORD,DIS,150,lanco,,la,,422.9751,422.9755,0.433333362,-0.01666666,0,0,0,,0,104,104,303,1,barco,,,,
,,,,,,67bde019e7a17fb07b4582b7,676192165fb32c2e1fb7aee6,67d1ad910484ed80b86a1a6d,2025-03-12_11h52.12.642,Tarea de decisión léxica,2024.2.5,Win32,59.88023952,,,,,,,,,,,,,,,,,,,,,,,,422.9786,424.2417,a,1,0.585,,0.585,1,424.2421,424.7417,,,,,,130,MAS,NOWORD,AGR,150,pima,,el,,424.7418,424.7421,0.433333362,-0.01666666,0,0,0,,0,105,105,129,1,oído,,,,
,,,,,,67bde019e7a17fb07b4582b7,676192165fb32c2e1fb7aee6,67d1ad910484ed80b86a1a6d,2025-03-12_11h52.12.642,Tarea de decisión léxica,2024.2.5,Win32,59.88023952,,,,,,,,,,,,,,,,,,,,,,,,424.7454,425.8913,l,1,0.4707,,0.4707,1,425.892,426.3915,,,,,,385,FEM,WORD,AGR,150,letra,,la,,426.3917,426.3921,0.433333362,-0.01666666,0,0,0,,0,106,106,384,1,febra,,,,
,,,,,,67bde019e7a17fb07b4582b7,676192165fb32c2e1fb7aee6,67d1ad910484ed80b86a1a6d,2025-03-12_11h52.12.642,Tarea de decisión léxica,2024.2.5,Win32,59.88023952,,,,,,,,,,,,,,,,,,,,,,,,426.3953,427.4914,a,1,0.4181,,0.4181,1,427.4917,427.9913,,,,,,216,FEM,NOWORD,DIS,150,raua,,el,,427.9955,427.9974,0.433333362,-0.01666666,0,0,0,,0,107,107,215,1,raíz,,,,
,,,,,,67bde019e7a17fb07b4582b7,676192165fb32c2e1fb7aee6,67d1ad910484ed80b86a1a6d,2025-03-12_11h52.12.642,Tarea de decisión léxica,2024.2.5,Win32,59.88023952,,,,,,,,,,,,,,,,,,,,,,,,427.9995,429.2412,a,1,0.5678,,0.5678,1,429.2415,429.7412,,,,,,384,FEM,NOWORD,DIS,150,brame,,el,,429.7414,429.7417,0.433333362,-0.01666666,0,0,0,,0,108,108,383,1,frase,,,,
,,,,,,67bde019e7a17fb07b4582b7,676192165fb32c2e1fb7aee6,67d1ad910484ed80b86a1a6d,2025-03-12_11h52.12.642,Tarea de decisión léxica,2024.2.5,Win32,59.88023952,,,,,,,,,,,,,,,,,,,,,,,,429.7449,431.1907,l,1,0.7725,,0.7725,1,431.191,431.6909,,,,,,195,FEM,WORD,DIS,150,tela,,el,,431.6912,431.6916,0.433333362,-0.01666666,0,0,0,,0,109,109,194,1,sira,,,,
,,,,,,67bde019e7a17fb07b4582b7,676192165fb32c2e1fb7aee6,67d1ad910484ed80b86a1a6d,2025-03-12_11h52.12.642,Tarea de decisión léxica,2024.2.5,Win32,59.88023952,,,,,,,,,,,,,,,,,,,,,,,,431.695,432.9239,a,1,0.5526,,0.5526,1,432.9243,433.4247,,,,,,96,FEM,NOWORD,DIS,151,neda,,el,,433.4248,433.4253,0.433333362,-0.01666666,0,0,0,,0,110,110,95,1,moda,,,,
,,,,,,67bde019e7a17fb07b4582b7,676192165fb32c2e1fb7aee6,67d1ad910484ed80b86a1a6d,2025-03-12_11h52.12.642,Tarea de decisión léxica,2024.2.5,Win32,59.88023952,,,,,,,,,,,,,,,,,,,,,,,,433.4285,434.557,a,1,0.4549,,0.4549,1,434.5573,435.0571,,,,,,138,MAS,NOWORD,AGR,150,pamo,,el,,435.0573,435.0577,0.433333362,-0.01666666,0,0,0,,0,111,111,137,1,nene,,,,
,,,,,,67bde019e7a17fb07b4582b7,676192165fb32c2e1fb7aee6,67d1ad910484ed80b86a1a6d,2025-03-12_11h52.12.642,Tarea de decisión léxica,2024.2.5,Win32,59.88023952,,,,,,,,,,,,,,,,,,,,,,,,435.0612,436.1895,l,1,0.458,,0.458,1,436.1896,436.6907,,,,,,391,MAS,WORD,DIS,150,dueño,,la,,436.6946,436.6964,0.433333362,-0.01666666,0,0,0,,0,112,112,390,1,dievo,,,,
,,,,,,67bde019e7a17fb07b4582b7,676192165fb32c2e1fb7aee6,67d1ad910484ed80b86a1a6d,2025-03-12_11h52.12.642,Tarea de decisión léxica,2024.2.5,Win32,59.88023952,,,,,,,,,,,,,,,,,,,,,,,,436.6982,438.0407,a,1,0.6677,,0.6677,1,438.041,438.541,,,,,,164,FEM,NOWORD,DIS,150,laga,,el,,438.5412,438.5416,0.433333362,-0.01666666,0,0,0,,0,113,113,163,1,fama,,,,
,,,,,,67bde019e7a17fb07b4582b7,676192165fb32c2e1fb7aee6,67d1ad910484ed80b86a1a6d,2025-03-12_11h52.12.642,Tarea de decisión léxica,2024.2.5,Win32,59.88023952,,,,,,,,,,,,,,,,,,,,,,,,438.5448,439.6404,a,1,0.4231,,0.4231,1,439.6408,440.1404,,,,,,124,FEM,NOWORD,DIS,150,maba,,el,,440.1406,440.1409,0.433333362,-0.01666666,0,0,0,,0,114,114,123,1,flor,,,,
,,,,,,67bde019e7a17fb07b4582b7,676192165fb32c2e1fb7aee6,67d1ad910484ed80b86a1a6d,2025-03-12_11h52.12.642,Tarea de decisión léxica,2024.2.5,Win32,59.88023952,,,,,,,,,,,,,,,,,,,,,,,,440.1441,441.34,a,1,0.5223,,0.5223,1,441.3404,441.8409,,,,,,114,FEM,NOWORD,AGR,150,tada,,la,,441.841,441.8416,0.433333362,-0.01666666,0,0,0,,0,115,115,113,1,miel,,,,
,,,,,,67bde019e7a17fb07b4582b7,676192165fb32c2e1fb7aee6,67d1ad910484ed80b86a1a6d,2025-03-12_11h52.12.642,Tarea de decisión léxica,2024.2.5,Win32,59.88023952,,,,,,,,,,,,,,,,,,,,,,,,441.8447,442.9237,l,1,0.4008,,0.4008,1,442.924,443.4237,,,,,,351,MAS,WORD,DIS,150,vuelo,,la,,443.4238,443.4242,0.433333362,-0.01666666,0,0,0,,0,116,116,350,1,duepo,,,,
,,,,,,67bde019e7a17fb07b4582b7,676192165fb32c2e1fb7aee6,67d1ad910484ed80b86a1a6d,2025-03-12_11h52.12.642,Tarea de decisión léxica,2024.2.5,Win32,59.88023952,,,,,,,,,,,,,,,,,,,,,,,,443.4273,444.4926,a,1,0.3938,,0.3938,1,444.4928,444.99,,,,,,184,FEM,NOWORD,DIS,150,raad,,el,,444.9937,444.9957,0.433333362,-0.01666666,0,0,0,,0,117,117,183,1,raya,,,,
,,,,,,67bde019e7a17fb07b4582b7,676192165fb32c2e1fb7aee6,67d1ad910484ed80b86a1a6d,2025-03-12_11h52.12.642,Tarea de decisión léxica,2024.2.5,Win32,59.88023952,,,,,,,,,,,,,,,,,,,,,,,,444.9976,445.9569,a,1,0.2839,,0.2839,1,445.9572,446.4565,,,,,,156,FEM,NOWORD,DIS,150,luma,,el,,446.4568,446.4571,0.433333362,-0.01666666,0,0,0,,0,118,118,155,1,fuga,,,,
,,,,,,67bde019e7a17fb07b4582b7,676192165fb32c2e1fb7aee6,67d1ad910484ed80b86a1a6d,2025-03-12_11h52.12.642,Tarea de decisión léxica,2024.2.5,Win32,59.88023952,,,,,,,,,,,,,,,,,,,,,,,,446.4607,447.473,l,1,0.3369,,0.3369,1,447.4732,447.9731,,,,,,29,MAS,WORD,AGR,150,modo,,el,,447.9734,447.9739,0.433333362,-0.01666666,0,0,0,,0,119,119,28,1,pono,,,,
,,,,,,67bde019e7a17fb07b4582b7,676192165fb32c2e1fb7aee6,67d1ad910484ed80b86a1a6d,2025-03-12_11h52.12.642,Tarea de decisión léxica,2024.2.5,Win32,59.88023952,,,,,,,,,,,,,,,,,,,,,,,,447.9774,449.1068,l,1,0.4521,,0.4521,1,449.1071,449.6069,,,,,,91,FEM,WORD,DIS,150,taza,,el,,449.6071,449.6074,0.433333362,-0.01666666,0,0,0,,0,120,120,90,1,sava,,,,
,,,,,,67bde019e7a17fb07b4582b7,676192165fb32c2e1fb7aee6,67d1ad910484ed80b86a1a6d,2025-03-12_11h52.12.642,Tarea de decisión léxica,2024.2.5,Win32,59.88023952,,,,,,,,,,,,,,,,,,,,,,,,449.6109,450.7068,l,1,0.4175,,0.4175,1,450.7071,451.2069,,,,,,201,FEM,WORD,AGR,150,cuna,,la,,451.2071,451.2075,0.433333362,-0.01666666,0,0,0,,0,121,121,200,1,cusa,,,,
,,,,,,67bde019e7a17fb07b4582b7,676192165fb32c2e1fb7aee6,67d1ad910484ed80b86a1a6d,2025-03-12_11h52.12.642,Tarea de decisión léxica,2024.2.5,Win32,59.88023952,,,,,,,,,,,,,,,,,,,,,,,,451.2108,452.2732,l,1,0.3849,,0.3849,1,452.2736,452.7732,,,,,,427,FEM,WORD,DIS,150,oreja,,el,,452.7774,452.7792,0.433333362,-0.01666666,0,0,0,,0,122,122,426,1,oseva,,,,
,,,,,,67bde019e7a17fb07b4582b7,676192165fb32c2e1fb7aee6,67d1ad910484ed80b86a1a6d,2025-03-12_11h52.12.642,Tarea de decisión léxica,2024.2.5,Win32,59.88023952,,,,,,,,,,,,,,,,,,,,,,,,452.781,453.9393,a,0,0.4842,,0.4842,0,453.9424,454.4398,,,,,,15,FEM,WORD,DIS,150,idea,,el,,454.44,454.4405,0.433333362,-0.01666666,0,0,0,,0,123,123,14,1,odea,,,,
,,,,,,67bde019e7a17fb07b4582b7,676192165fb32c2e1fb7aee6,67d1ad910484ed80b86a1a6d,2025-03-12_11h52.12.642,Tarea de decisión léxica,2024.2.5,Win32,59.88023952,,,,,,,,,,,,,,,,,,,,,,,,454.4444,455.6902,a,1,0.5748,,0.5748,1,455.6932,456.1897,,,,,,274,FEM,NOWORD,AGR,150,frosa,,la,,456.1899,456.1904,0.433333362,-0.01666666,0,0,0,,0,124,124,273,1,broma,,,,
,,,,,,67bde019e7a17fb07b4582b7,676192165fb32c2e1fb7aee6,67d1ad910484ed80b86a1a6d,2025-03-12_11h52.12.642,Tarea de decisión léxica,2024.2.5,Win32,59.88023952,,,,,,,,,,,,,,,,,,,,,,,,456.1937,457.2729,l,1,0.4035,,0.4035,1,457.2733,457.7726,,,,,,93,FEM,WORD,AGR,150,bola,,la,,457.7728,457.7732,0.433333362,-0.01666666,0,0,0,,0,125,125,92,1,rona,,,,
,,,,,,67bde019e7a17fb07b4582b7,676192165fb32c2e1fb7aee6,67d1ad910484ed80b86a1a6d,2025-03-12_11h52.12.642,Tarea de decisión léxica,2024.2.5,Win32,59.88023952,,,,,,,,,,,,,,,,,,,,,,,,457.7764,458.9399,l,1,0.486,,0.486,1,458.9403,459.4391,,,,,,345,FEM,WORD,AGR,150,arena,,la,,459.4393,459.4397,0.433333362,-0.01666666,0,0,0,,0,126,126,344,1,anera,,,,
,,,,,,67bde019e7a17fb07b4582b7,676192165fb32c2e1fb7aee6,67d1ad910484ed80b86a1a6d,2025-03-12_11h52.12.642,Tarea de decisión léxica,2024.2.5,Win32,59.88023952,,,,,,,,,,,,,,,,,,,,,,,,459.443,460.6395,l,1,0.5184,,0.5184,1,460.6398,461.1393,,,,,,213,FEM,WORD,AGR,150,rama,,la,,461.1434,461.1452,0.433333362,-0.01666666,0,0,0,,0,127,127,212,1,bana,,,,
,,,,,,67bde019e7a17fb07b4582b7,676192165fb32c2e1fb7aee6,67d1ad910484ed80b86a1a6d,2025-03-12_11h52.12.642,Tarea de decisión léxica,2024.2.5,Win32,59.88023952,,,,,,,,,,,,,,,,,,,,,,,,461.147,462.3555,a,1,0.5403,,0.5403,1,462.3559,462.8559,,,,,,180,MAS,NOWORD,DIS,150,sono,,la,,462.8561,462.8565,0.433333362,-0.01666666,0,0,0,,0,128,128,179,1,toro,,,,
,,,,,,67bde019e7a17fb07b4582b7,676192165fb32c2e1fb7aee6,67d1ad910484ed80b86a1a6d,2025-03-12_11h52.12.642,Tarea de decisión léxica,2024.2.5,Win32,59.88023952,,,,,,,,,,,,,,,,,,,,,,,,462.8598,464.1228,a,1,0.5844,,0.5844,1,464.1231,464.6225,,,,,,6,FEM,NOWORD,AGR,150,poga,,la,,464.6227,464.623,0.433333362,-0.01666666,0,0,0,,0,129,129,5,1,cosa,,,,
,,,,,,67bde019e7a17fb07b4582b7,676192165fb32c2e1fb7aee6,67d1ad910484ed80b86a1a6d,2025-03-12_11h52.12.642,Tarea de decisión léxica,2024.2.5,Win32,59.88023952,,,,,,,,,,,,,,,,,,,,,,,,464.6261,465.7886,a,0,0.4863,,0.4863,0,465.7918,466.2884,,,,,,97,MAS,WORD,AGR,150,mono,,el,,466.2885,466.289,0.433333362,-0.01666666,0,0,0,,0,130,130,96,1,fopo,,,,
,,,,,,67bde019e7a17fb07b4582b7,676192165fb32c2e1fb7aee6,67d1ad910484ed80b86a1a6d,2025-03-12_11h52.12.642,Tarea de decisión léxica,2024.2.5,Win32,59.88023952,,,,,,,,,,,,,,,,,,,,,,,,466.2923,467.5225,l,0,0.551,,0.551,0,467.5232,468.0222,,,,,,424,MAS,NOWORD,DIS,150,quigo,,la,,468.0264,468.0283,0.433333362,-0.01666666,0,0,0,,0,131,131,423,1,queso,,,,
,,,,,,67bde019e7a17fb07b4582b7,676192165fb32c2e1fb7aee6,67d1ad910484ed80b86a1a6d,2025-03-12_11h52.12.642,Tarea de decisión léxica,2024.2.5,Win32,59.88023952,,,,,,,,,,,,,,,,,,,,,,,,468.0305,469.5389,a,1,0.8358,,0.8358,1,469.5419,470.0391,,,,,,324,FEM,NOWORD,DIS,150,certa,,el,,470.0393,470.0397,0.433333362,-0.01666666,0,0,0,,0,132,132,323,1,cinta,,,,
,,,,,,67bde019e7a17fb07b4582b7,676192165fb32c2e1fb7aee6,67d1ad910484ed80b86a1a6d,2025-03-12_11h52.12.642,Tarea de decisión léxica,2024.2.5,Win32,59.88023952,,,,,,,,,,,,,,,,,,,,,,,,470.0428,471.2055,a,1,0.4844,,0.4844,1,471.2057,471.7048,,,,,,356,FEM,NOWORD,DIS,150,bepla,,el,,471.705,471.7053,0.433333362,-0.01666666,0,0,0,,0,133,133,355,1,regla,,,,
,,,,,,67bde019e7a17fb07b4582b7,676192165fb32c2e1fb7aee6,67d1ad910484ed80b86a1a6d,2025-03-12_11h52.12.642,Tarea de decisión léxica,2024.2.5,Win32,59.88023952,,,,,,,,,,,,,,,,,,,,,,,,471.7085,472.9053,a,1,0.5191,,0.5191,1,472.9056,473.4053,,,,,,374,FEM,NOWORD,AGR,150,pogza,,la,,473.4054,473.4058,0.433333362,-0.01666666,0,0,0,,0,134,134,373,1,pizza,,,,
,,,,,,67bde019e7a17fb07b4582b7,676192165fb32c2e1fb7aee6,67d1ad910484ed80b86a1a6d,2025-03-12_11h52.12.642,Tarea de decisión léxica,2024.2.5,Win32,59.88023952,,,,,,,,,,,,,,,,,,,,,,,,473.4089,474.9217,a,1,0.8418,,0.8418,1,474.9221,475.4213,,,,,,158,MAS,NOWORD,AGR,150,hico,,el,,475.4215,475.4219,0.433333362,-0.01666666,0,0,0,,0,135,135,157,1,nido,,,,
,,,,,,67bde019e7a17fb07b4582b7,676192165fb32c2e1fb7aee6,67d1ad910484ed80b86a1a6d,2025-03-12_11h52.12.642,Tarea de decisión léxica,2024.2.5,Win32,59.88023952,,,,,,,,,,,,,,,,,,,,,,,,475.4257,476.6047,l,1,0.5041,,0.5041,1,476.605,477.1049,,,,,,103,FEM,WORD,DIS,150,ruta,,el,,477.1094,477.1111,0.433333362,-0.01666666,0,0,0,,0,136,136,102,1,rova,,,,
,,,,,,67bde019e7a17fb07b4582b7,676192165fb32c2e1fb7aee6,67d1ad910484ed80b86a1a6d,2025-03-12_11h52.12.642,Tarea de decisión léxica,2024.2.5,Win32,59.88023952,,,,,,,,,,,,,,,,,,,,,,,,477.113,478.6225,a,1,0.8419,,0.8419,1,478.623,479.1216,,,,,,244,MAS,NOWORD,DIS,150,asamo,,la,,479.1218,479.1222,0.433333362,-0.01666666,0,0,0,,0,137,137,243,1,amigo,,,,
,,,,,,67bde019e7a17fb07b4582b7,676192165fb32c2e1fb7aee6,67d1ad910484ed80b86a1a6d,2025-03-12_11h52.12.642,Tarea de decisión léxica,2024.2.5,Win32,59.88023952,,,,,,,,,,,,,,,,,,,,,,,,479.1255,480.2379,l,1,0.4341,,0.4341,1,480.2383,480.7383,,,,,,461,FEM,WORD,AGR,150,tabla,,la,,480.7384,480.7391,0.433333362,-0.01666666,0,0,0,,0,138,138,460,1,pagra,,,,
,,,,,,67bde019e7a17fb07b4582b7,676192165fb32c2e1fb7aee6,67d1ad910484ed80b86a1a6d,2025-03-12_11h52.12.642,Tarea de decisión léxica,2024.2.5,Win32,59.88023952,,,,,,,,,,,,,,,,,,,,,,,,480.7425,482.0033,l,1,0.5842,,0.5842,1,482.0033,482.5035,,,,,,377,MAS,WORD,AGR,150,hielo,,el,,482.5035,482.5037,0.433333362,-0.01666666,0,0,0,,0,139,139,376,1,gaulo,,,,
,,,,,,67bde019e7a17fb07b4582b7,676192165fb32c2e1fb7aee6,67d1ad910484ed80b86a1a6d,2025-03-12_11h52.12.642,Tarea de decisión léxica,2024.2.5,Win32,59.88023952,,,,,,,,,,,,,,,,,,,,,,,,482.5072,483.6543,a,1,0.4687,,0.4687,1,483.6547,484.1542,,,,,,222,FEM,NOWORD,AGR,150,puca,,la,,484.1545,484.1548,0.433333362,-0.01666666,0,0,0,,0,140,140,221,1,mula,,,,
,,,,,,67bde019e7a17fb07b4582b7,676192165fb32c2e1fb7aee6,67d1ad910484ed80b86a1a6d,2025-03-12_11h52.12.642,Tarea de decisión léxica,2024.2.5,Win32,59.88023952,,,,,,,,,,,,,,,,,,,,,,,,484.1579,485.3047,a,1,0.4689,,0.4689,1,485.305,485.8046,,,,,,98,MAS,NOWORD,AGR,150,fopo,,el,,485.8089,485.8107,0.433333362,-0.01666666,0,0,0,,0,141,141,97,1,mono,,,,
,,,,,,67bde019e7a17fb07b4582b7,676192165fb32c2e1fb7aee6,67d1ad910484ed80b86a1a6d,2025-03-12_11h52.12.642,Tarea de decisión léxica,2024.2.5,Win32,59.88023952,,,,,,,,,,,,,,,,,,,,,,,,485.8127,487.0707,a,1,0.587,,0.587,1,487.0711,487.571,,,,,,226,MAS,NOWORD,AGR,150,boco,,el,,487.5712,487.5715,0.433333362,-0.01666666,0,0,0,,0,142,142,225,1,lodo,,,,
,,,,,,67bde019e7a17fb07b4582b7,676192165fb32c2e1fb7aee6,67d1ad910484ed80b86a1a6d,2025-03-12_11h52.12.642,Tarea de decisión léxica,2024.2.5,Win32,59.88023952,,,,,,,,,,,,,,,,,,,,,,,,487.575,488.6707,l,1,0.417,,0.417,1,488.671,489.1708,,,,,,381,MAS,WORD,AGR,150,humor,,el,,489.171,489.1713,0.433333362,-0.01666666,0,0,0,,0,143,143,380,1,nusor,,,,
,,,,,,67bde019e7a17fb07b4582b7,676192165fb32c2e1fb7aee6,67d1ad910484ed80b86a1a6d,2025-03-12_11h52.12.642,Tarea de decisión léxica,2024.2.5,Win32,59.88023952,,,,,,,,,,,,,,,,,,,,,,,,489.1746,490.3378,l,1,0.4852,,0.4852,1,490.3381,490.838,,,,,,33,FEM,WORD,AGR,150,boca,,la,,490.8382,490.8388,0.433333362,-0.01666666,0,0,0,,0,144,144,32,1,loda,,,,
,,,,,,67bde019e7a17fb07b4582b7,676192165fb32c2e1fb7aee6,67d1ad910484ed80b86a1a6d,2025-03-12_11h52.12.642,Tarea de decisión léxica,2024.2.5,Win32,59.88023952,,,,,,,,,,,,,,,,,,,,,,,,490.8419,492.1206,l,1,0.6026,,0.6026,1,492.121,492.6208,,,,,,287,FEM,WORD,DIS,150,lista,,el,,492.6209,492.6213,0.433333362,-0.01666666,0,0,0,,0,145,145,286,1,fosta,,,,
,,,,,,67bde019e7a17fb07b4582b7,676192165fb32c2e1fb7aee6,67d1ad910484ed80b86a1a6d,2025-03-12_11h52.12.642,Tarea de decisión léxica,2024.2.5,Win32,59.88023952,,,,,,,,,,,,,,,,,,,,,,,,492.6249,493.7368,a,1,0.4392,,0.4392,1,493.7371,494.2373,,,,,,32,FEM,NOWORD,DIS,150,bova,,el,,494.2409,494.2427,0.433333362,-0.01666666,0,0,0,,0,146,146,31,1,ropa,,,,
,,,,,,67bde019e7a17fb07b4582b7,676192165fb32c2e1fb7aee6,67d1ad910484ed80b86a1a6d,2025-03-12_11h52.12.642,Tarea de decisión léxica,2024.2.5,Win32,59.88023952,,,,,,,,,,,,,,,,,,,,,,,,494.2445,495.7373,a,1,0.8255,,0.8255,1,495.7377,496.2373,,,,,,336,FEM,NOWORD,DIS,150,pesta,,el,,496.2374,496.2378,0.433333362,-0.01666666,0,0,0,,0,147,147,335,1,costa,,,,
,,,,,,67bde019e7a17fb07b4582b7,676192165fb32c2e1fb7aee6,67d1ad910484ed80b86a1a6d,2025-03-12_11h52.12.642,Tarea de decisión léxica,2024.2.5,Win32,59.88023952,,,,,,,,,,,,,,,,,,,,,,,,496.2411,497.4374,a,0,0.5186,,0.5186,0,497.4402,497.9366,,,,,,299,FEM,WORD,DIS,150,bolsa,,el,,497.9368,497.9372,0.433333362,-0.01666666,0,0,0,,0,148,148,298,1,bosga,,,,
,,,,,,67bde019e7a17fb07b4582b7,676192165fb32c2e1fb7aee6,67d1ad910484ed80b86a1a6d,2025-03-12_11h52.12.642,Tarea de decisión léxica,2024.2.5,Win32,59.88023952,,,,,,,,,,,,,,,,,,,,,,,,497.9405,499.1373,a,0,0.5255,,0.5255,0,499.1377,499.6371,,,,,,441,FEM,WORD,AGR,150,selva,,la,,499.6373,499.6377,0.433333362,-0.01666666,0,0,0,,0,149,149,440,1,telza,,,,
,,,,,,67bde019e7a17fb07b4582b7,676192165fb32c2e1fb7aee6,67d1ad910484ed80b86a1a6d,2025-03-12_11h52.12.642,Tarea de decisión léxica,2024.2.5,Win32,59.88023952,,,,,,,,,,,,,,,,,,,,,,,,499.641,501.0704,a,0,0.751,,0.751,0,501.0707,501.5702,,,,,,353,FEM,WORD,AGR,150,celda,,la,,501.5705,501.5707,0.433333362,-0.01666666,0,0,0,,0,150,150,352,1,cezca,,,,
,,,,,,67bde019e7a17fb07b4582b7,676192165fb32c2e1fb7aee6,67d1ad910484ed80b86a1a6d,2025-03-12_11h52.12.642,Tarea de decisión léxica,2024.2.5,Win32,59.88023952,,,,,,,,,,,,,,,,,,,,,,,,501.5741,502.92,l,1,0.6675,,0.6675,1,502.9233,503.4202,,,,,,407,FEM,WORD,DIS,150,cueva,,el,,503.4247,503.4269,0.433333362,-0.01666666,0,0,0,,0,151,151,406,1,cauba,,,,
,,,,,,67bde019e7a17fb07b4582b7,676192165fb32c2e1fb7aee6,67d1ad910484ed80b86a1a6d,2025-03-12_11h52.12.642,Tarea de decisión léxica,2024.2.5,Win32,59.88023952,,,,,,,,,,,,,,,,,,,,,,,,503.4291,505.0036,a,1,0.9029,,0.9029,1,505.004,505.503,,,,,,402,MAS,NOWORD,AGR,150,pirvo,,el,,505.5032,505.5035,0.433333362,-0.01666666,0,0,0,,0,152,152,401,1,polvo,,,,
,,,,,,67bde019e7a17fb07b4582b7,676192165fb32c2e1fb7aee6,67d1ad910484ed80b86a1a6d,2025-03-12_11h52.12.642,Tarea de decisión léxica,2024.2.5,Win32,59.88023952,,,,,,,,,,,,,,,,,,,,,,,,505.5069,506.9527,a,1,0.7742,,0.7742,1,506.9532,507.452,,,,,,140,MAS,NOWORD,DIS,150,nila,,la,,507.452,507.452,0.433333362,-0.01666666,0,0,0,,0,153,153,139,1,mago,,,,
,,,,,,67bde019e7a17fb07b4582b7,676192165fb32c2e1fb7aee6,67d1ad910484ed80b86a1a6d,2025-03-12_11h52.12.642,Tarea de decisión léxica,2024.2.5,Win32,59.88023952,,,,,,,,,,,,,,,,,,,,,,,,507.4549,509.0029,l,0,0.8857,,0.8857,0,509.0059,509.5025,,,,,,262,MAS,NOWORD,AGR,150,titio,,el,,509.5027,509.5033,0.433333362,-0.01666666,0,0,0,,0,154,154,261,1,sitio,,,,
,,,,,,67bde019e7a17fb07b4582b7,676192165fb32c2e1fb7aee6,67d1ad910484ed80b86a1a6d,2025-03-12_11h52.12.642,Tarea de decisión léxica,2024.2.5,Win32,59.88023952,,,,,,,,,,,,,,,,,,,,,,,,509.5065,510.8882,a,1,0.7062,,0.7062,1,510.8918,511.3865,,,,,,412,MAS,NOWORD,DIS,150,mobro,,la,,511.3906,511.3928,0.433333362,-0.01666666,0,0,0,,0,155,155,411,1,pollo,,,,
,,,,,,67bde019e7a17fb07b4582b7,676192165fb32c2e1fb7aee6,67d1ad910484ed80b86a1a6d,2025-03-12_11h52.12.642,Tarea de decisión léxica,2024.2.5,Win32,59.88023952,,,,,,,,,,,,,,,,,,,,,,,,511.395,512.4863,l,1,0.4194,,0.4194,1,512.4867,512.9865,,,,,,429,FEM,WORD,AGR,150,tarta,,la,,512.987,512.9877,0.433333362,-0.01666666,0,0,0,,0,156,156,428,1,tenta,,,,
,,,,,,67bde019e7a17fb07b4582b7,676192165fb32c2e1fb7aee6,67d1ad910484ed80b86a1a6d,2025-03-12_11h52.12.642,Tarea de decisión léxica,2024.2.5,Win32,59.88023952,,,,,,,,,,,,,,,,,,,,,,,,512.9909,514.0857,l,1,0.4213,,0.4213,1,514.0863,514.5861,,,,,,229,MAS,WORD,AGR,150,amor,,el,,514.5864,514.5867,0.433333362,-0.01666666,0,0,0,,0,157,157,228,1,ador,,,,
,,,,,,67bde019e7a17fb07b4582b7,676192165fb32c2e1fb7aee6,67d1ad910484ed80b86a1a6d,2025-03-12_11h52.12.642,Tarea de decisión léxica,2024.2.5,Win32,59.88023952,,,,,,,,,,,,,,,,,,,,,,,,514.5906,515.7026,l,1,0.4359,,0.4359,1,515.703,516.2026,,,,,,275,MAS,WORD,DIS,150,punto,,la,,516.2028,516.2031,0.433333362,-0.01666666,0,0,0,,0,158,158,274,1,musto,,,,
,,,,,,67bde019e7a17fb07b4582b7,676192165fb32c2e1fb7aee6,67d1ad910484ed80b86a1a6d,2025-03-12_11h52.12.642,Tarea de decisión léxica,2024.2.5,Win32,59.88023952,,,,,,,,,,,,,,,,,,,,,,,,516.2065,517.3858,a,1,0.5012,,0.5012,1,517.3861,517.8859,,,,,,248,FEM,NOWORD,DIS,150,trida,,el,,517.8862,517.8867,0.433333362,-0.01666666,0,0,0,,0,159,159,247,1,chica,,,,
,,,,,,67bde019e7a17fb07b4582b7,676192165fb32c2e1fb7aee6,67d1ad910484ed80b86a1a6d,2025-03-12_11h52.12.642,Tarea de decisión léxica,2024.2.5,Win32,59.88023952,,,,,,,,,,,,,,,,,,,,,,,,517.8905,519.2184,l,1,0.6527,,0.6527,1,519.2187,519.7193,,,,,,455,MAS,WORD,DIS,150,reino,,la,,519.7244,551.1503,0.433333362,-0.01666666,0,0,0,space,0,160,160,454,1,riaso,31.3769,,,
,,,,,,67bde019e7a17fb07b4582b7,676192165fb32c2e1fb7aee6,67d1ad910484ed80b86a1a6d,2025-03-12_11h52.12.642,Tarea de decisión léxica,2024.2.5,Win32,59.88023952,,,,,,,,,,,,,,,,,,,,,,,,551.1534,552.517,a,1,0.684,,0.684,1,552.5171,553.0166,,,,,,34,FEM,NOWORD,AGR,150,loda,,la,,553.0167,553.0169,0.433333362,-0.01666666,0,0,0,,0,161,161,33,1,boca,,,,
,,,,,,67bde019e7a17fb07b4582b7,676192165fb32c2e1fb7aee6,67d1ad910484ed80b86a1a6d,2025-03-12_11h52.12.642,Tarea de decisión léxica,2024.2.5,Win32,59.88023952,,,,,,,,,,,,,,,,,,,,,,,,553.0209,554.4169,a,0,0.7175,,0.7175,0,554.4183,554.9165,,,,,,121,MAS,WORD,AGR,150,hoyo,,el,,554.9166,554.9169,0.433333362,-0.01666666,0,0,0,,0,162,162,120,1,bomo,,,,
,,,,,,67bde019e7a17fb07b4582b7,676192165fb32c2e1fb7aee6,67d1ad910484ed80b86a1a6d,2025-03-12_11h52.12.642,Tarea de decisión léxica,2024.2.5,Win32,59.88023952,,,,,,,,,,,,,,,,,,,,,,,,554.9196,556.0822,l,1,0.4898,,0.4898,1,556.0827,556.5833,,,,,,83,FEM,WORD,DIS,150,bala,,el,,556.5833,556.5836,0.433333362,-0.01666666,0,0,0,,0,163,163,82,1,taga,,,,
,,,,,,67bde019e7a17fb07b4582b7,676192165fb32c2e1fb7aee6,67d1ad910484ed80b86a1a6d,2025-03-12_11h52.12.642,Tarea de decisión léxica,2024.2.5,Win32,59.88023952,,,,,,,,,,,,,,,,,,,,,,,,556.5863,557.8989,a,1,0.6362,,0.6362,1,557.899,558.3996,,,,,,462,FEM,NOWORD,AGR,150,pagra,,la,,558.3996,558.3998,0.433333362,-0.01666666,0,0,0,,0,164,164,461,1,tabla,,,,
,,,,,,67bde019e7a17fb07b4582b7,676192165fb32c2e1fb7aee6,67d1ad910484ed80b86a1a6d,2025-03-12_11h52.12.642,Tarea de decisión léxica,2024.2.5,Win32,59.88023952,,,,,,,,,,,,,,,,,,,,,,,,558.4024,559.6495,a,1,0.5671,,0.5671,1,559.6496,560.1495,,,,,,470,MAS,NOWORD,AGR,150,matia,,el,,560.152,560.1544,0.433333362,-0.01666666,0,0,0,,0,165,165,469,1,patio,,,,
,,,,,,67bde019e7a17fb07b4582b7,676192165fb32c2e1fb7aee6,67d1ad910484ed80b86a1a6d,2025-03-12_11h52.12.642,Tarea de decisión léxica,2024.2.5,Win32,59.88023952,,,,,,,,,,,,,,,,,,,,,,,,560.1561,561.3165,l,1,0.4915,,0.4915,1,561.3167,561.8164,,,,,,61,FEM,WORD,AGR,150,obra,,la,,561.8165,561.8166,0.433333362,-0.01666666,0,0,0,,0,166,166,60,1,efla,,,,
,,,,,,67bde019e7a17fb07b4582b7,676192165fb32c2e1fb7aee6,67d1ad910484ed80b86a1a6d,2025-03-12_11h52.12.642,Tarea de decisión léxica,2024.2.5,Win32,59.88023952,,,,,,,,,,,,,,,,,,,,,,,,561.8192,563.2492,a,1,0.751,,0.751,1,563.2493,563.7486,,,,,,136,MAS,NOWORD,DIS,150,geso,,la,,563.7487,563.7488,0.433333362,-0.01666666,0,0,0,,0,167,167,135,1,tubo,,,,
,,,,,,67bde019e7a17fb07b4582b7,676192165fb32c2e1fb7aee6,67d1ad910484ed80b86a1a6d,2025-03-12_11h52.12.642,Tarea de decisión léxica,2024.2.5,Win32,59.88023952,,,,,,,,,,,,,,,,,,,,,,,,563.7499,565.1317,l,1,0.7023,,0.7023,1,565.1318,565.6327,,,,,,259,MAS,WORD,DIS,150,juego,,la,,565.6329,565.633,0.433333362,-0.01666666,0,0,0,,0,168,168,258,1,jaumo,,,,
,,,,,,67bde019e7a17fb07b4582b7,676192165fb32c2e1fb7aee6,67d1ad910484ed80b86a1a6d,2025-03-12_11h52.12.642,Tarea de decisión léxica,2024.2.5,Win32,59.88023952,,,,,,,,,,,,,,,,,,,,,,,,565.6355,566.8658,a,1,0.5577,,0.5577,1,566.8659,567.3657,,,,,,238,MAS,NOWORD,AGR,150,huco,,el,,567.3658,567.366,0.433333362,-0.01666666,0,0,0,,0,169,169,237,1,nudo,,,,
,,,,,,67bde019e7a17fb07b4582b7,676192165fb32c2e1fb7aee6,67d1ad910484ed80b86a1a6d,2025-03-12_11h52.12.642,Tarea de decisión léxica,2024.2.5,Win32,59.88023952,,,,,,,,,,,,,,,,,,,,,,,,567.3687,568.5658,l,1,0.5174,,0.5174,1,568.566,569.0651,,,,,,247,FEM,WORD,DIS,150,chica,,el,,569.0664,569.0684,0.433333362,-0.01666666,0,0,0,,0,170,170,246,1,trida,,,,
,,,,,,67bde019e7a17fb07b4582b7,676192165fb32c2e1fb7aee6,67d1ad910484ed80b86a1a6d,2025-03-12_11h52.12.642,Tarea de decisión léxica,2024.2.5,Win32,59.88023952,,,,,,,,,,,,,,,,,,,,,,,,569.0697,570.2488,l,1,0.4973,,0.4973,1,570.249,570.7488,,,,,,123,FEM,WORD,DIS,150,flor,,el,,570.7489,570.749,0.433333362,-0.01666666,0,0,0,,0,171,171,122,1,maba,,,,
,,,,,,67bde019e7a17fb07b4582b7,676192165fb32c2e1fb7aee6,67d1ad910484ed80b86a1a6d,2025-03-12_11h52.12.642,Tarea de decisión léxica,2024.2.5,Win32,59.88023952,,,,,,,,,,,,,,,,,,,,,,,,570.7517,571.9648,a,1,0.5344,,0.5344,1,571.9649,572.4655,,,,,,386,FEM,NOWORD,AGR,150,febra,,la,,572.4657,572.4659,0.433333362,-0.01666666,0,0,0,,0,172,172,385,1,letra,,,,
,,,,,,67bde019e7a17fb07b4582b7,676192165fb32c2e1fb7aee6,67d1ad910484ed80b86a1a6d,2025-03-12_11h52.12.642,Tarea de decisión léxica,2024.2.5,Win32,59.88023952,,,,,,,,,,,,,,,,,,,,,,,,572.4686,573.7155,a,1,0.5675,,0.5675,1,573.7156,574.2148,,,,,,20,MAS,NOWORD,DIS,150,himo,,la,,574.2148,574.215,0.433333362,-0.01666666,0,0,0,,0,173,173,19,1,niño,,,,
,,,,,,67bde019e7a17fb07b4582b7,676192165fb32c2e1fb7aee6,67d1ad910484ed80b86a1a6d,2025-03-12_11h52.12.642,Tarea de decisión léxica,2024.2.5,Win32,59.88023952,,,,,,,,,,,,,,,,,,,,,,,,574.2185,575.4986,a,1,0.6006,,0.6006,1,575.4988,575.9989,,,,,,286,MAS,NOWORD,AGR,150,echor,,el,,575.999,575.9992,0.433333362,-0.01666666,0,0,0,,0,174,174,285,1,error,,,,
,,,,,,67bde019e7a17fb07b4582b7,676192165fb32c2e1fb7aee6,67d1ad910484ed80b86a1a6d,2025-03-12_11h52.12.642,Tarea de decisión léxica,2024.2.5,Win32,59.88023952,,,,,,,,,,,,,,,,,,,,,,,,576.0022,577.1143,a,1,0.4376,,0.4376,1,577.1144,577.6152,,,,,,88,MAS,NOWORD,DIS,150,damo,,la,,577.6176,577.62,0.433333362,-0.01666666,0,0,0,,0,175,175,87,1,vaso,,,,
,,,,,,67bde019e7a17fb07b4582b7,676192165fb32c2e1fb7aee6,67d1ad910484ed80b86a1a6d,2025-03-12_11h52.12.642,Tarea de decisión léxica,2024.2.5,Win32,59.88023952,,,,,,,,,,,,,,,,,,,,,,,,577.6218,578.9149,a,1,0.6252,,0.6252,1,578.9151,579.4152,,,,,,376,FEM,NOWORD,DIS,150,sasna,,el,,579.4153,579.4155,0.433333362,-0.01666666,0,0,0,,0,176,176,375,1,salsa,,,,
,,,,,,67bde019e7a17fb07b4582b7,676192165fb32c2e1fb7aee6,67d1ad910484ed80b86a1a6d,2025-03-12_11h52.12.642,Tarea de decisión léxica,2024.2.5,Win32,59.88023952,,,,,,,,,,,,,,,,,,,,,,,,579.4183,580.5983,l,1,0.5008,,0.5008,1,580.5985,581.0978,,,,,,173,FEM,WORD,AGR,150,rosa,,la,,581.0978,581.0979,0.433333362,-0.01666666,0,0,0,,0,177,177,172,1,boma,,,,
,,,,,,67bde019e7a17fb07b4582b7,676192165fb32c2e1fb7aee6,67d1ad910484ed80b86a1a6d,2025-03-12_11h52.12.642,Tarea de decisión léxica,2024.2.5,Win32,59.88023952,,,,,,,,,,,,,,,,,,,,,,,,581.0993,582.2485,a,1,0.4674,,0.4674,1,582.2487,582.7484,,,,,,260,MAS,NOWORD,DIS,150,jaumo,,la,,582.7486,582.7488,0.433333362,-0.01666666,0,0,0,,0,178,178,259,1,juego,,,,
,,,,,,67bde019e7a17fb07b4582b7,676192165fb32c2e1fb7aee6,67d1ad910484ed80b86a1a6d,2025-03-12_11h52.12.642,Tarea de decisión léxica,2024.2.5,Win32,59.88023952,,,,,,,,,,,,,,,,,,,,,,,,582.7517,583.9313,l,1,0.5039,,0.5039,1,583.9314,584.4314,,,,,,241,MAS,WORD,AGR,150,mundo,,el,,584.4361,584.4381,0.433333362,-0.01666666,0,0,0,,0,179,179,240,1,mirdo,,,,
,,,,,,67bde019e7a17fb07b4582b7,676192165fb32c2e1fb7aee6,67d1ad910484ed80b86a1a6d,2025-03-12_11h52.12.642,Tarea de decisión léxica,2024.2.5,Win32,59.88023952,,,,,,,,,,,,,,,,,,,,,,,,584.4399,585.5314,l,1,0.4175,,0.4175,1,585.5315,586.0315,,,,,,307,MAS,WORD,DIS,150,hotel,,la,,586.0315,586.0318,0.433333362,-0.01666666,0,0,0,,0,180,180,306,1,holol,,,,
,,,,,,67bde019e7a17fb07b4582b7,676192165fb32c2e1fb7aee6,67d1ad910484ed80b86a1a6d,2025-03-12_11h52.12.642,Tarea de decisión léxica,2024.2.5,Win32,59.88023952,,,,,,,,,,,,,,,,,,,,,,,,586.0346,587.2311,l,1,0.518,,0.518,1,587.2312,587.7314,,,,,,157,MAS,WORD,AGR,150,nido,,el,,587.7315,587.7317,0.433333362,-0.01666666,0,0,0,,0,181,181,156,1,hico,,,,
,,,,,,67bde019e7a17fb07b4582b7,676192165fb32c2e1fb7aee6,67d1ad910484ed80b86a1a6d,2025-03-12_11h52.12.642,Tarea de decisión léxica,2024.2.5,Win32,59.88023952,,,,,,,,,,,,,,,,,,,,,,,,587.7343,589.0312,l,0,0.6172,,0.6172,0,589.0327,589.5311,,,,,,144,MAS,NOWORD,DIS,150,pezo,,la,,589.5312,589.5314,0.433333362,-0.01666666,0,0,0,,0,182,182,143,1,pavo,,,,
,,,,,,67bde019e7a17fb07b4582b7,676192165fb32c2e1fb7aee6,67d1ad910484ed80b86a1a6d,2025-03-12_11h52.12.642,Tarea de decisión léxica,2024.2.5,Win32,59.88023952,,,,,,,,,,,,,,,,,,,,,,,,589.5342,591.0145,a,1,0.8157,,0.8157,1,591.0159,591.5144,,,,,,332,MAS,NOWORD,DIS,150,erato,,la,,591.5146,591.5148,0.433333362,-0.01666666,0,0,0,,0,183,183,331,1,éxito,,,,
,,,,,,67bde019e7a17fb07b4582b7,676192165fb32c2e1fb7aee6,67d1ad910484ed80b86a1a6d,2025-03-12_11h52.12.642,Tarea de decisión léxica,2024.2.5,Win32,59.88023952,,,,,,,,,,,,,,,,,,,,,,,,591.5179,592.6473,a,0,0.4535,,0.4535,0,592.6489,593.1478,,,,,,393,FEM,WORD,AGR,150,aldea,,la,,593.1507,593.1527,0.433333362,-0.01666666,0,0,0,,0,184,184,392,1,ashea,,,,
,,,,,,67bde019e7a17fb07b4582b7,676192165fb32c2e1fb7aee6,67d1ad910484ed80b86a1a6d,2025-03-12_11h52.12.642,Tarea de decisión léxica,2024.2.5,Win32,59.88023952,,,,,,,,,,,,,,,,,,,,,,,,593.1545,594.3141,l,1,0.4845,,0.4845,1,594.3154,594.8145,,,,,,325,FEM,WORD,AGR,150,magia,,la,,594.8146,594.8148,0.433333362,-0.01666666,0,0,0,,0,185,185,324,1,mabia,,,,
,,,,,,67bde019e7a17fb07b4582b7,676192165fb32c2e1fb7aee6,67d1ad910484ed80b86a1a6d,2025-03-12_11h52.12.642,Tarea de decisión léxica,2024.2.5,Win32,59.88023952,,,,,,,,,,,,,,,,,,,,,,,,594.8173,595.9808,l,1,0.4846,,0.4846,1,595.981,596.4807,,,,,,155,FEM,WORD,DIS,150,fuga,,el,,596.4809,596.4811,0.433333362,-0.01666666,0,0,0,,0,186,186,154,1,luma,,,,
,,,,,,67bde019e7a17fb07b4582b7,676192165fb32c2e1fb7aee6,67d1ad910484ed80b86a1a6d,2025-03-12_11h52.12.642,Tarea de decisión léxica,2024.2.5,Win32,59.88023952,,,,,,,,,,,,,,,,,,,,,,,,596.4841,597.5637,l,1,0.408,,0.408,1,597.5639,598.0635,,,,,,311,MAS,WORD,DIS,150,honor,,la,,598.0636,598.0638,0.433333362,-0.01666666,0,0,0,,0,187,187,310,1,nosor,,,,
,,,,,,67bde019e7a17fb07b4582b7,676192165fb32c2e1fb7aee6,67d1ad910484ed80b86a1a6d,2025-03-12_11h52.12.642,Tarea de decisión léxica,2024.2.5,Win32,59.88023952,,,,,,,,,,,,,,,,,,,,,,,,598.0659,599.0803,l,1,0.3359,,0.3359,1,599.0805,599.5799,,,,,,373,FEM,WORD,AGR,150,pizza,,la,,599.5799,599.5801,0.433333362,-0.01666666,0,0,0,,0,188,188,372,1,pogza,,,,
,,,,,,67bde019e7a17fb07b4582b7,676192165fb32c2e1fb7aee6,67d1ad910484ed80b86a1a6d,2025-03-12_11h52.12.642,Tarea de decisión léxica,2024.2.5,Win32,59.88023952,,,,,,,,,,,,,,,,,,,,,,,,599.5813,600.5476,l,0,0.2845,,0.2845,0,600.5495,601.0469,,,,,,206,FEM,NOWORD,AGR,150,bara,,la,,601.0495,601.052,0.433333362,-0.01666666,0,0,0,,0,189,189,205,1,rana,,,,
,,,,,,67bde019e7a17fb07b4582b7,676192165fb32c2e1fb7aee6,67d1ad910484ed80b86a1a6d,2025-03-12_11h52.12.642,Tarea de decisión léxica,2024.2.5,Win32,59.88023952,,,,,,,,,,,,,,,,,,,,,,,,601.0538,602.1137,l,1,0.3846,,0.3846,1,602.1152,602.6139,,,,,,133,FEM,WORD,AGR,150,vaca,,la,,602.614,602.6142,0.433333362,-0.01666666,0,0,0,,0,190,190,132,1,vesa,,,,
,,,,,,67bde019e7a17fb07b4582b7,676192165fb32c2e1fb7aee6,67d1ad910484ed80b86a1a6d,2025-03-12_11h52.12.642,Tarea de decisión léxica,2024.2.5,Win32,59.88023952,,,,,,,,,,,,,,,,,,,,,,,,602.6169,603.7129,l,1,0.4156,,0.4156,1,603.7131,604.2128,,,,,,277,MAS,WORD,AGR,150,fuego,,el,,604.2128,604.213,0.433333362,-0.01666666,0,0,0,,0,191,191,276,1,vuemo,,,,
,,,,,,67bde019e7a17fb07b4582b7,676192165fb32c2e1fb7aee6,67d1ad910484ed80b86a1a6d,2025-03-12_11h52.12.642,Tarea de decisión léxica,2024.2.5,Win32,59.88023952,,,,,,,,,,,,,,,,,,,,,,,,604.2147,605.5133,a,1,0.618,,0.618,1,605.5136,606.0137,,,,,,182,FEM,NOWORD,AGR,150,teda,,la,,606.0138,606.0141,0.433333362,-0.01666666,0,0,0,,0,192,192,181,1,seda,,,,
,,,,,,67bde019e7a17fb07b4582b7,676192165fb32c2e1fb7aee6,67d1ad910484ed80b86a1a6d,2025-03-12_11h52.12.642,Tarea de decisión léxica,2024.2.5,Win32,59.88023952,,,,,,,,,,,,,,,,,,,,,,,,606.0167,607.2966,a,1,0.6045,,0.6045,1,607.2968,607.7967,,,,,,358,FEM,NOWORD,AGR,150,gruba,,la,,607.7969,607.7973,0.433333362,-0.01666666,0,0,0,,0,193,193,357,1,bruja,,,,
,,,,,,67bde019e7a17fb07b4582b7,676192165fb32c2e1fb7aee6,67d1ad910484ed80b86a1a6d,2025-03-12_11h52.12.642,Tarea de decisión léxica,2024.2.5,Win32,59.88023952,,,,,,,,,,,,,,,,,,,,,,,,607.8,608.9465,a,1,0.4672,,0.4672,1,608.9466,609.4467,,,,,,12,MAS,NOWORD,DIS,150,bapo,,la,,609.4499,609.4522,0.433333362,-0.01666666,0,0,0,,0,194,194,11,1,lado,,,,
,,,,,,67bde019e7a17fb07b4582b7,676192165fb32c2e1fb7aee6,67d1ad910484ed80b86a1a6d,2025-03-12_11h52.12.642,Tarea de decisión léxica,2024.2.5,Win32,59.88023952,,,,,,,,,,,,,,,,,,,,,,,,609.4538,610.4966,l,1,0.3677,,0.3677,1,610.4967,610.9964,,,,,,19,MAS,WORD,DIS,150,niño,,la,,610.9965,610.9967,0.433333362,-0.01666666,0,0,0,,0,195,195,18,1,himo,,,,
,,,,,,67bde019e7a17fb07b4582b7,676192165fb32c2e1fb7aee6,67d1ad910484ed80b86a1a6d,2025-03-12_11h52.12.642,Tarea de decisión léxica,2024.2.5,Win32,59.88023952,,,,,,,,,,,,,,,,,,,,,,,,610.9996,612.0963,l,1,0.4222,,0.4222,1,612.0965,612.5964,,,,,,143,MAS,WORD,DIS,150,pavo,,la,,612.5965,612.5967,0.433333362,-0.01666666,0,0,0,,0,196,196,142,1,pezo,,,,
,,,,,,67bde019e7a17fb07b4582b7,676192165fb32c2e1fb7aee6,67d1ad910484ed80b86a1a6d,2025-03-12_11h52.12.642,Tarea de decisión léxica,2024.2.5,Win32,59.88023952,,,,,,,,,,,,,,,,,,,,,,,,612.5993,614.0795,a,0,0.8068,,0.8068,0,614.0816,614.5793,,,,,,197,MAS,WORD,AGR,150,bate,,el,,614.5795,614.5796,0.433333362,-0.01666666,0,0,0,,0,197,197,196,1,dade,,,,
,,,,,,67bde019e7a17fb07b4582b7,676192165fb32c2e1fb7aee6,67d1ad910484ed80b86a1a6d,2025-03-12_11h52.12.642,Tarea de decisión léxica,2024.2.5,Win32,59.88023952,,,,,,,,,,,,,,,,,,,,,,,,614.5823,615.8458,l,1,0.5895,,0.5895,1,615.8474,616.3461,,,,,,465,FEM,WORD,AGR,150,aguja,,la,,616.3462,616.3464,0.433333362,-0.01666666,0,0,0,,0,198,198,464,1,asuba,,,,
,,,,,,67bde019e7a17fb07b4582b7,676192165fb32c2e1fb7aee6,67d1ad910484ed80b86a1a6d,2025-03-12_11h52.12.642,Tarea de decisión léxica,2024.2.5,Win32,59.88023952,,,,,,,,,,,,,,,,,,,,,,,,616.349,617.963,l,1,0.9342,,0.9342,1,617.963,618.4628,,,,,,243,MAS,WORD,DIS,150,amigo,,la,,618.4661,618.4683,0.433333362,-0.01666666,0,0,0,,0,199,199,242,1,asamo,,,,
,,,,,,67bde019e7a17fb07b4582b7,676192165fb32c2e1fb7aee6,67d1ad910484ed80b86a1a6d,2025-03-12_11h52.12.642,Tarea de decisión léxica,2024.2.5,Win32,59.88023952,,,,,,,,,,,,,,,,,,,,,,,,618.4699,619.8117,a,1,0.6673,,0.6673,1,619.8118,620.3126,,,,,,70,FEM,NOWORD,AGR,150,ñola,,la,,620.3128,620.313,0.433333362,-0.01666666,0,0,0,,0,200,200,69,1,zona,,,,
,,,,,,67bde019e7a17fb07b4582b7,676192165fb32c2e1fb7aee6,67d1ad910484ed80b86a1a6d,2025-03-12_11h52.12.642,Tarea de decisión léxica,2024.2.5,Win32,59.88023952,,,,,,,,,,,,,,,,,,,,,,,,620.3156,621.629,l,1,0.6386,,0.6386,1,621.6291,622.1289,,,,,,435,MAS,WORD,DIS,150,ritmo,,la,,622.129,622.1293,0.433333362,-0.01666666,0,0,0,,0,201,201,434,1,ricno,,,,
,,,,,,67bde019e7a17fb07b4582b7,676192165fb32c2e1fb7aee6,67d1ad910484ed80b86a1a6d,2025-03-12_11h52.12.642,Tarea de decisión léxica,2024.2.5,Win32,59.88023952,,,,,,,,,,,,,,,,,,,,,,,,622.132,623.2955,l,1,0.4856,,0.4856,1,623.2957,623.7958,,,,,,135,MAS,WORD,DIS,150,tubo,,la,,623.7959,623.7961,0.433333362,-0.01666666,0,0,0,,0,202,202,134,1,geso,,,,
,,,,,,67bde019e7a17fb07b4582b7,676192165fb32c2e1fb7aee6,67d1ad910484ed80b86a1a6d,2025-03-12_11h52.12.642,Tarea de decisión léxica,2024.2.5,Win32,59.88023952,,,,,,,,,,,,,,,,,,,,,,,,623.7987,625.3462,l,0,0.8755,,0.8755,0,625.3485,625.8456,,,,,,82,FEM,NOWORD,AGR,150,vasa,,la,,625.8479,625.8503,0.433333362,-0.01666666,0,0,0,,0,203,203,81,1,dama,,,,
,,,,,,67bde019e7a17fb07b4582b7,676192165fb32c2e1fb7aee6,67d1ad910484ed80b86a1a6d,2025-03-12_11h52.12.642,Tarea de decisión léxica,2024.2.5,Win32,59.88023952,,,,,,,,,,,,,,,,,,,,,,,,625.8521,627.2615,a,1,0.7321,,0.7321,1,627.2624,627.7622,,,,,,430,FEM,NOWORD,AGR,150,tenta,,la,,627.7624,627.7626,0.433333362,-0.01666666,0,0,0,,0,204,204,429,1,tarta,,,,
,,,,,,67bde019e7a17fb07b4582b7,676192165fb32c2e1fb7aee6,67d1ad910484ed80b86a1a6d,2025-03-12_11h52.12.642,Tarea de decisión léxica,2024.2.5,Win32,59.88023952,,,,,,,,,,,,,,,,,,,,,,,,627.7651,629.1287,a,0,0.6843,,0.6843,0,629.1302,629.6286,,,,,,397,FEM,WORD,AGR,150,tribu,,la,,629.6287,629.6289,0.433333362,-0.01666666,0,0,0,,0,205,205,396,1,trigi,,,,
,,,,,,67bde019e7a17fb07b4582b7,676192165fb32c2e1fb7aee6,67d1ad910484ed80b86a1a6d,2025-03-12_11h52.12.642,Tarea de decisión léxica,2024.2.5,Win32,59.88023952,,,,,,,,,,,,,,,,,,,,,,,,629.6319,631.2618,a,1,0.951,,0.951,1,631.2632,631.7619,,,,,,330,MAS,NOWORD,AGR,150,nueno,,el,,631.7621,631.7623,0.433333362,-0.01666666,0,0,0,,0,206,206,329,1,hueso,,,,
,,,,,,67bde019e7a17fb07b4582b7,676192165fb32c2e1fb7aee6,67d1ad910484ed80b86a1a6d,2025-03-12_11h52.12.642,Tarea de decisión léxica,2024.2.5,Win32,59.88023952,,,,,,,,,,,,,,,,,,,,,,,,631.7648,633.0957,l,1,0.6493,,0.6493,1,633.096,633.5952,,,,,,349,MAS,WORD,AGR,150,color,,el,,633.5953,633.5954,0.433333362,-0.01666666,0,0,0,,0,207,207,348,1,cosir,,,,
,,,,,,67bde019e7a17fb07b4582b7,676192165fb32c2e1fb7aee6,67d1ad910484ed80b86a1a6d,2025-03-12_11h52.12.642,Tarea de decisión léxica,2024.2.5,Win32,59.88023952,,,,,,,,,,,,,,,,,,,,,,,,633.5979,634.8615,a,1,0.5859,,0.5859,1,634.8617,635.3618,,,,,,30,MAS,NOWORD,AGR,150,pono,,el,,635.3649,635.3674,0.433333362,-0.01666666,0,0,0,,0,208,208,29,1,modo,,,,
,,,,,,67bde019e7a17fb07b4582b7,676192165fb32c2e1fb7aee6,67d1ad910484ed80b86a1a6d,2025-03-12_11h52.12.642,Tarea de decisión léxica,2024.2.5,Win32,59.88023952,,,,,,,,,,,,,,,,,,,,,,,,635.3693,636.5273,a,1,0.4895,,0.4895,1,636.5275,637.0283,,,,,,416,FEM,NOWORD,DIS,150,juira,,el,,637.0284,637.0289,0.433333362,-0.01666666,0,0,0,,0,209,209,415,1,jaula,,,,
,,,,,,67bde019e7a17fb07b4582b7,676192165fb32c2e1fb7aee6,67d1ad910484ed80b86a1a6d,2025-03-12_11h52.12.642,Tarea de decisión léxica,2024.2.5,Win32,59.88023952,,,,,,,,,,,,,,,,,,,,,,,,637.0333,638.1951,a,1,0.4843,,0.4843,1,638.1952,638.695,,,,,,200,MAS,NOWORD,DIS,150,fano,,la,,638.6951,638.6952,0.433333362,-0.01666666,0,0,0,,0,210,210,199,1,lazo,,,,
,,,,,,67bde019e7a17fb07b4582b7,676192165fb32c2e1fb7aee6,67d1ad910484ed80b86a1a6d,2025-03-12_11h52.12.642,Tarea de decisión léxica,2024.2.5,Win32,59.88023952,,,,,,,,,,,,,,,,,,,,,,,,638.698,639.7615,l,1,0.3836,,0.3836,1,639.7617,640.2615,,,,,,257,FEM,WORD,AGR,150,amiga,,la,,640.2616,640.2618,0.433333362,-0.01666666,0,0,0,,0,211,211,256,1,asama,,,,
,,,,,,67bde019e7a17fb07b4582b7,676192165fb32c2e1fb7aee6,67d1ad910484ed80b86a1a6d,2025-03-12_11h52.12.642,Tarea de decisión léxica,2024.2.5,Win32,59.88023952,,,,,,,,,,,,,,,,,,,,,,,,640.2645,641.378,a,1,0.437,,0.437,1,641.3783,641.8776,,,,,,198,MAS,NOWORD,AGR,150,dade,,el,,641.8777,641.878,0.433333362,-0.01666666,0,0,0,,0,212,212,197,1,bate,,,,
,,,,,,67bde019e7a17fb07b4582b7,676192165fb32c2e1fb7aee6,67d1ad910484ed80b86a1a6d,2025-03-12_11h52.12.642,Tarea de decisión léxica,2024.2.5,Win32,59.88023952,,,,,,,,,,,,,,,,,,,,,,,,641.8807,642.9612,a,1,0.4007,,0.4007,1,642.9615,643.4606,,,,,,48,MAS,NOWORD,DIS,150,chub,,la,,643.4626,643.4646,0.433333362,-0.01666666,0,0,0,,0,213,213,47,1,club,,,,
,,,,,,67bde019e7a17fb07b4582b7,676192165fb32c2e1fb7aee6,67d1ad910484ed80b86a1a6d,2025-03-12_11h52.12.642,Tarea de decisión léxica,2024.2.5,Win32,59.88023952,,,,,,,,,,,,,,,,,,,,,,,,643.4654,644.5612,a,1,0.418,,0.418,1,644.5613,645.0608,,,,,,366,FEM,NOWORD,AGR,150,gulla,,la,,645.061,645.0611,0.433333362,-0.01666666,0,0,0,,0,214,214,365,1,ducha,,,,
,,,,,,67bde019e7a17fb07b4582b7,676192165fb32c2e1fb7aee6,67d1ad910484ed80b86a1a6d,2025-03-12_11h52.12.642,Tarea de decisión léxica,2024.2.5,Win32,59.88023952,,,,,,,,,,,,,,,,,,,,,,,,645.0642,646.6273,a,0,0.888,,0.888,0,646.629,647.1265,,,,,,415,FEM,WORD,DIS,150,jaula,,el,,647.1266,647.1267,0.433333362,-0.01666666,0,0,0,,0,215,215,414,1,juira,,,,
,,,,,,67bde019e7a17fb07b4582b7,676192165fb32c2e1fb7aee6,67d1ad910484ed80b86a1a6d,2025-03-12_11h52.12.642,Tarea de decisión léxica,2024.2.5,Win32,59.88023952,,,,,,,,,,,,,,,,,,,,,,,,647.1274,648.4109,l,1,0.6178,,0.6178,1,648.4124,648.9109,,,,,,265,FEM,WORD,AGR,150,mitad,,la,,648.9109,648.9111,0.433333362,-0.01666666,0,0,0,,0,216,216,264,1,pitat,,,,
,,,,,,67bde019e7a17fb07b4582b7,676192165fb32c2e1fb7aee6,67d1ad910484ed80b86a1a6d,2025-03-12_11h52.12.642,Tarea de decisión léxica,2024.2.5,Win32,59.88023952,,,,,,,,,,,,,,,,,,,,,,,,648.9135,650.0944,l,1,0.5017,,0.5017,1,650.0946,650.594,,,,,,297,MAS,WORD,AGR,150,grupo,,el,,650.5941,650.5943,0.433333362,-0.01666666,0,0,0,,0,217,217,296,1,brubo,,,,
,,,,,,67bde019e7a17fb07b4582b7,676192165fb32c2e1fb7aee6,67d1ad910484ed80b86a1a6d,2025-03-12_11h52.12.642,Tarea de decisión léxica,2024.2.5,Win32,59.88023952,,,,,,,,,,,,,,,,,,,,,,,,650.597,651.6439,l,1,0.3674,,0.3674,1,651.6441,652.1441,,,,,,263,FEM,WORD,DIS,150,vista,,el,,652.1468,652.1493,0.433333362,-0.01666666,0,0,0,,0,218,218,262,1,dosta,,,,
,,,,,,67bde019e7a17fb07b4582b7,676192165fb32c2e1fb7aee6,67d1ad910484ed80b86a1a6d,2025-03-12_11h52.12.642,Tarea de decisión léxica,2024.2.5,Win32,59.88023952,,,,,,,,,,,,,,,,,,,,,,,,652.151,653.3937,a,1,0.5709,,0.5709,1,653.3939,653.8938,,,,,,466,FEM,NOWORD,AGR,150,asuba,,la,,653.8939,653.8944,0.433333362,-0.01666666,0,0,0,,0,219,219,465,1,aguja,,,,
,,,,,,67bde019e7a17fb07b4582b7,676192165fb32c2e1fb7aee6,67d1ad910484ed80b86a1a6d,2025-03-12_11h52.12.642,Tarea de decisión léxica,2024.2.5,Win32,59.88023952,,,,,,,,,,,,,,,,,,,,,,,,653.8975,654.9764,l,1,0.4044,,0.4044,1,654.9765,655.4773,,,,,,401,MAS,WORD,AGR,150,polvo,,el,,655.4774,655.4777,0.433333362,-0.01666666,0,0,0,,0,220,220,400,1,pirvo,,,,
,,,,,,67bde019e7a17fb07b4582b7,676192165fb32c2e1fb7aee6,67d1ad910484ed80b86a1a6d,2025-03-12_11h52.12.642,Tarea de decisión léxica,2024.2.5,Win32,59.88023952,,,,,,,,,,,,,,,,,,,,,,,,655.4807,656.577,a,1,0.4185,,0.4185,1,656.5772,657.077,,,,,,168,FEM,NOWORD,DIS,150,zifa,,el,,657.0771,657.0774,0.433333362,-0.01666666,0,0,0,,0,221,221,167,1,jefa,,,,
,,,,,,67bde019e7a17fb07b4582b7,676192165fb32c2e1fb7aee6,67d1ad910484ed80b86a1a6d,2025-03-12_11h52.12.642,Tarea de decisión léxica,2024.2.5,Win32,59.88023952,,,,,,,,,,,,,,,,,,,,,,,,657.0803,658.3267,a,1,0.574,,0.574,1,658.3268,658.8268,,,,,,432,MAS,NOWORD,DIS,150,tetor,,la,,658.8269,658.8271,0.433333362,-0.01666666,0,0,0,,0,222,222,431,1,motor,,,,
,,,,,,67bde019e7a17fb07b4582b7,676192165fb32c2e1fb7aee6,67d1ad910484ed80b86a1a6d,2025-03-12_11h52.12.642,Tarea de decisión léxica,2024.2.5,Win32,59.88023952,,,,,,,,,,,,,,,,,,,,,,,,658.8304,660.1934,a,1,0.6856,,0.6856,1,660.1936,660.6936,,,,,,316,FEM,NOWORD,DIS,150,riosa,,el,,660.6962,660.6993,0.433333362,-0.01666666,0,0,0,,0,223,223,315,1,reina,,,,
,,,,,,67bde019e7a17fb07b4582b7,676192165fb32c2e1fb7aee6,67d1ad910484ed80b86a1a6d,2025-03-12_11h52.12.642,Tarea de decisión léxica,2024.2.5,Win32,59.88023952,,,,,,,,,,,,,,,,,,,,,,,,660.7012,661.9264,a,1,0.5532,,0.5532,1,661.9266,662.4268,,,,,,232,FEM,NOWORD,DIS,150,heta,,el,,662.4269,662.4271,0.433333362,-0.01666666,0,0,0,,0,224,224,231,1,bota,,,,
,,,,,,67bde019e7a17fb07b4582b7,676192165fb32c2e1fb7aee6,67d1ad910484ed80b86a1a6d,2025-03-12_11h52.12.642,Tarea de decisión léxica,2024.2.5,Win32,59.88023952,,,,,,,,,,,,,,,,,,,,,,,,662.4298,663.5603,l,1,0.458,,0.458,1,663.5605,664.0597,,,,,,129,MAS,WORD,AGR,150,oído,,el,,664.0599,664.0603,0.433333362,-0.01666666,0,0,0,,0,225,225,128,1,pima,,,,
,,,,,,67bde019e7a17fb07b4582b7,676192165fb32c2e1fb7aee6,67d1ad910484ed80b86a1a6d,2025-03-12_11h52.12.642,Tarea de decisión léxica,2024.2.5,Win32,59.88023952,,,,,,,,,,,,,,,,,,,,,,,,664.0625,665.6096,l,0,0.868,,0.868,0,665.6112,666.1097,,,,,,240,MAS,NOWORD,DIS,150,poño,,la,,666.1098,666.11,0.433333362,-0.01666666,0,0,0,,0,226,226,239,1,mozo,,,,
,,,,,,67bde019e7a17fb07b4582b7,676192165fb32c2e1fb7aee6,67d1ad910484ed80b86a1a6d,2025-03-12_11h52.12.642,Tarea de decisión léxica,2024.2.5,Win32,59.88023952,,,,,,,,,,,,,,,,,,,,,,,,666.1126,667.5094,a,1,0.7215,,0.7215,1,667.5109,668.0096,,,,,,290,FEM,NOWORD,AGR,150,bumpa,,la,,668.0129,668.0151,0.433333362,-0.01666666,0,0,0,,0,227,227,289,1,bomba,,,,
,,,,,,67bde019e7a17fb07b4582b7,676192165fb32c2e1fb7aee6,67d1ad910484ed80b86a1a6d,2025-03-12_11h52.12.642,Tarea de decisión léxica,2024.2.5,Win32,59.88023952,,,,,,,,,,,,,,,,,,,,,,,,668.017,669.1097,a,1,0.4179,,0.4179,1,669.1099,669.6093,,,,,,382,MAS,NOWORD,AGR,150,nusor,,el,,669.6094,669.6096,0.433333362,-0.01666666,0,0,0,,0,228,228,381,1,humor,,,,
,,,,,,67bde019e7a17fb07b4582b7,676192165fb32c2e1fb7aee6,67d1ad910484ed80b86a1a6d,2025-03-12_11h52.12.642,Tarea de decisión léxica,2024.2.5,Win32,59.88023952,,,,,,,,,,,,,,,,,,,,,,,,669.6123,670.643,l,1,0.3518,,0.3518,1,670.6431,671.1428,,,,,,289,FEM,WORD,AGR,150,bomba,,la,,671.1429,671.143,0.433333362,-0.01666666,0,0,0,,0,229,229,288,1,bumpa,,,,
,,,,,,67bde019e7a17fb07b4582b7,676192165fb32c2e1fb7aee6,67d1ad910484ed80b86a1a6d,2025-03-12_11h52.12.642,Tarea de decisión léxica,2024.2.5,Win32,59.88023952,,,,,,,,,,,,,,,,,,,,,,,,671.1455,672.1929,l,1,0.3685,,0.3685,1,672.193,672.6929,,,,,,463,FEM,WORD,DIS,150,cabra,,el,,672.693,672.6932,0.433333362,-0.01666666,0,0,0,,0,230,230,462,1,matla,,,,
,,,,,,67bde019e7a17fb07b4582b7,676192165fb32c2e1fb7aee6,67d1ad910484ed80b86a1a6d,2025-03-12_11h52.12.642,Tarea de decisión léxica,2024.2.5,Win32,59.88023952,,,,,,,,,,,,,,,,,,,,,,,,672.6962,674.0429,a,1,0.6686,,0.6686,1,674.0431,674.5426,,,,,,342,MAS,NOWORD,AGR,150,daror,,el,,674.5428,674.5429,0.433333362,-0.01666666,0,0,0,,0,231,231,341,1,valor,,,,
,,,,,,67bde019e7a17fb07b4582b7,676192165fb32c2e1fb7aee6,67d1ad910484ed80b86a1a6d,2025-03-12_11h52.12.642,Tarea de decisión léxica,2024.2.5,Win32,59.88023952,,,,,,,,,,,,,,,,,,,,,,,,674.5463,676.0257,a,1,0.8011,,0.8011,1,676.0257,676.5259,,,,,,94,FEM,NOWORD,AGR,150,rona,,la,,676.5289,676.5311,0.433333362,-0.01666666,0,0,0,,0,232,232,93,1,bola,,,,
,,,,,,67bde019e7a17fb07b4582b7,676192165fb32c2e1fb7aee6,67d1ad910484ed80b86a1a6d,2025-03-12_11h52.12.642,Tarea de decisión léxica,2024.2.5,Win32,59.88023952,,,,,,,,,,,,,,,,,,,,,,,,676.5328,677.9592,a,1,0.7502,,0.7502,1,677.9594,678.459,,,,,,242,MAS,NOWORD,AGR,150,mirdo,,el,,678.4592,678.4594,0.433333362,-0.01666666,0,0,0,,0,233,233,241,1,mundo,,,,
,,,,,,67bde019e7a17fb07b4582b7,676192165fb32c2e1fb7aee6,67d1ad910484ed80b86a1a6d,2025-03-12_11h52.12.642,Tarea de decisión léxica,2024.2.5,Win32,59.88023952,,,,,,,,,,,,,,,,,,,,,,,,678.4619,679.7588,l,1,0.6212,,0.6212,1,679.7589,680.2588,,,,,,291,FEM,WORD,DIS,150,pista,,el,,680.2589,680.259,0.433333362,-0.01666666,0,0,0,,0,234,234,290,1,mesta,,,,
,,,,,,67bde019e7a17fb07b4582b7,676192165fb32c2e1fb7aee6,67d1ad910484ed80b86a1a6d,2025-03-12_11h52.12.642,Tarea de decisión léxica,2024.2.5,Win32,59.88023952,,,,,,,,,,,,,,,,,,,,,,,,680.2615,681.358,l,1,0.4166,,0.4166,1,681.358,681.8585,,,,,,477,MAS,WORD,AGR,150,botón,,el,,681.8586,681.8588,0.433333362,-0.01666666,0,0,0,,0,235,235,476,1,hocon,,,,
,,,,,,67bde019e7a17fb07b4582b7,676192165fb32c2e1fb7aee6,67d1ad910484ed80b86a1a6d,2025-03-12_11h52.12.642,Tarea de decisión léxica,2024.2.5,Win32,59.88023952,,,,,,,,,,,,,,,,,,,,,,,,681.8618,683.1919,l,1,0.6547,,0.6547,1,683.1922,683.6922,,,,,,21,MAS,WORD,AGR,150,plan,,el,,683.6924,683.6925,0.433333362,-0.01666666,0,0,0,,0,236,236,20,1,blan,,,,
,,,,,,67bde019e7a17fb07b4582b7,676192165fb32c2e1fb7aee6,67d1ad910484ed80b86a1a6d,2025-03-12_11h52.12.642,Tarea de decisión léxica,2024.2.5,Win32,59.88023952,,,,,,,,,,,,,,,,,,,,,,,,683.6952,685.1578,a,1,0.7825,,0.7825,1,685.1579,685.6584,,,,,,102,MAS,NOWORD,AGR,150,gito,,el,,685.6615,685.6638,0.433333362,-0.01666666,0,0,0,,0,237,237,101,1,tono,,,,
,,,,,,67bde019e7a17fb07b4582b7,676192165fb32c2e1fb7aee6,67d1ad910484ed80b86a1a6d,2025-03-12_11h52.12.642,Tarea de decisión léxica,2024.2.5,Win32,59.88023952,,,,,,,,,,,,,,,,,,,,,,,,685.6656,686.8583,l,1,0.5242,,0.5242,1,686.8584,687.3585,,,,,,115,FEM,WORD,DIS,150,pata,,el,,687.3586,687.3589,0.433333362,-0.01666666,0,0,0,,0,238,238,114,1,haca,,,,
,,,,,,67bde019e7a17fb07b4582b7,676192165fb32c2e1fb7aee6,67d1ad910484ed80b86a1a6d,2025-03-12_11h52.12.642,Tarea de decisión léxica,2024.2.5,Win32,59.88023952,,,,,,,,,,,,,,,,,,,,,,,,687.3619,688.9916,l,0,0.9534,,0.9534,0,688.9937,689.4918,,,,,,378,MAS,NOWORD,AGR,150,gaulo,,el,,689.4919,689.4921,0.433333362,-0.01666666,0,0,0,,0,239,239,377,1,hielo,,,,
,,,,,,67bde019e7a17fb07b4582b7,676192165fb32c2e1fb7aee6,67d1ad910484ed80b86a1a6d,2025-03-12_11h52.12.642,Tarea de decisión léxica,2024.2.5,Win32,59.88023952,,,,,,,,,,,,,,,,,,,,,,,,689.4955,690.8417,a,1,0.6679,,0.6679,1,690.843,691.3416,,,,,,340,MAS,NOWORD,DIS,150,plajo,,la,,691.3417,691.342,0.433333362,-0.01666666,0,0,0,,0,240,240,339,1,brazo,,,,
,,,,,,67bde019e7a17fb07b4582b7,676192165fb32c2e1fb7aee6,67d1ad910484ed80b86a1a6d,2025-03-12_11h52.12.642,Tarea de decisión léxica,2024.2.5,Win32,59.88023952,,,,,,,,,,,,,,,,,,,,,,,,691.3446,692.575,l,1,0.5515,,0.5515,1,692.5752,693.0749,,,,,,273,FEM,WORD,AGR,150,broma,,la,,693.0749,693.0752,0.433333362,-0.01666666,0,0,0,,0,241,241,272,1,frosa,,,,
,,,,,,67bde019e7a17fb07b4582b7,676192165fb32c2e1fb7aee6,67d1ad910484ed80b86a1a6d,2025-03-12_11h52.12.642,Tarea de decisión léxica,2024.2.5,Win32,59.88023952,,,,,,,,,,,,,,,,,,,,,,,,693.0776,694.3582,l,1,0.6028,,0.6028,1,694.3584,694.8582,,,,,,431,MAS,WORD,DIS,150,motor,,la,,694.8618,694.8638,0.433333362,-0.01666666,0,0,0,,0,242,242,430,1,tetor,,,,
,,,,,,67bde019e7a17fb07b4582b7,676192165fb32c2e1fb7aee6,67d1ad910484ed80b86a1a6d,2025-03-12_11h52.12.642,Tarea de decisión léxica,2024.2.5,Win32,59.88023952,,,,,,,,,,,,,,,,,,,,,,,,694.8654,696.4739,a,0,0.9349,,0.9349,0,696.4747,696.9747,,,,,,187,MAS,WORD,DIS,150,mito,,la,,696.9748,696.975,0.433333362,-0.01666666,0,0,0,,0,243,243,186,1,suto,,,,
,,,,,,67bde019e7a17fb07b4582b7,676192165fb32c2e1fb7aee6,67d1ad910484ed80b86a1a6d,2025-03-12_11h52.12.642,Tarea de decisión léxica,2024.2.5,Win32,59.88023952,,,,,,,,,,,,,,,,,,,,,,,,696.9776,698.2418,l,1,0.5921,,0.5921,1,698.2434,698.742,,,,,,321,MAS,WORD,AGR,150,banco,,el,,698.7421,698.7424,0.433333362,-0.01666666,0,0,0,,0,244,244,320,1,rarco,,,,
,,,,,,67bde019e7a17fb07b4582b7,676192165fb32c2e1fb7aee6,67d1ad910484ed80b86a1a6d,2025-03-12_11h52.12.642,Tarea de decisión léxica,2024.2.5,Win32,59.88023952,,,,,,,,,,,,,,,,,,,,,,,,698.7457,699.7744,l,1,0.3508,,0.3508,1,699.7746,700.2736,,,,,,59,FEM,WORD,DIS,150,sala,,el,,700.2737,700.2738,0.433333362,-0.01666666,0,0,0,,0,245,245,58,1,tafa,,,,
,,,,,,67bde019e7a17fb07b4582b7,676192165fb32c2e1fb7aee6,67d1ad910484ed80b86a1a6d,2025-03-12_11h52.12.642,Tarea de decisión léxica,2024.2.5,Win32,59.88023952,,,,,,,,,,,,,,,,,,,,,,,,700.2755,701.4073,l,1,0.4548,,0.4548,1,701.4075,701.9077,,,,,,445,MAS,WORD,AGR,150,actor,,el,,701.9078,701.9082,0.433333362,-0.01666666,0,0,0,,0,246,246,444,1,ascor,,,,
,,,,,,67bde019e7a17fb07b4582b7,676192165fb32c2e1fb7aee6,67d1ad910484ed80b86a1a6d,2025-03-12_11h52.12.642,Tarea de decisión léxica,2024.2.5,Win32,59.88023952,,,,,,,,,,,,,,,,,,,,,,,,701.9112,703.1244,a,1,0.534,,0.534,1,703.1246,703.6243,,,,,,120,MAS,NOWORD,DIS,150,hooy,,la,,703.627,703.6294,0.433333362,-0.01666666,0,0,0,,0,247,247,119,1,pozo,,,,
,,,,,,67bde019e7a17fb07b4582b7,676192165fb32c2e1fb7aee6,67d1ad910484ed80b86a1a6d,2025-03-12_11h52.12.642,Tarea de decisión léxica,2024.2.5,Win32,59.88023952,,,,,,,,,,,,,,,,,,,,,,,,703.6311,704.707,l,1,0.4067,,0.4067,1,704.7072,705.2072,,,,,,87,MAS,WORD,DIS,150,vaso,,la,,705.2073,705.2075,0.433333362,-0.01666666,0,0,0,,0,248,248,86,1,damo,,,,
,,,,,,67bde019e7a17fb07b4582b7,676192165fb32c2e1fb7aee6,67d1ad910484ed80b86a1a6d,2025-03-12_11h52.12.642,Tarea de decisión léxica,2024.2.5,Win32,59.88023952,,,,,,,,,,,,,,,,,,,,,,,,705.2099,706.2907,l,1,0.4024,,0.4024,1,706.2908,706.7903,,,,,,145,MAS,WORD,AGR,150,león,,el,,706.7904,706.7906,0.433333362,-0.01666666,0,0,0,,0,249,249,144,1,nobo,,,,
,,,,,,67bde019e7a17fb07b4582b7,676192165fb32c2e1fb7aee6,67d1ad910484ed80b86a1a6d,2025-03-12_11h52.12.642,Tarea de decisión léxica,2024.2.5,Win32,59.88023952,,,,,,,,,,,,,,,,,,,,,,,,706.7934,707.9396,a,1,0.4655,,0.4655,1,707.9397,708.4406,,,,,,406,FEM,NOWORD,AGR,150,rarra,,la,,708.4406,708.4409,0.433333362,-0.01666666,0,0,0,,0,250,250,405,1,barra,,,,
,,,,,,67bde019e7a17fb07b4582b7,676192165fb32c2e1fb7aee6,67d1ad910484ed80b86a1a6d,2025-03-12_11h52.12.642,Tarea de decisión léxica,2024.2.5,Win32,59.88023952,,,,,,,,,,,,,,,,,,,,,,,,708.4436,709.5568,l,1,0.4374,,0.4374,1,709.557,710.0571,,,,,,411,MAS,WORD,DIS,150,pollo,,la,,710.06,710.0626,0.433333362,-0.01666666,0,0,0,,0,251,251,410,1,mobro,,,,
,,,,,,67bde019e7a17fb07b4582b7,676192165fb32c2e1fb7aee6,67d1ad910484ed80b86a1a6d,2025-03-12_11h52.12.642,Tarea de decisión léxica,2024.2.5,Win32,59.88023952,,,,,,,,,,,,,,,,,,,,,,,,710.0643,711.1904,a,1,0.4504,,0.4504,1,711.1906,711.6904,,,,,,398,FEM,NOWORD,AGR,150,trigi,,la,,711.6905,711.6907,0.433333362,-0.01666666,0,0,0,,0,252,252,397,1,tribu,,,,
,,,,,,67bde019e7a17fb07b4582b7,676192165fb32c2e1fb7aee6,67d1ad910484ed80b86a1a6d,2025-03-12_11h52.12.642,Tarea de decisión léxica,2024.2.5,Win32,59.88023952,,,,,,,,,,,,,,,,,,,,,,,,711.6933,712.7073,l,1,0.3417,,0.3417,1,712.7075,713.2068,,,,,,1,FEM,WORD,AGR,150,casa,,la,,713.2069,713.2071,0.433333362,-0.01666666,0,0,0,,0,253,253,0,1,mada,,,,
,,,,,,67bde019e7a17fb07b4582b7,676192165fb32c2e1fb7aee6,67d1ad910484ed80b86a1a6d,2025-03-12_11h52.12.642,Tarea de decisión léxica,2024.2.5,Win32,59.88023952,,,,,,,,,,,,,,,,,,,,,,,,713.2097,714.3399,a,1,0.4561,,0.4561,1,714.3401,714.8399,,,,,,350,MAS,NOWORD,AGR,150,cosir,,el,,714.84,714.8402,0.433333362,-0.01666666,0,0,0,,0,254,254,349,1,color,,,,
,,,,,,67bde019e7a17fb07b4582b7,676192165fb32c2e1fb7aee6,67d1ad910484ed80b86a1a6d,2025-03-12_11h52.12.642,Tarea de decisión léxica,2024.2.5,Win32,59.88023952,,,,,,,,,,,,,,,,,,,,,,,,714.8432,716.1232,l,1,0.6038,,0.6038,1,716.1235,716.6236,,,,,,39,MAS,WORD,DIS,150,voto,,la,,716.6236,716.6238,0.433333362,-0.01666666,0,0,0,,0,255,255,38,1,redo,,,,
,,,,,,67bde019e7a17fb07b4582b7,676192165fb32c2e1fb7aee6,67d1ad910484ed80b86a1a6d,2025-03-12_11h52.12.642,Tarea de decisión léxica,2024.2.5,Win32,59.88023952,,,,,,,,,,,,,,,,,,,,,,,,716.6264,717.7734,l,1,0.4675,,0.4675,1,717.7736,718.2733,,,,,,293,MAS,WORD,AGR,150,campo,,el,,718.2761,718.2784,0.433333362,-0.01666666,0,0,0,,0,256,256,292,1,cacso,,,,
,,,,,,67bde019e7a17fb07b4582b7,676192165fb32c2e1fb7aee6,67d1ad910484ed80b86a1a6d,2025-03-12_11h52.12.642,Tarea de decisión léxica,2024.2.5,Win32,59.88023952,,,,,,,,,,,,,,,,,,,,,,,,718.2802,719.556,a,1,0.599,,0.599,1,719.5562,720.0567,,,,,,106,FEM,NOWORD,AGR,150,vina,,la,,720.0568,720.057,0.433333362,-0.01666666,0,0,0,,0,257,257,105,1,sopa,,,,
,,,,,,67bde019e7a17fb07b4582b7,676192165fb32c2e1fb7aee6,67d1ad910484ed80b86a1a6d,2025-03-12_11h52.12.642,Tarea de decisión léxica,2024.2.5,Win32,59.88023952,,,,,,,,,,,,,,,,,,,,,,,,720.0599,721.6065,a,1,0.8671,,0.8671,1,721.6067,722.1062,,,,,,322,MAS,NOWORD,AGR,150,rarco,,el,,722.1063,722.1065,0.433333362,-0.01666666,0,0,0,,0,258,258,321,1,banco,,,,
,,,,,,67bde019e7a17fb07b4582b7,676192165fb32c2e1fb7aee6,67d1ad910484ed80b86a1a6d,2025-03-12_11h52.12.642,Tarea de decisión léxica,2024.2.5,Win32,59.88023952,,,,,,,,,,,,,,,,,,,,,,,,722.1092,723.3894,a,1,0.6017,,0.6017,1,723.3895,723.8893,,,,,,188,MAS,NOWORD,DIS,150,suto,,la,,723.8894,723.8896,0.433333362,-0.01666666,0,0,0,,0,259,259,187,1,mito,,,,
,,,,,,67bde019e7a17fb07b4582b7,676192165fb32c2e1fb7aee6,67d1ad910484ed80b86a1a6d,2025-03-12_11h52.12.642,Tarea de decisión léxica,2024.2.5,Win32,59.88023952,,,,,,,,,,,,,,,,,,,,,,,,723.8924,725.0392,l,1,0.4679,,0.4679,1,725.0394,725.5395,,,,,,77,MAS,WORD,AGR,150,loco,,el,,725.5396,725.5399,0.433333362,-0.01666666,0,0,0,,0,260,260,76,1,fodo,,,,
,,,,,,67bde019e7a17fb07b4582b7,676192165fb32c2e1fb7aee6,67d1ad910484ed80b86a1a6d,2025-03-12_11h52.12.642,Tarea de decisión léxica,2024.2.5,Win32,59.88023952,,,,,,,,,,,,,,,,,,,,,,,,725.5426,726.9394,a,1,0.718,,0.718,1,726.9396,727.4392,,,,,,390,MAS,NOWORD,AGR,150,cenco,,el,,727.4424,727.4445,0.433333362,-0.01666666,0,0,0,,0,261,261,389,1,cerdo,,,,
,,,,,,67bde019e7a17fb07b4582b7,676192165fb32c2e1fb7aee6,67d1ad910484ed80b86a1a6d,2025-03-12_11h52.12.642,Tarea de decisión léxica,2024.2.5,Win32,59.88023952,,,,,,,,,,,,,,,,,,,,,,,,727.4462,728.906,l,0,0.7848,,0.7848,0,728.9078,729.4061,,,,,,338,MAS,NOWORD,AGR,150,nuejo,,el,,729.4062,729.4063,0.433333362,-0.01666666,0,0,0,,0,262,262,337,1,huevo,,,,
,,,,,,67bde019e7a17fb07b4582b7,676192165fb32c2e1fb7aee6,67d1ad910484ed80b86a1a6d,2025-03-12_11h52.12.642,Tarea de decisión léxica,2024.2.5,Win32,59.88023952,,,,,,,,,,,,,,,,,,,,,,,,729.4093,730.6399,l,1,0.5587,,0.5587,1,730.6419,731.1394,,,,,,319,MAS,WORD,DIS,150,suelo,,la,,731.1396,731.1399,0.433333362,-0.01666666,0,0,0,,0,263,263,318,1,tuero,,,,
